ACC_X,ACC_Y,ACC_Z,start_time_unix,sampling_rate
-29,-9,59,1624845156.0,32.000000
-30,-8,55,1624845156.0,32.000000
-31,-8,54,1624845156.0,32.000000
-30,-9,53,1624845156.0,32.000000
-30,-10,52,1624845156.0,32.000000
-26,-9,60,1624845156.0,32.000000
-24,-9,65,1624845156.0,32.000000
-26,-8,57,1624845156.0,32.000000
-21,-6,55,1624845156.0,32.000000
-24,-8,61,1624845156.0,32.000000
-26,-10,57,1624845156.0,32.000000
-24,-9,56,1624845156.0,32.000000
-24,-8,58,1624845156.0,32.000000
-24,-8,59,1624845156.0,32.000000
-24,-8,59,1624845156.0,32.000000
-24,-8,58,1624845156.0,32.000000
-24,-8,58,1624845156.0,32.000000
-24,-8,59,1624845156.0,32.000000
-25,-8,59,1624845156.0,32.000000
-24,-8,58,1624845156.0,32.000000
-26,-7,58,1624845156.0,32.000000
-23,-8,62,1624845156.0,32.000000
-25,-9,57,1624845156.0,32.000000
-25,-8,56,1624845156.0,32.000000
-25,-9,60,1624845156.0,32.000000
-22,-9,60,1624845156.0,32.000000
-25,-8,56,1624845156.0,32.000000
-25,-8,56,1624845156.0,32.000000
-23,-9,59,1624845156.0,32.000000
-24,-9,58,1624845156.0,32.000000
-26,-8,57,1624845156.0,32.000000
-25,-8,58,1624845156.0,32.000000
-23,-4,61,1624845156.0,32.000000
-24,-5,60,1624845156.0,32.000000
-26,-12,57,1624845156.0,32.000000
-25,-12,56,1624845156.0,32.000000
-26,-9,56,1624845156.0,32.000000
-26,-9,57,1624845156.0,32.000000
-27,-9,58,1624845156.0,32.000000
-25,-9,58,1624845156.0,32.000000
-25,-7,58,1624845156.0,32.000000
-24,-7,59,1624845156.0,32.000000
-25,-8,59,1624845156.0,32.000000
-25,-9,58,1624845156.0,32.000000
-25,-9,57,1624845156.0,32.000000
-25,-9,58,1624845156.0,32.000000
-25,-9,58,1624845156.0,32.000000
-25,-9,58,1624845156.0,32.000000
-25,-9,58,1624845156.0,32.000000
-25,-9,58,1624845156.0,32.000000
-25,-9,58,1624845156.0,32.000000
-24,-8,58,1624845156.0,32.000000
-25,-8,58,1624845156.0,32.000000
-24,-8,58,1624845156.0,32.000000
-25,-8,58,1624845156.0,32.000000
-26,-8,58,1624845156.0,32.000000
-24,-9,59,1624845156.0,32.000000
-25,-8,58,1624845156.0,32.000000
-25,-9,57,1624845156.0,32.000000
-24,-9,58,1624845156.0,32.000000
-25,-9,58,1624845156.0,32.000000
-24,-8,58,1624845156.0,32.000000
-25,-8,58,1624845156.0,32.000000
-24,-8,58,1624845156.0,32.000000
-24,-8,58,1624845156.0,32.000000
-25,-8,58,1624845156.0,32.000000
-24,-8,59,1624845156.0,32.000000
-25,-9,58,1624845156.0,32.000000
-25,-8,58,1624845156.0,32.000000
-24,-8,58,1624845156.0,32.000000
-24,-8,59,1624845156.0,32.000000
-24,-8,58,1624845156.0,32.000000
-24,-8,58,1624845156.0,32.000000
-24,-8,58,1624845156.0,32.000000
-24,-8,59,1624845156.0,32.000000
-24,-9,58,1624845156.0,32.000000
-24,-8,58,1624845156.0,32.000000
-24,-8,58,1624845156.0,32.000000
-24,-8,58,1624845156.0,32.000000
-24,-8,59,1624845156.0,32.000000
-24,-8,58,1624845156.0,32.000000
-24,-8,58,1624845156.0,32.000000
-24,-7,60,1624845156.0,32.000000
-23,-7,59,1624845156.0,32.000000
-25,-7,58,1624845156.0,32.000000
-24,-6,59,1624845156.0,32.000000
-36,-10,62,1624845156.0,32.000000
-29,-9,68,1624845156.0,32.000000
-31,-9,56,1624845156.0,32.000000
-10,-10,54,1624845156.0,32.000000
-10,-11,46,1624845156.0,32.000000
-14,-6,60,1624845156.0,32.000000
-15,-8,68,1624845156.0,32.000000
-8,-6,57,1624845156.0,32.000000
-5,-7,50,1624845156.0,32.000000
-18,-4,67,1624845156.0,32.000000
-35,-11,72,1624845156.0,32.000000
-31,-8,68,1624845156.0,32.000000
-26,-5,63,1624845156.0,32.000000
-24,-5,62,1624845156.0,32.000000
-26,-5,58,1624845156.0,32.000000
-24,-5,54,1624845156.0,32.000000
-22,-4,52,1624845156.0,32.000000
-21,-4,52,1624845156.0,32.000000
-22,-2,53,1624845156.0,32.000000
-10,0,52,1624845156.0,32.000000
-16,2,46,1624845156.0,32.000000
-46,9,53,1624845156.0,32.000000
-49,8,61,1624845156.0,32.000000
-29,3,59,1624845156.0,32.000000
-27,3,61,1624845156.0,32.000000
-33,3,58,1624845156.0,32.000000
-30,2,58,1624845156.0,32.000000
-28,3,57,1624845156.0,32.000000
-29,2,57,1624845156.0,32.000000
-35,-1,53,1624845156.0,32.000000
-35,-2,52,1624845156.0,32.000000
-34,-2,54,1624845156.0,32.000000
-27,-1,57,1624845156.0,32.000000
-30,-1,57,1624845156.0,32.000000
-35,-2,55,1624845156.0,32.000000
-34,-3,55,1624845156.0,32.000000
-32,-4,53,1624845156.0,32.000000
-31,-5,52,1624845156.0,32.000000
-30,-4,54,1624845156.0,32.000000
-30,-3,55,1624845156.0,32.000000
-36,0,56,1624845156.0,32.000000
-40,-1,56,1624845156.0,32.000000
-41,-1,53,1624845156.0,32.000000
-37,-1,50,1624845156.0,32.000000
-38,-2,52,1624845156.0,32.000000
-35,-2,56,1624845156.0,32.000000
-33,-1,57,1624845156.0,32.000000
-34,-1,57,1624845156.0,32.000000
-37,-1,51,1624845156.0,32.000000
-38,1,51,1624845156.0,32.000000
-37,1,52,1624845156.0,32.000000
-35,0,53,1624845156.0,32.000000
-34,2,54,1624845156.0,32.000000
-33,1,54,1624845156.0,32.000000
-38,2,53,1624845156.0,32.000000
-43,3,54,1624845156.0,32.000000
-44,5,53,1624845156.0,32.000000
-48,9,51,1624845156.0,32.000000
-52,11,50,1624845156.0,32.000000
-49,4,42,1624845156.0,32.000000
-49,1,37,1624845156.0,32.000000
-53,1,37,1624845156.0,32.000000
-56,-1,35,1624845156.0,32.000000
-55,-6,37,1624845156.0,32.000000
-49,-7,39,1624845156.0,32.000000
-57,-10,31,1624845156.0,32.000000
-55,-11,36,1624845156.0,32.000000
-44,-15,46,1624845156.0,32.000000
-41,-17,45,1624845156.0,32.000000
-51,-22,40,1624845156.0,32.000000
-49,-18,51,1624845156.0,32.000000
-48,-17,54,1624845156.0,32.000000
-48,-17,50,1624845156.0,32.000000
-26,-15,54,1624845156.0,32.000000
-34,-13,47,1624845156.0,32.000000
-37,-10,46,1624845156.0,32.000000
-28,-8,59,1624845156.0,32.000000
-26,-13,60,1624845156.0,32.000000
-26,-13,49,1624845156.0,32.000000
-9,-5,53,1624845156.0,32.000000
-27,-2,56,1624845156.0,32.000000
-23,-7,51,1624845156.0,32.000000
-21,-6,46,1624845156.0,32.000000
-39,-2,47,1624845156.0,32.000000
-48,-9,46,1624845156.0,32.000000
-42,-16,38,1624845156.0,32.000000
-51,-11,40,1624845156.0,32.000000
-48,-4,51,1624845156.0,32.000000
-28,-1,55,1624845156.0,32.000000
-39,8,48,1624845156.0,32.000000
-39,10,67,1624845156.0,32.000000
-33,2,64,1624845156.0,32.000000
-16,-1,49,1624845156.0,32.000000
-26,-2,56,1624845156.0,32.000000
-38,3,77,1624845156.0,32.000000
-37,0,64,1624845156.0,32.000000
-22,-10,47,1624845156.0,32.000000
-28,-3,64,1624845156.0,32.000000
-36,-3,52,1624845156.0,32.000000
-38,3,57,1624845156.0,32.000000
-44,2,51,1624845156.0,32.000000
-49,2,47,1624845156.0,32.000000
-44,-1,48,1624845156.0,32.000000
-42,0,49,1624845156.0,32.000000
-45,-1,45,1624845156.0,32.000000
-44,-1,46,1624845156.0,32.000000
-46,1,47,1624845156.0,32.000000
-44,-1,45,1624845156.0,32.000000
-45,-1,45,1624845156.0,32.000000
-43,0,48,1624845156.0,32.000000
-42,0,48,1624845156.0,32.000000
-43,-1,47,1624845156.0,32.000000
-42,0,48,1624845156.0,32.000000
-45,1,47,1624845156.0,32.000000
-46,0,45,1624845156.0,32.000000
-44,0,46,1624845156.0,32.000000
-44,0,47,1624845156.0,32.000000
-44,0,47,1624845156.0,32.000000
-42,0,47,1624845156.0,32.000000
-46,1,46,1624845156.0,32.000000
-47,0,44,1624845156.0,32.000000
-44,2,47,1624845156.0,32.000000
-44,1,47,1624845156.0,32.000000
-46,-1,45,1624845156.0,32.000000
-47,-1,44,1624845156.0,32.000000
-49,-1,43,1624845156.0,32.000000
-45,0,45,1624845156.0,32.000000
-45,1,46,1624845156.0,32.000000
-45,3,45,1624845156.0,32.000000
-49,0,42,1624845156.0,32.000000
-48,0,43,1624845156.0,32.000000
-48,0,44,1624845156.0,32.000000
-47,0,43,1624845156.0,32.000000
-48,0,43,1624845156.0,32.000000
-47,1,43,1624845156.0,32.000000
-49,1,43,1624845156.0,32.000000
-50,1,41,1624845156.0,32.000000
-49,0,41,1624845156.0,32.000000
-50,0,42,1624845156.0,32.000000
-50,0,41,1624845156.0,32.000000
-48,1,42,1624845156.0,32.000000
-50,1,42,1624845156.0,32.000000
-50,0,41,1624845156.0,32.000000
-50,1,42,1624845156.0,32.000000
-49,0,41,1624845156.0,32.000000
-51,1,41,1624845156.0,32.000000
-49,1,41,1624845156.0,32.000000
-50,1,42,1624845156.0,32.000000
-50,1,42,1624845156.0,32.000000
-50,0,41,1624845156.0,32.000000
-47,-1,42,1624845156.0,32.000000
-48,0,43,1624845156.0,32.000000
-48,1,42,1624845156.0,32.000000
-44,0,44,1624845156.0,32.000000
-46,1,44,1624845156.0,32.000000
-46,0,44,1624845156.0,32.000000
-46,0,44,1624845156.0,32.000000
-47,1,43,1624845156.0,32.000000
-47,0,44,1624845156.0,32.000000
-48,1,43,1624845156.0,32.000000
-49,1,42,1624845156.0,32.000000
-49,0,42,1624845156.0,32.000000
-49,0,42,1624845156.0,32.000000
-48,1,43,1624845156.0,32.000000
-47,1,43,1624845156.0,32.000000
-48,1,42,1624845156.0,32.000000
-49,1,42,1624845156.0,32.000000
-49,1,41,1624845156.0,32.000000
-50,0,41,1624845156.0,32.000000
-51,0,40,1624845156.0,32.000000
-51,0,40,1624845156.0,32.000000
-51,0,40,1624845156.0,32.000000
-51,0,40,1624845156.0,32.000000
-50,1,41,1624845156.0,32.000000
-50,1,41,1624845156.0,32.000000
-50,1,41,1624845156.0,32.000000
-50,1,40,1624845156.0,32.000000
-50,1,40,1624845156.0,32.000000
-50,1,40,1624845156.0,32.000000
-50,1,40,1624845156.0,32.000000
-50,1,40,1624845156.0,32.000000
-50,1,41,1624845156.0,32.000000
-50,1,40,1624845156.0,32.000000
-50,1,41,1624845156.0,32.000000
-50,0,41,1624845156.0,32.000000
-50,1,41,1624845156.0,32.000000
-50,1,41,1624845156.0,32.000000
-50,1,41,1624845156.0,32.000000
-50,1,41,1624845156.0,32.000000
-50,1,41,1624845156.0,32.000000
-49,1,42,1624845156.0,32.000000
-50,1,42,1624845156.0,32.000000
-50,1,41,1624845156.0,32.000000
-50,1,41,1624845156.0,32.000000
-50,1,41,1624845156.0,32.000000
-50,1,41,1624845156.0,32.000000
-50,1,41,1624845156.0,32.000000
-50,1,41,1624845156.0,32.000000
-50,1,41,1624845156.0,32.000000
-50,1,41,1624845156.0,32.000000
-50,1,41,1624845156.0,32.000000
-50,1,41,1624845156.0,32.000000
-49,1,40,1624845156.0,32.000000
-50,1,41,1624845156.0,32.000000
-50,1,40,1624845156.0,32.000000
-50,1,41,1624845156.0,32.000000
-50,1,41,1624845156.0,32.000000
-50,1,40,1624845156.0,32.000000
-50,1,40,1624845156.0,32.000000
-50,1,41,1624845156.0,32.000000
-50,1,40,1624845156.0,32.000000
-50,1,40,1624845156.0,32.000000
-50,1,40,1624845156.0,32.000000
-50,1,41,1624845156.0,32.000000
-50,1,40,1624845156.0,32.000000
-50,1,40,1624845156.0,32.000000
-50,1,41,1624845156.0,32.000000
-50,1,41,1624845156.0,32.000000
-50,1,41,1624845156.0,32.000000
-50,1,41,1624845156.0,32.000000
-50,1,41,1624845156.0,32.000000
-49,1,42,1624845156.0,32.000000
-51,1,41,1624845156.0,32.000000
-50,0,42,1624845156.0,32.000000
-48,1,43,1624845156.0,32.000000
-51,2,41,1624845156.0,32.000000
-53,2,40,1624845156.0,32.000000
-48,0,41,1624845156.0,32.000000
-47,1,42,1624845156.0,32.000000
-47,-1,44,1624845156.0,32.000000
-47,-1,44,1624845156.0,32.000000
-46,0,44,1624845156.0,32.000000
-47,0,44,1624845156.0,32.000000
-47,1,44,1624845156.0,32.000000
-47,0,44,1624845156.0,32.000000
-48,1,44,1624845156.0,32.000000
-48,0,43,1624845156.0,32.000000
-47,1,44,1624845156.0,32.000000
-46,0,44,1624845156.0,32.000000
-45,1,45,1624845156.0,32.000000
-46,1,44,1624845156.0,32.000000
-46,0,44,1624845156.0,32.000000
-47,0,43,1624845156.0,32.000000
-47,0,43,1624845156.0,32.000000
-47,0,43,1624845156.0,32.000000
-48,0,43,1624845156.0,32.000000
-48,0,43,1624845156.0,32.000000
-48,0,43,1624845156.0,32.000000
-48,1,43,1624845156.0,32.000000
-48,1,43,1624845156.0,32.000000
-49,0,42,1624845156.0,32.000000
-48,1,42,1624845156.0,32.000000
-48,1,43,1624845156.0,32.000000
-49,1,42,1624845156.0,32.000000
-49,0,41,1624845156.0,32.000000
-50,0,41,1624845156.0,32.000000
-49,0,41,1624845156.0,32.000000
-49,1,42,1624845156.0,32.000000
-51,0,41,1624845156.0,32.000000
-50,0,40,1624845156.0,32.000000
-50,1,41,1624845156.0,32.000000
-50,1,41,1624845156.0,32.000000
-50,1,41,1624845156.0,32.000000
-49,1,42,1624845156.0,32.000000
-48,0,42,1624845156.0,32.000000
-50,0,40,1624845156.0,32.000000
-50,0,40,1624845156.0,32.000000
-52,0,38,1624845156.0,32.000000
-52,0,38,1624845156.0,32.000000
-52,1,39,1624845156.0,32.000000
-51,0,39,1624845156.0,32.000000
-50,2,42,1624845156.0,32.000000
-51,1,41,1624845156.0,32.000000
-55,6,40,1624845156.0,32.000000
-63,3,44,1624845156.0,32.000000
-45,2,46,1624845156.0,32.000000
-47,-3,36,1624845156.0,32.000000
-63,-2,39,1624845156.0,32.000000
-56,-1,47,1624845156.0,32.000000
-47,-2,41,1624845156.0,32.000000
-40,-4,45,1624845156.0,32.000000
-32,-5,45,1624845156.0,32.000000
-42,-4,46,1624845156.0,32.000000
-40,-2,45,1624845156.0,32.000000
-44,-4,34,1624845156.0,32.000000
-42,-8,29,1624845156.0,32.000000
-66,0,20,1624845156.0,32.000000
-66,1,9,1624845156.0,32.000000
-71,-7,-10,1624845156.0,32.000000
-74,-11,-7,1624845156.0,32.000000
-65,-6,3,1624845156.0,32.000000
-55,-7,0,1624845156.0,32.000000
-78,0,3,1624845156.0,32.000000
-89,3,4,1624845156.0,32.000000
-49,1,29,1624845156.0,32.000000
-55,-1,22,1624845156.0,32.000000
-73,1,9,1624845156.0,32.000000
-65,-1,16,1624845156.0,32.000000
-68,-2,16,1624845156.0,32.000000
-62,-3,19,1624845156.0,32.000000
-60,-3,20,1624845156.0,32.000000
-55,-4,26,1624845156.0,32.000000
-61,0,26,1624845156.0,32.000000
-59,-1,26,1624845156.0,32.000000
-59,-1,27,1624845156.0,32.000000
-61,-1,24,1624845156.0,32.000000
-60,-1,25,1624845156.0,32.000000
-58,0,27,1624845156.0,32.000000
-57,1,29,1624845156.0,32.000000
-58,1,29,1624845156.0,32.000000
-59,0,27,1624845156.0,32.000000
-59,0,26,1624845156.0,32.000000
-60,0,27,1624845156.0,32.000000
-59,0,27,1624845156.0,32.000000
-59,1,27,1624845156.0,32.000000
-59,0,26,1624845156.0,32.000000
-59,0,26,1624845156.0,32.000000
-59,0,27,1624845156.0,32.000000
-59,0,27,1624845156.0,32.000000
-59,0,27,1624845156.0,32.000000
-58,0,27,1624845156.0,32.000000
-59,0,27,1624845156.0,32.000000
-59,0,27,1624845156.0,32.000000
-59,0,27,1624845156.0,32.000000
-59,0,27,1624845156.0,32.000000
-59,0,27,1624845156.0,32.000000
-59,1,27,1624845156.0,32.000000
-59,0,27,1624845156.0,32.000000
-58,0,27,1624845156.0,32.000000
-58,0,28,1624845156.0,32.000000
-58,0,27,1624845156.0,32.000000
-58,0,27,1624845156.0,32.000000
-58,0,27,1624845156.0,32.000000
-58,1,28,1624845156.0,32.000000
-58,0,28,1624845156.0,32.000000
-58,0,28,1624845156.0,32.000000
-59,0,28,1624845156.0,32.000000
-58,0,27,1624845156.0,32.000000
-59,0,28,1624845156.0,32.000000
-58,0,27,1624845156.0,32.000000
-59,1,27,1624845156.0,32.000000
-59,0,27,1624845156.0,32.000000
-59,0,28,1624845156.0,32.000000
-58,0,27,1624845156.0,32.000000
-59,0,27,1624845156.0,32.000000
-59,0,27,1624845156.0,32.000000
-58,0,27,1624845156.0,32.000000
-58,0,28,1624845156.0,32.000000
-59,0,27,1624845156.0,32.000000
-58,0,27,1624845156.0,32.000000
-58,1,27,1624845156.0,32.000000
-58,0,27,1624845156.0,32.000000
-58,1,27,1624845156.0,32.000000
-59,0,27,1624845156.0,32.000000
-58,0,27,1624845156.0,32.000000
-59,0,27,1624845156.0,32.000000
-59,0,27,1624845156.0,32.000000
-58,1,27,1624845156.0,32.000000
-59,1,27,1624845156.0,32.000000
-59,0,27,1624845156.0,32.000000
-58,0,28,1624845156.0,32.000000
-58,0,27,1624845156.0,32.000000
-59,0,27,1624845156.0,32.000000
-58,0,27,1624845156.0,32.000000
-58,0,27,1624845156.0,32.000000
-59,1,27,1624845156.0,32.000000
-59,0,27,1624845156.0,32.000000
-58,0,27,1624845156.0,32.000000
-58,1,27,1624845156.0,32.000000
-59,0,27,1624845156.0,32.000000
-59,0,27,1624845156.0,32.000000
-58,0,28,1624845156.0,32.000000
-59,1,27,1624845156.0,32.000000
-59,0,27,1624845156.0,32.000000
-58,0,28,1624845156.0,32.000000
-59,0,27,1624845156.0,32.000000
-59,1,27,1624845156.0,32.000000
-58,0,27,1624845156.0,32.000000
-59,0,28,1624845156.0,32.000000
-58,0,27,1624845156.0,32.000000
-58,1,28,1624845156.0,32.000000
-59,0,27,1624845156.0,32.000000
-59,0,27,1624845156.0,32.000000
-58,0,27,1624845156.0,32.000000
-58,0,28,1624845156.0,32.000000
-59,1,27,1624845156.0,32.000000
-58,0,27,1624845156.0,32.000000
-58,0,27,1624845156.0,32.000000
-58,0,27,1624845156.0,32.000000
-59,0,27,1624845156.0,32.000000
-58,1,27,1624845156.0,32.000000
-59,1,28,1624845156.0,32.000000
-59,0,27,1624845156.0,32.000000
-59,0,27,1624845156.0,32.000000
-58,1,28,1624845156.0,32.000000
-58,0,28,1624845156.0,32.000000
-59,0,27,1624845156.0,32.000000
-59,1,27,1624845156.0,32.000000
-58,1,28,1624845156.0,32.000000
-58,0,27,1624845156.0,32.000000
-59,0,27,1624845156.0,32.000000
-59,0,28,1624845156.0,32.000000
-58,1,27,1624845156.0,32.000000
-59,0,27,1624845156.0,32.000000
-58,0,27,1624845156.0,32.000000
-58,0,28,1624845156.0,32.000000
-58,0,27,1624845156.0,32.000000
-59,0,27,1624845156.0,32.000000
-58,0,27,1624845156.0,32.000000
-58,1,28,1624845156.0,32.000000
-58,1,28,1624845156.0,32.000000
-59,1,28,1624845156.0,32.000000
-59,0,28,1624845156.0,32.000000
-58,0,27,1624845156.0,32.000000
-59,0,27,1624845156.0,32.000000
-59,1,27,1624845156.0,32.000000
-59,1,27,1624845156.0,32.000000
-58,1,28,1624845156.0,32.000000
-58,0,27,1624845156.0,32.000000
-59,0,27,1624845156.0,32.000000
-58,0,27,1624845156.0,32.000000
-59,1,27,1624845156.0,32.000000
-59,1,27,1624845156.0,32.000000
-58,0,27,1624845156.0,32.000000
-59,0,27,1624845156.0,32.000000
-59,1,27,1624845156.0,32.000000
-59,0,27,1624845156.0,32.000000
-59,1,27,1624845156.0,32.000000
-59,1,27,1624845156.0,32.000000
-58,1,28,1624845156.0,32.000000
-59,1,27,1624845156.0,32.000000
-59,0,27,1624845156.0,32.000000
-58,0,27,1624845156.0,32.000000
-58,0,28,1624845156.0,32.000000
-58,1,28,1624845156.0,32.000000
-58,1,28,1624845156.0,32.000000
-59,0,27,1624845156.0,32.000000
-58,0,28,1624845156.0,32.000000
-59,0,27,1624845156.0,32.000000
-58,1,27,1624845156.0,32.000000
-58,1,27,1624845156.0,32.000000
-59,1,27,1624845156.0,32.000000
-59,0,27,1624845156.0,32.000000
-58,0,27,1624845156.0,32.000000
-59,0,27,1624845156.0,32.000000
-59,0,27,1624845156.0,32.000000
-59,1,27,1624845156.0,32.000000
-59,0,27,1624845156.0,32.000000
-59,1,27,1624845156.0,32.000000
-59,0,27,1624845156.0,32.000000
-59,0,26,1624845156.0,32.000000
-59,0,27,1624845156.0,32.000000
-59,1,27,1624845156.0,32.000000
-59,1,26,1624845156.0,32.000000
-59,1,26,1624845156.0,32.000000
-59,1,27,1624845156.0,32.000000
-59,1,27,1624845156.0,32.000000
-59,1,27,1624845156.0,32.000000
-59,1,27,1624845156.0,32.000000
-59,1,27,1624845156.0,32.000000
-59,1,27,1624845156.0,32.000000
-59,1,26,1624845156.0,32.000000
-59,0,27,1624845156.0,32.000000
-58,0,27,1624845156.0,32.000000
-59,1,27,1624845156.0,32.000000
-59,1,26,1624845156.0,32.000000
-59,1,26,1624845156.0,32.000000
-59,0,26,1624845156.0,32.000000
-59,0,27,1624845156.0,32.000000
-60,1,26,1624845156.0,32.000000
-60,1,26,1624845156.0,32.000000
-60,1,26,1624845156.0,32.000000
-59,0,26,1624845156.0,32.000000
-59,0,26,1624845156.0,32.000000
-59,1,26,1624845156.0,32.000000
-59,1,26,1624845156.0,32.000000
-59,1,27,1624845156.0,32.000000
-59,0,27,1624845156.0,32.000000
-59,0,27,1624845156.0,32.000000
-58,0,27,1624845156.0,32.000000
-59,0,27,1624845156.0,32.000000
-59,0,27,1624845156.0,32.000000
-58,0,27,1624845156.0,32.000000
-58,1,27,1624845156.0,32.000000
-58,1,28,1624845156.0,32.000000
-59,0,27,1624845156.0,32.000000
-59,0,27,1624845156.0,32.000000
-59,0,27,1624845156.0,32.000000
-58,0,27,1624845156.0,32.000000
-59,1,27,1624845156.0,32.000000
-59,0,27,1624845156.0,32.000000
-59,1,27,1624845156.0,32.000000
-59,1,27,1624845156.0,32.000000
-59,0,27,1624845156.0,32.000000
-58,0,27,1624845156.0,32.000000
-58,0,27,1624845156.0,32.000000
-59,0,27,1624845156.0,32.000000
-59,0,27,1624845156.0,32.000000
-59,0,28,1624845156.0,32.000000
-58,0,27,1624845156.0,32.000000
-58,1,27,1624845156.0,32.000000
-58,1,27,1624845156.0,32.000000
-58,1,27,1624845156.0,32.000000
-58,0,28,1624845156.0,32.000000
-58,0,27,1624845156.0,32.000000
-60,1,26,1624845156.0,32.000000
-59,1,28,1624845156.0,32.000000
-58,0,28,1624845156.0,32.000000
-58,0,27,1624845156.0,32.000000
-59,0,27,1624845156.0,32.000000
-58,0,27,1624845156.0,32.000000
-58,0,28,1624845156.0,32.000000
-58,0,27,1624845156.0,32.000000
-59,0,27,1624845156.0,32.000000
-59,1,27,1624845156.0,32.000000
-59,0,27,1624845156.0,32.000000
-59,0,27,1624845156.0,32.000000
-58,0,28,1624845156.0,32.000000
-58,0,28,1624845156.0,32.000000
-58,0,28,1624845156.0,32.000000
-58,0,28,1624845156.0,32.000000
-58,0,28,1624845156.0,32.000000
-58,0,28,1624845156.0,32.000000
-58,1,28,1624845156.0,32.000000
-58,0,28,1624845156.0,32.000000
-58,0,28,1624845156.0,32.000000
-58,0,28,1624845156.0,32.000000
-58,0,28,1624845156.0,32.000000
-59,0,27,1624845156.0,32.000000
-58,0,28,1624845156.0,32.000000
-58,1,28,1624845156.0,32.000000
-59,1,27,1624845156.0,32.000000
-59,0,27,1624845156.0,32.000000
-58,0,28,1624845156.0,32.000000
-58,0,28,1624845156.0,32.000000
-59,0,27,1624845156.0,32.000000
-58,0,28,1624845156.0,32.000000
-58,0,28,1624845156.0,32.000000
-58,0,28,1624845156.0,32.000000
-59,0,27,1624845156.0,32.000000
-58,0,28,1624845156.0,32.000000
-59,1,28,1624845156.0,32.000000
-58,0,27,1624845156.0,32.000000
-59,1,28,1624845156.0,32.000000
-59,0,28,1624845156.0,32.000000
-58,0,27,1624845156.0,32.000000
-58,0,28,1624845156.0,32.000000
-59,0,28,1624845156.0,32.000000
-58,1,28,1624845156.0,32.000000
-58,1,28,1624845156.0,32.000000
-58,0,27,1624845156.0,32.000000
-58,0,27,1624845156.0,32.000000
-59,0,28,1624845156.0,32.000000
-58,0,27,1624845156.0,32.000000
-58,0,28,1624845156.0,32.000000
-58,0,28,1624845156.0,32.000000
-58,0,27,1624845156.0,32.000000
-58,0,27,1624845156.0,32.000000
-58,0,28,1624845156.0,32.000000
-58,0,28,1624845156.0,32.000000
-58,0,28,1624845156.0,32.000000
-58,0,28,1624845156.0,32.000000
-58,0,28,1624845156.0,32.000000
-58,0,28,1624845156.0,32.000000
-58,1,28,1624845156.0,32.000000
-58,0,28,1624845156.0,32.000000
-58,0,28,1624845156.0,32.000000
-58,0,28,1624845156.0,32.000000
-58,0,28,1624845156.0,32.000000
-58,0,28,1624845156.0,32.000000
-58,0,28,1624845156.0,32.000000
-58,0,28,1624845156.0,32.000000
-58,0,28,1624845156.0,32.000000
-58,0,28,1624845156.0,32.000000
-58,0,28,1624845156.0,32.000000
-58,0,27,1624845156.0,32.000000
-58,1,28,1624845156.0,32.000000
-58,0,28,1624845156.0,32.000000
-58,0,28,1624845156.0,32.000000
-58,0,28,1624845156.0,32.000000
-58,0,28,1624845156.0,32.000000
-59,0,28,1624845156.0,32.000000
-58,0,28,1624845156.0,32.000000
-58,1,28,1624845156.0,32.000000
-58,1,28,1624845156.0,32.000000
-58,0,27,1624845156.0,32.000000
-58,0,28,1624845156.0,32.000000
-58,0,28,1624845156.0,32.000000
-58,0,28,1624845156.0,32.000000
-58,0,28,1624845156.0,32.000000
-58,0,28,1624845156.0,32.000000
-58,0,28,1624845156.0,32.000000
-58,0,28,1624845156.0,32.000000
-59,0,28,1624845156.0,32.000000
-58,0,28,1624845156.0,32.000000
-58,0,28,1624845156.0,32.000000
-58,0,28,1624845156.0,32.000000
-58,0,28,1624845156.0,32.000000
-58,0,28,1624845156.0,32.000000
-58,0,28,1624845156.0,32.000000
-58,0,28,1624845156.0,32.000000
-58,0,28,1624845156.0,32.000000
-58,0,28,1624845156.0,32.000000
-58,1,28,1624845156.0,32.000000
-58,0,28,1624845156.0,32.000000
-58,0,28,1624845156.0,32.000000
-58,0,28,1624845156.0,32.000000
-58,0,28,1624845156.0,32.000000
-58,0,28,1624845156.0,32.000000
-58,1,28,1624845156.0,32.000000
-58,0,28,1624845156.0,32.000000
-58,0,28,1624845156.0,32.000000
-58,0,28,1624845156.0,32.000000
-58,0,28,1624845156.0,32.000000
-58,0,28,1624845156.0,32.000000
-58,0,28,1624845156.0,32.000000
-58,0,28,1624845156.0,32.000000
-58,0,28,1624845156.0,32.000000
-58,0,28,1624845156.0,32.000000
-59,0,28,1624845156.0,32.000000
-58,1,28,1624845156.0,32.000000
-58,0,28,1624845156.0,32.000000
-58,0,28,1624845156.0,32.000000
-58,0,28,1624845156.0,32.000000
-58,0,28,1624845156.0,32.000000
-58,0,28,1624845156.0,32.000000
-58,0,28,1624845156.0,32.000000
-58,1,28,1624845156.0,32.000000
-58,0,28,1624845156.0,32.000000
-58,0,28,1624845156.0,32.000000
-58,0,28,1624845156.0,32.000000
-58,0,28,1624845156.0,32.000000
-58,0,28,1624845156.0,32.000000
-58,0,28,1624845156.0,32.000000
-58,0,28,1624845156.0,32.000000
-58,0,28,1624845156.0,32.000000
-58,0,28,1624845156.0,32.000000
-58,0,28,1624845156.0,32.000000
-58,0,28,1624845156.0,32.000000
-58,0,28,1624845156.0,32.000000
-58,0,28,1624845156.0,32.000000
-58,0,28,1624845156.0,32.000000
-58,0,28,1624845156.0,32.000000
-58,0,28,1624845156.0,32.000000
-58,0,28,1624845156.0,32.000000
-58,0,28,1624845156.0,32.000000
-58,0,28,1624845156.0,32.000000
-58,0,28,1624845156.0,32.000000
-58,0,28,1624845156.0,32.000000
-58,0,28,1624845156.0,32.000000
-58,0,28,1624845156.0,32.000000
-58,0,28,1624845156.0,32.000000
-58,0,28,1624845156.0,32.000000
-58,0,28,1624845156.0,32.000000
-58,0,28,1624845156.0,32.000000
-58,0,28,1624845156.0,32.000000
-58,0,28,1624845156.0,32.000000
-58,0,28,1624845156.0,32.000000
-58,0,28,1624845156.0,32.000000
-58,0,28,1624845156.0,32.000000
-58,0,28,1624845156.0,32.000000
-58,0,28,1624845156.0,32.000000
-58,0,28,1624845156.0,32.000000
-58,1,28,1624845156.0,32.000000
-58,0,28,1624845156.0,32.000000
-58,0,28,1624845156.0,32.000000
-58,1,28,1624845156.0,32.000000
-58,0,28,1624845156.0,32.000000
-58,0,28,1624845156.0,32.000000
-58,0,28,1624845156.0,32.000000
-58,0,28,1624845156.0,32.000000
-58,0,28,1624845156.0,32.000000
-58,0,28,1624845156.0,32.000000
-58,0,28,1624845156.0,32.000000
-58,0,28,1624845156.0,32.000000
-58,0,28,1624845156.0,32.000000
-59,0,28,1624845156.0,32.000000
-58,0,28,1624845156.0,32.000000
-58,0,28,1624845156.0,32.000000
-59,1,28,1624845156.0,32.000000
-58,0,28,1624845156.0,32.000000
-58,0,29,1624845156.0,32.000000
-58,0,28,1624845156.0,32.000000
-58,0,28,1624845156.0,32.000000
-58,0,28,1624845156.0,32.000000
-58,0,28,1624845156.0,32.000000
-58,0,28,1624845156.0,32.000000
-58,1,29,1624845156.0,32.000000
-58,0,28,1624845156.0,32.000000
-58,0,28,1624845156.0,32.000000
-58,0,28,1624845156.0,32.000000
-58,0,28,1624845156.0,32.000000
-58,0,28,1624845156.0,32.000000
-58,0,28,1624845156.0,32.000000
-58,0,28,1624845156.0,32.000000
-58,0,28,1624845156.0,32.000000
-58,0,28,1624845156.0,32.000000
-58,0,28,1624845156.0,32.000000
-59,0,27,1624845156.0,32.000000
-59,0,27,1624845156.0,32.000000
-58,1,29,1624845156.0,32.000000
-57,0,29,1624845156.0,32.000000
-58,0,29,1624845156.0,32.000000
-58,0,28,1624845156.0,32.000000
-58,0,27,1624845156.0,32.000000
-58,1,29,1624845156.0,32.000000
-57,1,30,1624845156.0,32.000000
-55,-1,31,1624845156.0,32.000000
-56,0,31,1624845156.0,32.000000
-60,-1,28,1624845156.0,32.000000
-57,1,31,1624845156.0,32.000000
-56,2,33,1624845156.0,32.000000
-53,-2,32,1624845156.0,32.000000
-62,2,27,1624845156.0,32.000000
-62,-1,24,1624845156.0,32.000000
-57,1,30,1624845156.0,32.000000
-50,3,39,1624845156.0,32.000000
-49,1,39,1624845156.0,32.000000
-52,0,38,1624845156.0,32.000000
-56,0,34,1624845156.0,32.000000
-50,2,40,1624845156.0,32.000000
-51,2,35,1624845156.0,32.000000
-53,2,38,1624845156.0,32.000000
-59,0,31,1624845156.0,32.000000
-57,-1,30,1624845156.0,32.000000
-60,1,30,1624845156.0,32.000000
-59,2,31,1624845156.0,32.000000
-53,3,36,1624845156.0,32.000000
-53,2,35,1624845156.0,32.000000
-58,0,31,1624845156.0,32.000000
-54,1,34,1624845156.0,32.000000
-55,0,33,1624845156.0,32.000000
-56,1,33,1624845156.0,32.000000
-54,4,37,1624845156.0,32.000000
-59,3,36,1624845156.0,32.000000
-50,-3,34,1624845156.0,32.000000
-50,0,38,1624845156.0,32.000000
-61,3,36,1624845156.0,32.000000
-54,3,37,1624845156.0,32.000000
-50,-2,44,1624845156.0,32.000000
-54,0,42,1624845156.0,32.000000
-48,-3,42,1624845156.0,32.000000
-44,-4,44,1624845156.0,32.000000
-35,-8,41,1624845156.0,32.000000
-38,-9,42,1624845156.0,32.000000
-40,-6,54,1624845156.0,32.000000
-38,-3,54,1624845156.0,32.000000
-33,-4,54,1624845156.0,32.000000
-32,-5,56,1624845156.0,32.000000
-32,-6,55,1624845156.0,32.000000
-29,-6,54,1624845156.0,32.000000
-29,-5,56,1624845156.0,32.000000
-21,-3,63,1624845156.0,32.000000
-19,-4,61,1624845156.0,32.000000
-20,-5,60,1624845156.0,32.000000
-22,-5,61,1624845156.0,32.000000
-22,-5,58,1624845156.0,32.000000
-21,-5,59,1624845156.0,32.000000
-18,-4,61,1624845156.0,32.000000
-19,-4,61,1624845156.0,32.000000
-16,-5,62,1624845156.0,32.000000
-16,-5,60,1624845156.0,32.000000
-22,-5,60,1624845156.0,32.000000
-21,-5,60,1624845156.0,32.000000
-21,-6,58,1624845156.0,32.000000
-20,-6,59,1624845156.0,32.000000
-19,-5,61,1624845156.0,32.000000
-17,-4,61,1624845156.0,32.000000
-18,-4,61,1624845156.0,32.000000
-17,-4,61,1624845156.0,32.000000
-18,-4,62,1624845156.0,32.000000
-20,-5,60,1624845156.0,32.000000
-20,-5,60,1624845156.0,32.000000
-20,-4,61,1624845156.0,32.000000
-17,-6,59,1624845156.0,32.000000
-17,-5,60,1624845156.0,32.000000
-19,-5,61,1624845156.0,32.000000
-19,-5,60,1624845156.0,32.000000
-17,-5,61,1624845156.0,32.000000
-17,-4,61,1624845156.0,32.000000
-18,-4,61,1624845156.0,32.000000
-18,-5,59,1624845156.0,32.000000
-18,-5,60,1624845156.0,32.000000
-20,-4,61,1624845156.0,32.000000
-20,-5,61,1624845156.0,32.000000
-18,-4,59,1624845156.0,32.000000
-19,-5,60,1624845156.0,32.000000
-20,-4,60,1624845156.0,32.000000
-20,-5,59,1624845156.0,32.000000
-20,-4,60,1624845156.0,32.000000
-20,-4,60,1624845156.0,32.000000
-20,-4,60,1624845156.0,32.000000
-19,-4,61,1624845156.0,32.000000
-20,-4,60,1624845156.0,32.000000
-21,-4,60,1624845156.0,32.000000
-20,-4,60,1624845156.0,32.000000
-20,-4,61,1624845156.0,32.000000
-20,-4,59,1624845156.0,32.000000
-20,-4,61,1624845156.0,32.000000
-21,-3,60,1624845156.0,32.000000
-20,-3,60,1624845156.0,32.000000
-21,-3,60,1624845156.0,32.000000
-21,-4,60,1624845156.0,32.000000
-21,-4,60,1624845156.0,32.000000
-21,-4,60,1624845156.0,32.000000
-21,-4,60,1624845156.0,32.000000
-21,-3,60,1624845156.0,32.000000
-22,-3,60,1624845156.0,32.000000
-21,-4,60,1624845156.0,32.000000
-22,-4,59,1624845156.0,32.000000
-22,-4,60,1624845156.0,32.000000
-21,-4,60,1624845156.0,32.000000
-22,-4,60,1624845156.0,32.000000
-21,-3,60,1624845156.0,32.000000
-21,-4,59,1624845156.0,32.000000
-20,-4,59,1624845156.0,32.000000
-22,-4,60,1624845156.0,32.000000
-22,-3,59,1624845156.0,32.000000
-24,-4,59,1624845156.0,32.000000
-24,-3,59,1624845156.0,32.000000
-24,-3,59,1624845156.0,32.000000
-23,-3,59,1624845156.0,32.000000
-20,-3,60,1624845156.0,32.000000
-22,-3,60,1624845156.0,32.000000
-21,-3,60,1624845156.0,32.000000
-21,-3,60,1624845156.0,32.000000
-22,-3,59,1624845156.0,32.000000
-22,-3,59,1624845156.0,32.000000
-22,-3,59,1624845156.0,32.000000
-22,-3,59,1624845156.0,32.000000
-22,-2,61,1624845156.0,32.000000
-21,-1,60,1624845156.0,32.000000
-21,-1,60,1624845156.0,32.000000
-24,-2,59,1624845156.0,32.000000
-24,-3,59,1624845156.0,32.000000
-22,-3,59,1624845156.0,32.000000
-22,-2,60,1624845156.0,32.000000
-22,-2,60,1624845156.0,32.000000
-22,-2,60,1624845156.0,32.000000
-24,-3,58,1624845156.0,32.000000
-24,-3,59,1624845156.0,32.000000
-22,-3,60,1624845156.0,32.000000
-21,-2,60,1624845156.0,32.000000
-24,-2,59,1624845156.0,32.000000
-24,-2,59,1624845156.0,32.000000
-23,-2,59,1624845156.0,32.000000
-22,-2,60,1624845156.0,32.000000
-23,-2,60,1624845156.0,32.000000
-23,-3,59,1624845156.0,32.000000
-24,-2,59,1624845156.0,32.000000
-24,-2,59,1624845156.0,32.000000
-24,-3,59,1624845156.0,32.000000
-24,-3,59,1624845156.0,32.000000
-23,-2,59,1624845156.0,32.000000
-23,-1,59,1624845156.0,32.000000
-22,-1,59,1624845156.0,32.000000
-23,-1,60,1624845156.0,32.000000
-24,-2,59,1624845156.0,32.000000
-25,-3,58,1624845156.0,32.000000
-25,-4,58,1624845156.0,32.000000
-24,-2,59,1624845156.0,32.000000
-23,-1,59,1624845156.0,32.000000
-25,-2,58,1624845156.0,32.000000
-26,-2,58,1624845156.0,32.000000
-26,-2,58,1624845156.0,32.000000
-26,-2,58,1624845156.0,32.000000
-26,-1,59,1624845156.0,32.000000
-25,-2,59,1624845156.0,32.000000
-25,-3,58,1624845156.0,32.000000
-26,-3,59,1624845156.0,32.000000
-24,-3,60,1624845156.0,32.000000
-22,-3,59,1624845156.0,32.000000
-20,-3,60,1624845156.0,32.000000
-19,-3,60,1624845156.0,32.000000
-19,-3,60,1624845156.0,32.000000
-19,-4,60,1624845156.0,32.000000
-18,-4,60,1624845156.0,32.000000
-18,-3,61,1624845156.0,32.000000
-18,-3,60,1624845156.0,32.000000
-18,-3,61,1624845156.0,32.000000
-17,-2,62,1624845156.0,32.000000
-17,-4,61,1624845156.0,32.000000
-17,-3,61,1624845156.0,32.000000
-16,-3,61,1624845156.0,32.000000
-17,-3,61,1624845156.0,32.000000
-15,-3,61,1624845156.0,32.000000
-14,-4,61,1624845156.0,32.000000
-17,-4,61,1624845156.0,32.000000
-18,-4,60,1624845156.0,32.000000
-18,-2,61,1624845156.0,32.000000
-17,-2,61,1624845156.0,32.000000
-19,-3,61,1624845156.0,32.000000
-18,-3,61,1624845156.0,32.000000
-17,-4,61,1624845156.0,32.000000
-17,-4,61,1624845156.0,32.000000
-17,-3,61,1624845156.0,32.000000
-17,-3,61,1624845156.0,32.000000
-17,-3,61,1624845156.0,32.000000
-17,-3,61,1624845156.0,32.000000
-18,-3,61,1624845156.0,32.000000
-18,-3,61,1624845156.0,32.000000
-17,-3,61,1624845156.0,32.000000
-17,-3,61,1624845156.0,32.000000
-18,-3,61,1624845156.0,32.000000
-17,-3,61,1624845156.0,32.000000
-16,-3,61,1624845156.0,32.000000
-16,-3,61,1624845156.0,32.000000
-17,-4,61,1624845156.0,32.000000
-16,-4,61,1624845156.0,32.000000
-16,-3,61,1624845156.0,32.000000
-16,-3,62,1624845156.0,32.000000
-16,-3,61,1624845156.0,32.000000
-16,-3,61,1624845156.0,32.000000
-16,-3,61,1624845156.0,32.000000
-16,-3,61,1624845156.0,32.000000
-16,-3,61,1624845156.0,32.000000
-17,-3,61,1624845156.0,32.000000
-17,-3,61,1624845156.0,32.000000
-17,-3,61,1624845156.0,32.000000
-17,-3,61,1624845156.0,32.000000
-18,-3,61,1624845156.0,32.000000
-17,-3,61,1624845156.0,32.000000
-17,-3,61,1624845156.0,32.000000
-17,-3,61,1624845156.0,32.000000
-18,-3,61,1624845156.0,32.000000
-17,-3,61,1624845156.0,32.000000
-17,-3,61,1624845156.0,32.000000
-17,-3,61,1624845156.0,32.000000
-18,-3,61,1624845156.0,32.000000
-17,-3,61,1624845156.0,32.000000
-16,-3,61,1624845156.0,32.000000
-18,-3,61,1624845156.0,32.000000
-18,-3,61,1624845156.0,32.000000
-17,-3,61,1624845156.0,32.000000
-17,-3,61,1624845156.0,32.000000
-18,-3,61,1624845156.0,32.000000
-18,-3,61,1624845156.0,32.000000
-17,-3,61,1624845156.0,32.000000
-17,-3,61,1624845156.0,32.000000
-18,-3,61,1624845156.0,32.000000
-18,-3,61,1624845156.0,32.000000
-17,-3,61,1624845156.0,32.000000
-17,-3,61,1624845156.0,32.000000
-18,-3,61,1624845156.0,32.000000
-18,-3,61,1624845156.0,32.000000
-17,-3,61,1624845156.0,32.000000
-17,-4,61,1624845156.0,32.000000
-18,-3,61,1624845156.0,32.000000
-18,-3,61,1624845156.0,32.000000
-18,-3,61,1624845156.0,32.000000
-17,-3,61,1624845156.0,32.000000
-18,-3,61,1624845156.0,32.000000
-17,-3,61,1624845156.0,32.000000
-17,-3,61,1624845156.0,32.000000
-17,-3,61,1624845156.0,32.000000
-16,-3,61,1624845156.0,32.000000
-17,-3,61,1624845156.0,32.000000
-17,-3,61,1624845156.0,32.000000
-18,-3,61,1624845156.0,32.000000
-20,-3,61,1624845156.0,32.000000
-19,-3,60,1624845156.0,32.000000
-22,-4,61,1624845156.0,32.000000
-15,-3,60,1624845156.0,32.000000
-19,-3,60,1624845156.0,32.000000
-16,-3,63,1624845156.0,32.000000
-19,-3,61,1624845156.0,32.000000
-17,-3,60,1624845156.0,32.000000
-19,-4,61,1624845156.0,32.000000
-22,-4,61,1624845156.0,32.000000
-15,-1,64,1624845156.0,32.000000
-14,-2,61,1624845156.0,32.000000
-19,-4,61,1624845156.0,32.000000
-19,-3,61,1624845156.0,32.000000
-18,-3,61,1624845156.0,32.000000
-18,-4,61,1624845156.0,32.000000
-19,-3,61,1624845156.0,32.000000
-19,-3,60,1624845156.0,32.000000
-17,-3,62,1624845156.0,32.000000
-18,-3,60,1624845156.0,32.000000
-18,-3,61,1624845156.0,32.000000
-18,-3,61,1624845156.0,32.000000
-19,-4,61,1624845156.0,32.000000
-20,-4,60,1624845156.0,32.000000
-19,-3,60,1624845156.0,32.000000
-19,-2,61,1624845156.0,32.000000
-16,-3,61,1624845156.0,32.000000
-18,-3,61,1624845156.0,32.000000
-18,-3,60,1624845156.0,32.000000
-18,-3,61,1624845156.0,32.000000
-18,-3,60,1624845156.0,32.000000
-18,-2,60,1624845156.0,32.000000
-20,-3,62,1624845156.0,32.000000
-19,-3,61,1624845156.0,32.000000
-17,-3,61,1624845156.0,32.000000
-19,-3,61,1624845156.0,32.000000
-19,-3,61,1624845156.0,32.000000
-18,-3,60,1624845156.0,32.000000
-20,-3,60,1624845156.0,32.000000
-20,-3,61,1624845156.0,32.000000
-18,-3,60,1624845156.0,32.000000
-18,-3,61,1624845156.0,32.000000
-19,-3,61,1624845156.0,32.000000
-18,-3,61,1624845156.0,32.000000
-18,-3,61,1624845156.0,32.000000
-19,-3,60,1624845156.0,32.000000
-19,-3,61,1624845156.0,32.000000
-18,-3,61,1624845156.0,32.000000
-19,-3,61,1624845156.0,32.000000
-19,-3,61,1624845156.0,32.000000
-18,-3,61,1624845156.0,32.000000
-18,-3,61,1624845156.0,32.000000
-19,-3,60,1624845156.0,32.000000
-19,-3,61,1624845156.0,32.000000
-19,-3,60,1624845156.0,32.000000
-19,-3,61,1624845156.0,32.000000
-18,-3,61,1624845156.0,32.000000
-18,-3,60,1624845156.0,32.000000
-20,-3,61,1624845156.0,32.000000
-18,-3,61,1624845156.0,32.000000
-18,-3,60,1624845156.0,32.000000
-20,-3,60,1624845156.0,32.000000
-20,-3,61,1624845156.0,32.000000
-18,-3,61,1624845156.0,32.000000
-18,-3,60,1624845156.0,32.000000
-19,-3,61,1624845156.0,32.000000
-19,-3,61,1624845156.0,32.000000
-18,-3,61,1624845156.0,32.000000
-19,-3,61,1624845156.0,32.000000
-19,-3,61,1624845156.0,32.000000
-18,-3,61,1624845156.0,32.000000
-19,-3,61,1624845156.0,32.000000
-19,-3,61,1624845156.0,32.000000
-18,-3,61,1624845156.0,32.000000
-18,-3,60,1624845156.0,32.000000
-20,-3,61,1624845156.0,32.000000
-20,-3,61,1624845156.0,32.000000
-19,-3,61,1624845156.0,32.000000
-18,-3,60,1624845156.0,32.000000
-19,-3,60,1624845156.0,32.000000
-19,-3,61,1624845156.0,32.000000
-19,-3,62,1624845156.0,32.000000
-17,-3,60,1624845156.0,32.000000
-18,-3,60,1624845156.0,32.000000
-19,-3,61,1624845156.0,32.000000
-19,-3,61,1624845156.0,32.000000
-18,-3,60,1624845156.0,32.000000
-17,-3,60,1624845156.0,32.000000
-18,-3,61,1624845156.0,32.000000
-19,-3,61,1624845156.0,32.000000
-19,-3,61,1624845156.0,32.000000
-19,-3,60,1624845156.0,32.000000
-19,-3,60,1624845156.0,32.000000
-19,-3,60,1624845156.0,32.000000
-19,-3,61,1624845156.0,32.000000
-18,-3,61,1624845156.0,32.000000
-18,-3,61,1624845156.0,32.000000
-19,-3,60,1624845156.0,32.000000
-20,-3,61,1624845156.0,32.000000
-19,-3,60,1624845156.0,32.000000
-18,-3,60,1624845156.0,32.000000
-19,-3,61,1624845156.0,32.000000
-19,-3,62,1624845156.0,32.000000
-18,-3,60,1624845156.0,32.000000
-18,-3,60,1624845156.0,32.000000
-18,-3,60,1624845156.0,32.000000
-19,-3,60,1624845156.0,32.000000
-19,-3,61,1624845156.0,32.000000
-20,-3,61,1624845156.0,32.000000
-18,-3,60,1624845156.0,32.000000
-18,-3,60,1624845156.0,32.000000
-19,-3,61,1624845156.0,32.000000
-20,-3,61,1624845156.0,32.000000
-19,-3,60,1624845156.0,32.000000
-18,-3,60,1624845156.0,32.000000
-20,-3,60,1624845156.0,32.000000
-20,-3,61,1624845156.0,32.000000
-19,-2,61,1624845156.0,32.000000
-20,-2,61,1624845156.0,32.000000
-19,-2,60,1624845156.0,32.000000
-19,-3,61,1624845156.0,32.000000
-19,-3,60,1624845156.0,32.000000
-20,-3,60,1624845156.0,32.000000
-19,-3,61,1624845156.0,32.000000
-19,-3,60,1624845156.0,32.000000
-20,-3,61,1624845156.0,32.000000
-20,-3,60,1624845156.0,32.000000
-19,-3,60,1624845156.0,32.000000
-19,-3,60,1624845156.0,32.000000
-19,-3,61,1624845156.0,32.000000
-20,-3,60,1624845156.0,32.000000
-20,-3,60,1624845156.0,32.000000
-19,-3,61,1624845156.0,32.000000
-19,-2,60,1624845156.0,32.000000
-19,-3,61,1624845156.0,32.000000
-20,-3,60,1624845156.0,32.000000
-20,-3,60,1624845156.0,32.000000
-20,-3,60,1624845156.0,32.000000
-19,-3,60,1624845156.0,32.000000
-19,-3,61,1624845156.0,32.000000
-20,-3,60,1624845156.0,32.000000
-19,-3,60,1624845156.0,32.000000
-19,-3,61,1624845156.0,32.000000
-19,-3,60,1624845156.0,32.000000
-20,-3,60,1624845156.0,32.000000
-20,-3,61,1624845156.0,32.000000
-19,-3,61,1624845156.0,32.000000
-19,-3,60,1624845156.0,32.000000
-19,-3,61,1624845156.0,32.000000
-19,-3,60,1624845156.0,32.000000
-19,-3,60,1624845156.0,32.000000
-20,-3,60,1624845156.0,32.000000
-20,-3,60,1624845156.0,32.000000
-20,-3,62,1624845156.0,32.000000
-20,-2,60,1624845156.0,32.000000
-20,-3,60,1624845156.0,32.000000
-20,-3,60,1624845156.0,32.000000
-20,-3,61,1624845156.0,32.000000
-19,-3,62,1624845156.0,32.000000
-19,-3,60,1624845156.0,32.000000
-20,-3,60,1624845156.0,32.000000
-20,-3,61,1624845156.0,32.000000
-20,-3,61,1624845156.0,32.000000
-19,-3,59,1624845156.0,32.000000
-18,-3,60,1624845156.0,32.000000
-20,-4,60,1624845156.0,32.000000
-20,-4,60,1624845156.0,32.000000
-19,-3,60,1624845156.0,32.000000
-19,-3,60,1624845156.0,32.000000
-20,-3,60,1624845156.0,32.000000
-20,-4,61,1624845156.0,32.000000
-19,-3,60,1624845156.0,32.000000
-19,-3,61,1624845156.0,32.000000
-19,-3,60,1624845156.0,32.000000
-19,-3,60,1624845156.0,32.000000
-19,-3,61,1624845156.0,32.000000
-19,-4,61,1624845156.0,32.000000
-19,-4,60,1624845156.0,32.000000
-18,-4,60,1624845156.0,32.000000
-18,-4,61,1624845156.0,32.000000
-19,-3,61,1624845156.0,32.000000
-19,-3,60,1624845156.0,32.000000
-19,-3,60,1624845156.0,32.000000
-19,-3,60,1624845156.0,32.000000
-19,-4,60,1624845156.0,32.000000
-18,-4,61,1624845156.0,32.000000
-19,-3,61,1624845156.0,32.000000
-20,-3,61,1624845156.0,32.000000
-18,-3,61,1624845156.0,32.000000
-18,-3,61,1624845156.0,32.000000
-19,-4,60,1624845156.0,32.000000
-19,-3,60,1624845156.0,32.000000
-18,-3,60,1624845156.0,32.000000
-18,-3,60,1624845156.0,32.000000
-19,-4,61,1624845156.0,32.000000
-19,-4,61,1624845156.0,32.000000
-19,-3,61,1624845156.0,32.000000
-18,-3,60,1624845156.0,32.000000
-18,-3,61,1624845156.0,32.000000
-19,-3,60,1624845156.0,32.000000
-19,-3,60,1624845156.0,32.000000
-19,-3,60,1624845156.0,32.000000
-19,-3,61,1624845156.0,32.000000
-19,-4,61,1624845156.0,32.000000
-20,-3,61,1624845156.0,32.000000
-19,-4,61,1624845156.0,32.000000
-19,-4,60,1624845156.0,32.000000
-19,-4,61,1624845156.0,32.000000
-19,-4,61,1624845156.0,32.000000
-19,-4,61,1624845156.0,32.000000
-19,-3,61,1624845156.0,32.000000
-19,-3,61,1624845156.0,32.000000
-19,-3,61,1624845156.0,32.000000
-19,-4,60,1624845156.0,32.000000
-19,-4,60,1624845156.0,32.000000
-19,-3,61,1624845156.0,32.000000
-19,-3,60,1624845156.0,32.000000
-19,-3,60,1624845156.0,32.000000
-19,-3,60,1624845156.0,32.000000
-19,-4,61,1624845156.0,32.000000
-19,-4,60,1624845156.0,32.000000
-19,-4,61,1624845156.0,32.000000
-19,-3,60,1624845156.0,32.000000
-19,-3,61,1624845156.0,32.000000
-19,-4,60,1624845156.0,32.000000
-19,-3,60,1624845156.0,32.000000
-19,-4,60,1624845156.0,32.000000
-19,-4,61,1624845156.0,32.000000
-19,-3,61,1624845156.0,32.000000
-19,-4,60,1624845156.0,32.000000
-20,-3,61,1624845156.0,32.000000
-20,-3,61,1624845156.0,32.000000
-19,-4,60,1624845156.0,32.000000
-19,-4,61,1624845156.0,32.000000
-19,-3,60,1624845156.0,32.000000
-19,-3,60,1624845156.0,32.000000
-19,-4,61,1624845156.0,32.000000
-18,-4,60,1624845156.0,32.000000
-19,-4,61,1624845156.0,32.000000
-20,-3,60,1624845156.0,32.000000
-19,-4,60,1624845156.0,32.000000
-19,-4,61,1624845156.0,32.000000
-19,-3,61,1624845156.0,32.000000
-19,-4,60,1624845156.0,32.000000
-19,-4,61,1624845156.0,32.000000
-19,-3,61,1624845156.0,32.000000
-19,-3,60,1624845156.0,32.000000
-19,-4,61,1624845156.0,32.000000
-19,-3,61,1624845156.0,32.000000
-19,-3,60,1624845156.0,32.000000
-19,-3,61,1624845156.0,32.000000
-19,-3,60,1624845156.0,32.000000
-19,-4,61,1624845156.0,32.000000
-19,-4,61,1624845156.0,32.000000
-18,-3,61,1624845156.0,32.000000
-19,-4,61,1624845156.0,32.000000
-19,-4,61,1624845156.0,32.000000
-18,-4,60,1624845156.0,32.000000
-19,-3,61,1624845156.0,32.000000
-19,-3,60,1624845156.0,32.000000
-19,-3,60,1624845156.0,32.000000
-19,-4,61,1624845156.0,32.000000
-19,-3,61,1624845156.0,32.000000
-18,-4,60,1624845156.0,32.000000
-19,-4,61,1624845156.0,32.000000
-19,-4,60,1624845156.0,32.000000
-19,-3,61,1624845156.0,32.000000
-18,-3,61,1624845156.0,32.000000
-19,-3,61,1624845156.0,32.000000
-20,-4,60,1624845156.0,32.000000
-19,-4,61,1624845156.0,32.000000
-19,-3,61,1624845156.0,32.000000
-19,-3,60,1624845156.0,32.000000
-19,-3,61,1624845156.0,32.000000
-19,-3,61,1624845156.0,32.000000
-18,-3,61,1624845156.0,32.000000
-18,-4,61,1624845156.0,32.000000
-18,-4,61,1624845156.0,32.000000
-19,-4,60,1624845156.0,32.000000
-19,-3,61,1624845156.0,32.000000
-19,-3,60,1624845156.0,32.000000
-19,-3,60,1624845156.0,32.000000
-19,-4,61,1624845156.0,32.000000
-19,-3,61,1624845156.0,32.000000
-19,-3,60,1624845156.0,32.000000
-19,-3,61,1624845156.0,32.000000
-19,-4,61,1624845156.0,32.000000
-19,-4,60,1624845156.0,32.000000
-19,-3,61,1624845156.0,32.000000
-20,-4,61,1624845156.0,32.000000
-19,-4,60,1624845156.0,32.000000
-18,-4,60,1624845156.0,32.000000
-19,-4,61,1624845156.0,32.000000
-20,-4,61,1624845156.0,32.000000
-19,-3,60,1624845156.0,32.000000
-18,-3,61,1624845156.0,32.000000
-18,-3,61,1624845156.0,32.000000
-19,-4,61,1624845156.0,32.000000
-20,-4,61,1624845156.0,32.000000
-19,-4,60,1624845156.0,32.000000
-18,-3,61,1624845156.0,32.000000
-19,-3,61,1624845156.0,32.000000
-19,-3,60,1624845156.0,32.000000
-19,-4,61,1624845156.0,32.000000
-19,-4,61,1624845156.0,32.000000
-19,-4,60,1624845156.0,32.000000
-19,-4,60,1624845156.0,32.000000
-19,-4,61,1624845156.0,32.000000
-18,-4,60,1624845156.0,32.000000
-19,-4,62,1624845156.0,32.000000
-18,-3,62,1624845156.0,32.000000
-21,-3,60,1624845156.0,32.000000
-20,-3,60,1624845156.0,32.000000
-17,-4,61,1624845156.0,32.000000
-18,-4,61,1624845156.0,32.000000
-19,-4,61,1624845156.0,32.000000
-20,-4,61,1624845156.0,32.000000
-20,-3,60,1624845156.0,32.000000
-19,-4,60,1624845156.0,32.000000
-20,-4,60,1624845156.0,32.000000
-21,-4,60,1624845156.0,32.000000
-21,-4,60,1624845156.0,32.000000
-21,-3,60,1624845156.0,32.000000
-20,-3,60,1624845156.0,32.000000
-21,-3,60,1624845156.0,32.000000
-21,-4,59,1624845156.0,32.000000
-20,-4,60,1624845156.0,32.000000
-20,-4,60,1624845156.0,32.000000
-20,-4,60,1624845156.0,32.000000
-22,-4,59,1624845156.0,32.000000
-20,-4,59,1624845156.0,32.000000
-20,-3,61,1624845156.0,32.000000
-20,-3,61,1624845156.0,32.000000
-20,-3,60,1624845156.0,32.000000
-21,-3,60,1624845156.0,32.000000
-21,-3,60,1624845156.0,32.000000
-20,-3,60,1624845156.0,32.000000
-20,-4,60,1624845156.0,32.000000
-20,-4,61,1624845156.0,32.000000
-19,-4,61,1624845156.0,32.000000
-18,-4,61,1624845156.0,32.000000
-19,-4,61,1624845156.0,32.000000
-20,-4,60,1624845156.0,32.000000
-19,-3,61,1624845156.0,32.000000
-19,-4,60,1624845156.0,32.000000
-20,-4,61,1624845156.0,32.000000
-19,-4,60,1624845156.0,32.000000
-19,-4,60,1624845156.0,32.000000
-19,-3,61,1624845156.0,32.000000
-19,-3,60,1624845156.0,32.000000
-19,-4,61,1624845156.0,32.000000
-19,-4,61,1624845156.0,32.000000
-19,-4,61,1624845156.0,32.000000
-19,-4,60,1624845156.0,32.000000
-20,-4,60,1624845156.0,32.000000
-20,-3,60,1624845156.0,32.000000
-20,-4,60,1624845156.0,32.000000
-20,-4,60,1624845156.0,32.000000
-21,-4,60,1624845156.0,32.000000
-20,-4,60,1624845156.0,32.000000
-20,-4,61,1624845156.0,32.000000
-20,-3,60,1624845156.0,32.000000
-21,-3,60,1624845156.0,32.000000
-20,-3,60,1624845156.0,32.000000
-20,-3,61,1624845156.0,32.000000
-20,-4,61,1624845156.0,32.000000
-20,-5,60,1624845156.0,32.000000
-19,-4,61,1624845156.0,32.000000
-21,-3,61,1624845156.0,32.000000
-21,-4,60,1624845156.0,32.000000
-22,-3,60,1624845156.0,32.000000
-20,-3,59,1624845156.0,32.000000
-19,-4,60,1624845156.0,32.000000
-19,-4,61,1624845156.0,32.000000
-19,-4,60,1624845156.0,32.000000
-20,-3,60,1624845156.0,32.000000
-20,-3,60,1624845156.0,32.000000
-20,-3,60,1624845156.0,32.000000
-20,-3,60,1624845156.0,32.000000
-19,-4,60,1624845156.0,32.000000
-19,-4,60,1624845156.0,32.000000
-20,-3,60,1624845156.0,32.000000
-20,-3,60,1624845156.0,32.000000
-21,-3,60,1624845156.0,32.000000
-21,-4,61,1624845156.0,32.000000
-21,-4,61,1624845156.0,32.000000
-19,-4,60,1624845156.0,32.000000
-19,-4,61,1624845156.0,32.000000
-20,-4,60,1624845156.0,32.000000
-19,-4,60,1624845156.0,32.000000
-19,-4,60,1624845156.0,32.000000
-20,-4,60,1624845156.0,32.000000
-22,-3,60,1624845156.0,32.000000
-22,-3,60,1624845156.0,32.000000
-21,-3,60,1624845156.0,32.000000
-20,-3,60,1624845156.0,32.000000
-20,-3,60,1624845156.0,32.000000
-20,-3,60,1624845156.0,32.000000
-20,-4,60,1624845156.0,32.000000
-19,-4,60,1624845156.0,32.000000
-20,-4,60,1624845156.0,32.000000
-20,-3,60,1624845156.0,32.000000
-20,-3,60,1624845156.0,32.000000
-20,-3,60,1624845156.0,32.000000
-19,-4,61,1624845156.0,32.000000
-19,-4,61,1624845156.0,32.000000
-19,-4,60,1624845156.0,32.000000
-19,-3,60,1624845156.0,32.000000
-19,-3,61,1624845156.0,32.000000
-19,-4,61,1624845156.0,32.000000
-19,-4,61,1624845156.0,32.000000
-20,-3,60,1624845156.0,32.000000
-19,-3,60,1624845156.0,32.000000
-19,-3,60,1624845156.0,32.000000
-19,-3,60,1624845156.0,32.000000
-19,-4,61,1624845156.0,32.000000
-19,-4,61,1624845156.0,32.000000
-19,-4,61,1624845156.0,32.000000
-20,-4,61,1624845156.0,32.000000
-19,-3,61,1624845156.0,32.000000
-19,-3,61,1624845156.0,32.000000
-19,-3,61,1624845156.0,32.000000
-19,-4,60,1624845156.0,32.000000
-18,-4,61,1624845156.0,32.000000
-18,-4,60,1624845156.0,32.000000
-19,-3,61,1624845156.0,32.000000
-19,-4,61,1624845156.0,32.000000
-18,-3,61,1624845156.0,32.000000
-19,-3,61,1624845156.0,32.000000
-19,-3,60,1624845156.0,32.000000
-19,-4,60,1624845156.0,32.000000
-18,-4,60,1624845156.0,32.000000
-18,-4,61,1624845156.0,32.000000
-18,-4,60,1624845156.0,32.000000
-29,-3,60,1624845156.0,32.000000
-16,-3,63,1624845156.0,32.000000
-18,-3,62,1624845156.0,32.000000
-19,-4,61,1624845156.0,32.000000
-18,-3,60,1624845156.0,32.000000
-20,-4,61,1624845156.0,32.000000
-19,-3,60,1624845156.0,32.000000
-18,-3,61,1624845156.0,32.000000
-20,-4,60,1624845156.0,32.000000
-19,-4,61,1624845156.0,32.000000
-19,-3,60,1624845156.0,32.000000
-19,-3,61,1624845156.0,32.000000
-19,-4,60,1624845156.0,32.000000
-21,-4,60,1624845156.0,32.000000
-19,-3,60,1624845156.0,32.000000
-19,-3,61,1624845156.0,32.000000
-20,-4,60,1624845156.0,32.000000
-19,-4,60,1624845156.0,32.000000
-19,-4,61,1624845156.0,32.000000
-19,-4,61,1624845156.0,32.000000
-20,-4,59,1624845156.0,32.000000
-20,-4,60,1624845156.0,32.000000
-19,-4,61,1624845156.0,32.000000
-19,-4,60,1624845156.0,32.000000
-18,-3,61,1624845156.0,32.000000
-21,-4,59,1624845156.0,32.000000
-22,-4,60,1624845156.0,32.000000
-19,-4,60,1624845156.0,32.000000
-18,-4,61,1624845156.0,32.000000
-21,-4,60,1624845156.0,32.000000
-20,-4,60,1624845156.0,32.000000
-19,-4,61,1624845156.0,32.000000
-19,-4,60,1624845156.0,32.000000
-19,-4,60,1624845156.0,32.000000
-19,-4,61,1624845156.0,32.000000
-19,-3,60,1624845156.0,32.000000
-20,-3,60,1624845156.0,32.000000
-20,-4,60,1624845156.0,32.000000
-20,-4,60,1624845156.0,32.000000
-19,-4,61,1624845156.0,32.000000
-19,-4,60,1624845156.0,32.000000
-20,-3,61,1624845156.0,32.000000
-20,-4,60,1624845156.0,32.000000
-19,-4,60,1624845156.0,32.000000
-19,-4,60,1624845156.0,32.000000
-19,-4,61,1624845156.0,32.000000
-19,-4,60,1624845156.0,32.000000
-19,-4,60,1624845156.0,32.000000
-19,-4,61,1624845156.0,32.000000
-20,-4,60,1624845156.0,32.000000
-20,-4,60,1624845156.0,32.000000
-19,-4,60,1624845156.0,32.000000
-19,-3,61,1624845156.0,32.000000
-19,-4,61,1624845156.0,32.000000
-19,-4,61,1624845156.0,32.000000
-20,-4,61,1624845156.0,32.000000
-19,-4,60,1624845156.0,32.000000
-18,-4,60,1624845156.0,32.000000
-19,-4,60,1624845156.0,32.000000
-19,-4,61,1624845156.0,32.000000
-19,-4,60,1624845156.0,32.000000
-19,-4,60,1624845156.0,32.000000
-19,-4,61,1624845156.0,32.000000
-19,-4,61,1624845156.0,32.000000
-19,-3,62,1624845156.0,32.000000
-19,-3,60,1624845156.0,32.000000
-19,-4,61,1624845156.0,32.000000
-19,-4,61,1624845156.0,32.000000
-19,-4,60,1624845156.0,32.000000
-19,-4,61,1624845156.0,32.000000
-19,-4,61,1624845156.0,32.000000
-19,-4,60,1624845156.0,32.000000
-18,-4,61,1624845156.0,32.000000
-19,-4,60,1624845156.0,32.000000
-20,-4,61,1624845156.0,32.000000
-19,-4,61,1624845156.0,32.000000
-19,-4,60,1624845156.0,32.000000
-19,-4,61,1624845156.0,32.000000
-19,-4,61,1624845156.0,32.000000
-19,-4,60,1624845156.0,32.000000
-18,-4,61,1624845156.0,32.000000
-19,-4,61,1624845156.0,32.000000
-19,-4,60,1624845156.0,32.000000
-19,-4,61,1624845156.0,32.000000
-18,-4,60,1624845156.0,32.000000
-18,-4,60,1624845156.0,32.000000
-19,-4,61,1624845156.0,32.000000
-19,-4,61,1624845156.0,32.000000
-18,-4,60,1624845156.0,32.000000
-18,-4,61,1624845156.0,32.000000
-18,-4,60,1624845156.0,32.000000
-19,-4,61,1624845156.0,32.000000
-19,-4,61,1624845156.0,32.000000
-19,-4,60,1624845156.0,32.000000
-18,-4,61,1624845156.0,32.000000
-19,-4,60,1624845156.0,32.000000
-19,-4,61,1624845156.0,32.000000
-18,-4,61,1624845156.0,32.000000
-18,-4,61,1624845156.0,32.000000
-19,-4,60,1624845156.0,32.000000
-19,-4,60,1624845156.0,32.000000
-19,-4,60,1624845156.0,32.000000
-18,-4,61,1624845156.0,32.000000
-19,-4,61,1624845156.0,32.000000
-19,-4,61,1624845156.0,32.000000
-19,-4,60,1624845156.0,32.000000
-19,-4,61,1624845156.0,32.000000
-18,-4,61,1624845156.0,32.000000
-19,-4,61,1624845156.0,32.000000
-19,-4,61,1624845156.0,32.000000
-18,-4,61,1624845156.0,32.000000
-19,-4,61,1624845156.0,32.000000
-18,-4,60,1624845156.0,32.000000
-18,-3,61,1624845156.0,32.000000
-18,-4,61,1624845156.0,32.000000
-19,-4,61,1624845156.0,32.000000
-18,-4,61,1624845156.0,32.000000
-19,-4,61,1624845156.0,32.000000
-19,-4,60,1624845156.0,32.000000
-18,-4,59,1624845156.0,32.000000
-20,-4,61,1624845156.0,32.000000
-19,-4,60,1624845156.0,32.000000
-19,-4,62,1624845156.0,32.000000
-18,-4,61,1624845156.0,32.000000
-18,-3,61,1624845156.0,32.000000
-18,-4,61,1624845156.0,32.000000
-19,-4,61,1624845156.0,32.000000
-18,-4,61,1624845156.0,32.000000
-19,-4,61,1624845156.0,32.000000
-18,-4,60,1624845156.0,32.000000
-19,-4,61,1624845156.0,32.000000
-18,-4,61,1624845156.0,32.000000
-19,-4,61,1624845156.0,32.000000
-19,-4,61,1624845156.0,32.000000
-19,-4,61,1624845156.0,32.000000
-19,-4,60,1624845156.0,32.000000
-19,-4,61,1624845156.0,32.000000
-19,-4,60,1624845156.0,32.000000
-19,-4,60,1624845156.0,32.000000
-19,-4,61,1624845156.0,32.000000
-19,-4,61,1624845156.0,32.000000
-19,-4,61,1624845156.0,32.000000
-19,-4,60,1624845156.0,32.000000
-19,-4,60,1624845156.0,32.000000
-20,-4,61,1624845156.0,32.000000
-19,-4,60,1624845156.0,32.000000
-19,-3,61,1624845156.0,32.000000
-19,-4,60,1624845156.0,32.000000
-19,-4,60,1624845156.0,32.000000
-19,-4,61,1624845156.0,32.000000
-19,-4,61,1624845156.0,32.000000
-19,-4,60,1624845156.0,32.000000
-19,-4,61,1624845156.0,32.000000
-19,-4,60,1624845156.0,32.000000
-19,-4,61,1624845156.0,32.000000
-20,-4,60,1624845156.0,32.000000
-19,-4,60,1624845156.0,32.000000
-19,-4,60,1624845156.0,32.000000
-19,-4,61,1624845156.0,32.000000
-19,-4,60,1624845156.0,32.000000
-19,-4,60,1624845156.0,32.000000
-18,-4,60,1624845156.0,32.000000
-19,-4,61,1624845156.0,32.000000
-20,-4,60,1624845156.0,32.000000
-19,-4,60,1624845156.0,32.000000
-19,-4,61,1624845156.0,32.000000
-19,-3,61,1624845156.0,32.000000
-20,-3,60,1624845156.0,32.000000
-20,-3,60,1624845156.0,32.000000
-19,-4,60,1624845156.0,32.000000
-19,-4,61,1624845156.0,32.000000
-19,-4,60,1624845156.0,32.000000
-19,-4,61,1624845156.0,32.000000
-19,-4,60,1624845156.0,32.000000
-19,-4,60,1624845156.0,32.000000
-19,-4,61,1624845156.0,32.000000
-19,-4,61,1624845156.0,32.000000
-19,-4,60,1624845156.0,32.000000
-19,-3,60,1624845156.0,32.000000
-19,-4,61,1624845156.0,32.000000
-18,-4,61,1624845156.0,32.000000
-16,-3,61,1624845156.0,32.000000
-20,-4,62,1624845156.0,32.000000
-19,-4,60,1624845156.0,32.000000
-19,-4,61,1624845156.0,32.000000
-17,-4,60,1624845156.0,32.000000
-18,-4,60,1624845156.0,32.000000
-20,-4,60,1624845156.0,32.000000
-19,-4,60,1624845156.0,32.000000
-18,-4,61,1624845156.0,32.000000
-19,-4,61,1624845156.0,32.000000
-19,-4,60,1624845156.0,32.000000
-19,-4,61,1624845156.0,32.000000
-18,-4,60,1624845156.0,32.000000
-19,-4,60,1624845156.0,32.000000
-19,-4,60,1624845156.0,32.000000
-18,-4,61,1624845156.0,32.000000
-18,-4,61,1624845156.0,32.000000
-19,-3,60,1624845156.0,32.000000
-19,-4,61,1624845156.0,32.000000
-19,-4,60,1624845156.0,32.000000
-19,-4,61,1624845156.0,32.000000
-19,-4,61,1624845156.0,32.000000
-19,-4,61,1624845156.0,32.000000
-19,-4,61,1624845156.0,32.000000
-19,-4,61,1624845156.0,32.000000
-19,-4,60,1624845156.0,32.000000
-19,-4,61,1624845156.0,32.000000
-19,-4,60,1624845156.0,32.000000
-19,-4,60,1624845156.0,32.000000
-19,-4,61,1624845156.0,32.000000
-19,-4,61,1624845156.0,32.000000
-19,-4,61,1624845156.0,32.000000
-19,-4,60,1624845156.0,32.000000
-19,-4,61,1624845156.0,32.000000
-18,-4,60,1624845156.0,32.000000
-19,-4,61,1624845156.0,32.000000
-19,-4,61,1624845156.0,32.000000
-20,-4,60,1624845156.0,32.000000
-19,-3,60,1624845156.0,32.000000
-18,-4,61,1624845156.0,32.000000
-19,-4,61,1624845156.0,32.000000
-20,-4,60,1624845156.0,32.000000
-20,-4,60,1624845156.0,32.000000
-20,-4,61,1624845156.0,32.000000
-20,-3,61,1624845156.0,32.000000
-20,-3,60,1624845156.0,32.000000
-20,-3,60,1624845156.0,32.000000
-19,-3,60,1624845156.0,32.000000
-18,-4,59,1624845156.0,32.000000
-20,-5,61,1624845156.0,32.000000
-20,-5,60,1624845156.0,32.000000
-19,-5,61,1624845156.0,32.000000
-19,-3,61,1624845156.0,32.000000
-20,-3,60,1624845156.0,32.000000
-21,-3,60,1624845156.0,32.000000
-20,-4,59,1624845156.0,32.000000
-18,-5,61,1624845156.0,32.000000
-18,-5,61,1624845156.0,32.000000
-20,-3,60,1624845156.0,32.000000
-21,-3,60,1624845156.0,32.000000
-20,-4,60,1624845156.0,32.000000
-20,-4,60,1624845156.0,32.000000
-19,-4,61,1624845156.0,32.000000
-18,-4,60,1624845156.0,32.000000
-20,-4,60,1624845156.0,32.000000
-20,-3,61,1624845156.0,32.000000
-21,-4,59,1624845156.0,32.000000
-20,-3,60,1624845156.0,32.000000
-20,-4,61,1624845156.0,32.000000
-19,-4,61,1624845156.0,32.000000
-20,-4,61,1624845156.0,32.000000
-20,-4,60,1624845156.0,32.000000
-20,-3,60,1624845156.0,32.000000
-20,-3,60,1624845156.0,32.000000
-20,-4,60,1624845156.0,32.000000
-21,-4,60,1624845156.0,32.000000
-21,-4,59,1624845156.0,32.000000
-20,-3,61,1624845156.0,32.000000
-20,-4,60,1624845156.0,32.000000
-21,-4,60,1624845156.0,32.000000
-20,-4,60,1624845156.0,32.000000
-19,-3,60,1624845156.0,32.000000
-20,-3,60,1624845156.0,32.000000
-21,-4,60,1624845156.0,32.000000
-20,-3,60,1624845156.0,32.000000
-20,-4,61,1624845156.0,32.000000
-20,-4,61,1624845156.0,32.000000
-20,-4,60,1624845156.0,32.000000
-20,-4,60,1624845156.0,32.000000
-19,-4,60,1624845156.0,32.000000
-19,-4,60,1624845156.0,32.000000
-19,-4,60,1624845156.0,32.000000
-20,-4,60,1624845156.0,32.000000
-20,-4,60,1624845156.0,32.000000
-19,-4,61,1624845156.0,32.000000
-20,-3,60,1624845156.0,32.000000
-20,-4,60,1624845156.0,32.000000
-20,-4,60,1624845156.0,32.000000
-20,-4,60,1624845156.0,32.000000
-19,-4,61,1624845156.0,32.000000
-19,-4,60,1624845156.0,32.000000
-19,-4,60,1624845156.0,32.000000
-19,-4,60,1624845156.0,32.000000
-19,-4,60,1624845156.0,32.000000
-19,-4,61,1624845156.0,32.000000
-19,-4,61,1624845156.0,32.000000
-19,-4,60,1624845156.0,32.000000
-19,-4,61,1624845156.0,32.000000
-19,-4,61,1624845156.0,32.000000
-20,-4,61,1624845156.0,32.000000
-20,-3,60,1624845156.0,32.000000
-19,-3,60,1624845156.0,32.000000
-19,-4,61,1624845156.0,32.000000
-19,-4,60,1624845156.0,32.000000
-19,-4,60,1624845156.0,32.000000
-18,-4,60,1624845156.0,32.000000
-19,-4,61,1624845156.0,32.000000
-20,-4,60,1624845156.0,32.000000
-19,-4,61,1624845156.0,32.000000
-19,-4,60,1624845156.0,32.000000
-18,-4,60,1624845156.0,32.000000
-18,-4,61,1624845156.0,32.000000
-18,-4,60,1624845156.0,32.000000
-18,-4,61,1624845156.0,32.000000
-19,-3,60,1624845156.0,32.000000
-19,-3,60,1624845156.0,32.000000
-19,-3,61,1624845156.0,32.000000
-18,-4,60,1624845156.0,32.000000
-18,-4,60,1624845156.0,32.000000
-19,-4,61,1624845156.0,32.000000
-19,-4,61,1624845156.0,32.000000
-18,-4,60,1624845156.0,32.000000
-19,-4,60,1624845156.0,32.000000
-19,-4,61,1624845156.0,32.000000
-19,-4,60,1624845156.0,32.000000
-18,-4,61,1624845156.0,32.000000
-18,-3,61,1624845156.0,32.000000
-19,-4,61,1624845156.0,32.000000
-19,-4,60,1624845156.0,32.000000
-18,-4,61,1624845156.0,32.000000
-19,-4,61,1624845156.0,32.000000
-19,-4,60,1624845156.0,32.000000
-19,-4,60,1624845156.0,32.000000
-19,-3,61,1624845156.0,32.000000
-21,-4,61,1624845156.0,32.000000
-18,-4,60,1624845156.0,32.000000
-19,-4,62,1624845156.0,32.000000
-20,-3,61,1624845156.0,32.000000
-21,-4,60,1624845156.0,32.000000
-20,-4,61,1624845156.0,32.000000
-18,-4,61,1624845156.0,32.000000
-18,-4,60,1624845156.0,32.000000
-19,-4,61,1624845156.0,32.000000
-19,-4,61,1624845156.0,32.000000
-20,-4,60,1624845156.0,32.000000
-19,-4,61,1624845156.0,32.000000
-18,-4,61,1624845156.0,32.000000
-19,-4,61,1624845156.0,32.000000
-19,-4,60,1624845156.0,32.000000
-19,-4,60,1624845156.0,32.000000
-19,-4,61,1624845156.0,32.000000
-19,-4,61,1624845156.0,32.000000
-19,-4,61,1624845156.0,32.000000
-19,-4,61,1624845156.0,32.000000
-19,-4,60,1624845156.0,32.000000
-19,-4,60,1624845156.0,32.000000
-19,-4,61,1624845156.0,32.000000
-18,-4,60,1624845156.0,32.000000
-19,-4,60,1624845156.0,32.000000
-19,-4,60,1624845156.0,32.000000
-19,-4,61,1624845156.0,32.000000
-18,-4,61,1624845156.0,32.000000
-18,-4,61,1624845156.0,32.000000
-18,-4,60,1624845156.0,32.000000
-19,-3,61,1624845156.0,32.000000
-20,-3,61,1624845156.0,32.000000
-20,-4,60,1624845156.0,32.000000
-20,-4,60,1624845156.0,32.000000
-19,-3,60,1624845156.0,32.000000
-19,-3,61,1624845156.0,32.000000
-19,-4,61,1624845156.0,32.000000
-21,-3,61,1624845156.0,32.000000
-20,-4,60,1624845156.0,32.000000
-19,-4,60,1624845156.0,32.000000
-18,-3,61,1624845156.0,32.000000
-18,-4,60,1624845156.0,32.000000
-19,-4,60,1624845156.0,32.000000
-19,-4,61,1624845156.0,32.000000
-19,-4,61,1624845156.0,32.000000
-20,-4,60,1624845156.0,32.000000
-20,-4,60,1624845156.0,32.000000
-20,-4,60,1624845156.0,32.000000
-19,-4,61,1624845156.0,32.000000
-20,-4,60,1624845156.0,32.000000
-20,-3,60,1624845156.0,32.000000
-19,-4,61,1624845156.0,32.000000
-19,-4,61,1624845156.0,32.000000
-20,-4,60,1624845156.0,32.000000
-20,-4,60,1624845156.0,32.000000
-19,-3,60,1624845156.0,32.000000
-19,-3,60,1624845156.0,32.000000
-20,-4,61,1624845156.0,32.000000
-20,-4,60,1624845156.0,32.000000
-20,-4,60,1624845156.0,32.000000
-19,-3,61,1624845156.0,32.000000
-19,-3,60,1624845156.0,32.000000
-20,-4,60,1624845156.0,32.000000
-20,-4,60,1624845156.0,32.000000
-19,-4,60,1624845156.0,32.000000
-19,-4,61,1624845156.0,32.000000
-20,-4,60,1624845156.0,32.000000
-20,-4,60,1624845156.0,32.000000
-20,-4,60,1624845156.0,32.000000
-19,-4,61,1624845156.0,32.000000
-19,-4,61,1624845156.0,32.000000
-20,-4,60,1624845156.0,32.000000
-20,-4,61,1624845156.0,32.000000
-20,-4,60,1624845156.0,32.000000
-19,-3,60,1624845156.0,32.000000
-19,-4,61,1624845156.0,32.000000
-20,-4,60,1624845156.0,32.000000
-20,-4,60,1624845156.0,32.000000
-19,-4,60,1624845156.0,32.000000
-19,-3,60,1624845156.0,32.000000
-20,-3,60,1624845156.0,32.000000
-20,-4,60,1624845156.0,32.000000
-19,-4,60,1624845156.0,32.000000
-19,-4,60,1624845156.0,32.000000
-19,-4,60,1624845156.0,32.000000
-20,-4,60,1624845156.0,32.000000
-20,-4,60,1624845156.0,32.000000
-19,-4,60,1624845156.0,32.000000
-19,-4,60,1624845156.0,32.000000
-20,-4,60,1624845156.0,32.000000
-20,-4,60,1624845156.0,32.000000
-20,-4,60,1624845156.0,32.000000
-19,-4,60,1624845156.0,32.000000
-19,-3,61,1624845156.0,32.000000
-20,-3,60,1624845156.0,32.000000
-20,-4,60,1624845156.0,32.000000
-19,-3,60,1624845156.0,32.000000
-20,-4,60,1624845156.0,32.000000
-20,-4,60,1624845156.0,32.000000
-21,-4,60,1624845156.0,32.000000
-21,-4,61,1624845156.0,32.000000
-20,-3,60,1624845156.0,32.000000
-20,-4,60,1624845156.0,32.000000
-20,-4,60,1624845156.0,32.000000
-20,-4,60,1624845156.0,32.000000
-19,-4,60,1624845156.0,32.000000
-20,-4,60,1624845156.0,32.000000
-20,-4,60,1624845156.0,32.000000
-20,-3,61,1624845156.0,32.000000
-19,-3,60,1624845156.0,32.000000
-20,-3,60,1624845156.0,32.000000
-20,-4,60,1624845156.0,32.000000
-20,-3,60,1624845156.0,32.000000
-19,-3,61,1624845156.0,32.000000
-20,-4,60,1624845156.0,32.000000
-20,-3,60,1624845156.0,32.000000
-20,-3,60,1624845156.0,32.000000
-20,-4,60,1624845156.0,32.000000
-20,-4,60,1624845156.0,32.000000
-20,-4,60,1624845156.0,32.000000
-20,-4,60,1624845156.0,32.000000
-21,-4,59,1624845156.0,32.000000
-22,-3,60,1624845156.0,32.000000
-21,-3,59,1624845156.0,32.000000
-21,-4,59,1624845156.0,32.000000
-22,-5,60,1624845156.0,32.000000
-22,-5,60,1624845156.0,32.000000
-20,-4,59,1624845156.0,32.000000
-20,-4,60,1624845156.0,32.000000
-22,-4,60,1624845156.0,32.000000
-22,-4,59,1624845156.0,32.000000
-21,-4,60,1624845156.0,32.000000
-20,-3,60,1624845156.0,32.000000
-21,-3,61,1624845156.0,32.000000
-22,-3,59,1624845156.0,32.000000
-21,-4,59,1624845156.0,32.000000
-19,-3,60,1624845156.0,32.000000
-21,-3,60,1624845156.0,32.000000
-21,-4,60,1624845156.0,32.000000
-21,-4,60,1624845156.0,32.000000
-20,-4,60,1624845156.0,32.000000
-20,-3,60,1624845156.0,32.000000
-21,-3,61,1624845156.0,32.000000
-22,-4,59,1624845156.0,32.000000
-23,-4,59,1624845156.0,32.000000
-21,-3,60,1624845156.0,32.000000
-21,-3,61,1624845156.0,32.000000
-20,-4,60,1624845156.0,32.000000
-20,-4,60,1624845156.0,32.000000
-22,-4,62,1624845156.0,32.000000
-23,-4,61,1624845156.0,32.000000
-20,-3,59,1624845156.0,32.000000
-20,-3,59,1624845156.0,32.000000
-20,-3,59,1624845156.0,32.000000
-21,-4,59,1624845156.0,32.000000
-22,-4,60,1624845156.0,32.000000
-21,-4,60,1624845156.0,32.000000
-20,-4,60,1624845156.0,32.000000
-20,-4,60,1624845156.0,32.000000
-21,-4,60,1624845156.0,32.000000
-21,-4,60,1624845156.0,32.000000
-20,-4,60,1624845156.0,32.000000
-19,-3,59,1624845156.0,32.000000
-20,-4,64,1624845156.0,32.000000
-22,-4,60,1624845156.0,32.000000
-22,-4,61,1624845156.0,32.000000
-20,-3,59,1624845156.0,32.000000
-20,-4,60,1624845156.0,32.000000
-20,-4,60,1624845156.0,32.000000
-20,-4,60,1624845156.0,32.000000
-20,-4,61,1624845156.0,32.000000
-20,-3,61,1624845156.0,32.000000
-21,-4,60,1624845156.0,32.000000
-21,-4,59,1624845156.0,32.000000
-22,-4,61,1624845156.0,32.000000
-21,-3,61,1624845156.0,32.000000
-20,-4,59,1624845156.0,32.000000
-20,-4,60,1624845156.0,32.000000
-20,-4,60,1624845156.0,32.000000
-21,-3,60,1624845156.0,32.000000
-21,-3,60,1624845156.0,32.000000
-23,-3,60,1624845156.0,32.000000
-19,-3,61,1624845156.0,32.000000
-22,-4,60,1624845156.0,32.000000
-22,-4,59,1624845156.0,32.000000
-22,-4,59,1624845156.0,32.000000
-20,-3,61,1624845156.0,32.000000
-21,-4,60,1624845156.0,32.000000
-21,-4,61,1624845156.0,32.000000
-20,-4,60,1624845156.0,32.000000
-20,-3,60,1624845156.0,32.000000
-21,-4,60,1624845156.0,32.000000
-21,-4,60,1624845156.0,32.000000
-20,-4,60,1624845156.0,32.000000
-20,-3,60,1624845156.0,32.000000
-20,-3,60,1624845156.0,32.000000
-21,-3,60,1624845156.0,32.000000
-19,-3,60,1624845156.0,32.000000
-19,-3,61,1624845156.0,32.000000
-20,-4,60,1624845156.0,32.000000
-20,-4,60,1624845156.0,32.000000
-19,-4,61,1624845156.0,32.000000
-20,-4,60,1624845156.0,32.000000
-21,-3,60,1624845156.0,32.000000
-19,-4,60,1624845156.0,32.000000
-20,-3,61,1624845156.0,32.000000
-20,-3,60,1624845156.0,32.000000
-21,-3,60,1624845156.0,32.000000
-19,-4,60,1624845156.0,32.000000
-18,-5,61,1624845156.0,32.000000
-18,-5,61,1624845156.0,32.000000
-19,-3,60,1624845156.0,32.000000
-19,-3,60,1624845156.0,32.000000
-20,-3,61,1624845156.0,32.000000
-22,-3,60,1624845156.0,32.000000
-21,-3,59,1624845156.0,32.000000
-18,-4,60,1624845156.0,32.000000
-18,-4,61,1624845156.0,32.000000
-19,-4,59,1624845156.0,32.000000
-18,-4,61,1624845156.0,32.000000
-19,-3,61,1624845156.0,32.000000
-20,-3,60,1624845156.0,32.000000
-19,-4,60,1624845156.0,32.000000
-19,-4,60,1624845156.0,32.000000
-18,-4,61,1624845156.0,32.000000
-19,-4,60,1624845156.0,32.000000
-23,-4,60,1624845156.0,32.000000
-21,-4,60,1624845156.0,32.000000
-21,-3,60,1624845156.0,32.000000
-21,-3,61,1624845156.0,32.000000
-20,-4,60,1624845156.0,32.000000
-20,-4,60,1624845156.0,32.000000
-19,-4,61,1624845156.0,32.000000
-20,-4,61,1624845156.0,32.000000
-20,-4,59,1624845156.0,32.000000
-20,-3,60,1624845156.0,32.000000
-20,-4,60,1624845156.0,32.000000
-20,-4,60,1624845156.0,32.000000
-20,-4,60,1624845156.0,32.000000
-19,-4,59,1624845156.0,32.000000
-18,-4,60,1624845156.0,32.000000
-19,-4,61,1624845156.0,32.000000
-22,-5,60,1624845156.0,32.000000
-25,-3,60,1624845156.0,32.000000
-21,-4,59,1624845156.0,32.000000
-20,-4,60,1624845156.0,32.000000
-17,-4,61,1624845156.0,32.000000
-17,-4,60,1624845156.0,32.000000
-19,-4,61,1624845156.0,32.000000
-20,-4,59,1624845156.0,32.000000
-21,-3,61,1624845156.0,32.000000
-18,-3,59,1624845156.0,32.000000
-18,-3,60,1624845156.0,32.000000
-19,-5,61,1624845156.0,32.000000
-19,-5,61,1624845156.0,32.000000
-18,-3,60,1624845156.0,32.000000
-18,-3,60,1624845156.0,32.000000
-21,-4,61,1624845156.0,32.000000
-20,-4,60,1624845156.0,32.000000
-19,-4,60,1624845156.0,32.000000
-19,-4,61,1624845156.0,32.000000
-20,-4,61,1624845156.0,32.000000
-19,-4,61,1624845156.0,32.000000
-18,-3,60,1624845156.0,32.000000
-19,-3,60,1624845156.0,32.000000
-20,-3,61,1624845156.0,32.000000
-20,-4,60,1624845156.0,32.000000
-20,-4,60,1624845156.0,32.000000
-19,-4,60,1624845156.0,32.000000
-19,-4,61,1624845156.0,32.000000
-20,-3,60,1624845156.0,32.000000
-22,-4,60,1624845156.0,32.000000
-21,-4,61,1624845156.0,32.000000
-20,-4,61,1624845156.0,32.000000
-20,-3,60,1624845156.0,32.000000
-22,-3,59,1624845156.0,32.000000
-21,-5,59,1624845156.0,32.000000
-20,-5,60,1624845156.0,32.000000
-20,-3,61,1624845156.0,32.000000
-21,-3,60,1624845156.0,32.000000
-22,-3,60,1624845156.0,32.000000
-22,-4,61,1624845156.0,32.000000
-20,-4,59,1624845156.0,32.000000
-20,-5,60,1624845156.0,32.000000
-18,-4,61,1624845156.0,32.000000
-19,-4,60,1624845156.0,32.000000
-19,-3,62,1624845156.0,32.000000
-20,-3,62,1624845156.0,32.000000
-19,-3,60,1624845156.0,32.000000
-20,-3,60,1624845156.0,32.000000
-19,-4,61,1624845156.0,32.000000
-19,-4,60,1624845156.0,32.000000
-19,-5,61,1624845156.0,32.000000
-19,-4,60,1624845156.0,32.000000
-19,-4,60,1624845156.0,32.000000
-17,-4,60,1624845156.0,32.000000
-18,-4,62,1624845156.0,32.000000
-17,-3,61,1624845156.0,32.000000
-17,-3,60,1624845156.0,32.000000
-21,-4,61,1624845156.0,32.000000
-20,-4,59,1624845156.0,32.000000
-19,-4,60,1624845156.0,32.000000
-19,-3,60,1624845156.0,32.000000
-19,-4,61,1624845156.0,32.000000
-19,-4,61,1624845156.0,32.000000
-19,-4,61,1624845156.0,32.000000
-20,-4,61,1624845156.0,32.000000
-20,-4,61,1624845156.0,32.000000
-20,-4,60,1624845156.0,32.000000
-20,-3,60,1624845156.0,32.000000
-20,-4,61,1624845156.0,32.000000
-20,-4,60,1624845156.0,32.000000
-21,-4,60,1624845156.0,32.000000
-20,-4,60,1624845156.0,32.000000
-20,-4,60,1624845156.0,32.000000
-20,-4,61,1624845156.0,32.000000
-20,-4,60,1624845156.0,32.000000
-20,-4,60,1624845156.0,32.000000
-22,-4,60,1624845156.0,32.000000
-22,-4,60,1624845156.0,32.000000
-21,-4,60,1624845156.0,32.000000
-20,-4,60,1624845156.0,32.000000
-20,-4,60,1624845156.0,32.000000
-20,-4,60,1624845156.0,32.000000
-20,-4,60,1624845156.0,32.000000
-23,-4,59,1624845156.0,32.000000
-21,-4,60,1624845156.0,32.000000
-21,-4,60,1624845156.0,32.000000
-21,-4,60,1624845156.0,32.000000
-20,-4,60,1624845156.0,32.000000
-20,-3,60,1624845156.0,32.000000
-20,-4,60,1624845156.0,32.000000
-21,-4,60,1624845156.0,32.000000
-21,-4,60,1624845156.0,32.000000
-20,-4,60,1624845156.0,32.000000
-21,-4,61,1624845156.0,32.000000
-20,-4,60,1624845156.0,32.000000
-21,-4,60,1624845156.0,32.000000
-20,-4,60,1624845156.0,32.000000
-20,-4,60,1624845156.0,32.000000
-20,-4,60,1624845156.0,32.000000
-20,-4,60,1624845156.0,32.000000
-21,-4,60,1624845156.0,32.000000
-20,-4,60,1624845156.0,32.000000
-20,-4,60,1624845156.0,32.000000
-20,-4,60,1624845156.0,32.000000
-20,-4,60,1624845156.0,32.000000
-21,-4,60,1624845156.0,32.000000
-21,-4,60,1624845156.0,32.000000
-20,-3,60,1624845156.0,32.000000
-20,-4,60,1624845156.0,32.000000
-20,-4,60,1624845156.0,32.000000
-20,-4,60,1624845156.0,32.000000
-21,-4,60,1624845156.0,32.000000
-20,-4,60,1624845156.0,32.000000
-20,-4,60,1624845156.0,32.000000
-20,-4,60,1624845156.0,32.000000
-20,-4,60,1624845156.0,32.000000
-21,-4,60,1624845156.0,32.000000
-20,-4,60,1624845156.0,32.000000
-20,-4,60,1624845156.0,32.000000
-20,-4,61,1624845156.0,32.000000
-21,-4,60,1624845156.0,32.000000
-20,-4,60,1624845156.0,32.000000
-20,-4,60,1624845156.0,32.000000
-20,-4,60,1624845156.0,32.000000
-20,-4,60,1624845156.0,32.000000
-20,-4,60,1624845156.0,32.000000
-20,-4,60,1624845156.0,32.000000
-21,-4,60,1624845156.0,32.000000
-20,-4,60,1624845156.0,32.000000
-20,-4,60,1624845156.0,32.000000
-20,-4,60,1624845156.0,32.000000
-20,-4,60,1624845156.0,32.000000
-20,-4,60,1624845156.0,32.000000
-19,-4,60,1624845156.0,32.000000
-20,-4,60,1624845156.0,32.000000
-21,-4,60,1624845156.0,32.000000
-20,-4,60,1624845156.0,32.000000
-20,-4,60,1624845156.0,32.000000
-20,-4,60,1624845156.0,32.000000
-20,-4,60,1624845156.0,32.000000
-20,-4,60,1624845156.0,32.000000
-20,-4,60,1624845156.0,32.000000
-20,-4,60,1624845156.0,32.000000
-20,-4,60,1624845156.0,32.000000
-20,-4,60,1624845156.0,32.000000
-20,-4,60,1624845156.0,32.000000
-21,-4,60,1624845156.0,32.000000
-21,-4,60,1624845156.0,32.000000
-20,-4,60,1624845156.0,32.000000
-19,-4,60,1624845156.0,32.000000
-20,-4,60,1624845156.0,32.000000
-21,-4,60,1624845156.0,32.000000
-20,-4,60,1624845156.0,32.000000
-20,-4,60,1624845156.0,32.000000
-20,-4,61,1624845156.0,32.000000
-20,-4,60,1624845156.0,32.000000
-20,-4,60,1624845156.0,32.000000
-20,-4,60,1624845156.0,32.000000
-20,-4,60,1624845156.0,32.000000
-19,-4,60,1624845156.0,32.000000
-20,-4,60,1624845156.0,32.000000
-20,-4,60,1624845156.0,32.000000
-21,-4,60,1624845156.0,32.000000
-20,-4,60,1624845156.0,32.000000
-20,-4,60,1624845156.0,32.000000
-20,-4,60,1624845156.0,32.000000
-21,-4,60,1624845156.0,32.000000
-21,-4,60,1624845156.0,32.000000
-20,-4,60,1624845156.0,32.000000
-19,-4,60,1624845156.0,32.000000
-20,-4,60,1624845156.0,32.000000
-21,-4,60,1624845156.0,32.000000
-21,-4,60,1624845156.0,32.000000
-20,-4,60,1624845156.0,32.000000
-20,-4,60,1624845156.0,32.000000
-20,-4,60,1624845156.0,32.000000
-21,-4,60,1624845156.0,32.000000
-21,-4,60,1624845156.0,32.000000
-20,-4,60,1624845156.0,32.000000
-20,-4,60,1624845156.0,32.000000
-20,-4,60,1624845156.0,32.000000
-21,-4,60,1624845156.0,32.000000
-21,-4,60,1624845156.0,32.000000
-20,-4,60,1624845156.0,32.000000
-19,-4,60,1624845156.0,32.000000
-20,-4,61,1624845156.0,32.000000
-21,-4,60,1624845156.0,32.000000
-21,-4,60,1624845156.0,32.000000
-20,-4,60,1624845156.0,32.000000
-20,-4,60,1624845156.0,32.000000
-20,-4,60,1624845156.0,32.000000
-21,-4,60,1624845156.0,32.000000
-20,-4,60,1624845156.0,32.000000
-20,-4,60,1624845156.0,32.000000
-20,-4,60,1624845156.0,32.000000
-20,-4,60,1624845156.0,32.000000
-21,-4,60,1624845156.0,32.000000
-20,-4,60,1624845156.0,32.000000
-20,-4,60,1624845156.0,32.000000
-19,-4,60,1624845156.0,32.000000
-21,-4,60,1624845156.0,32.000000
-21,-4,60,1624845156.0,32.000000
-21,-4,60,1624845156.0,32.000000
-20,-4,60,1624845156.0,32.000000
-20,-4,61,1624845156.0,32.000000
-20,-4,60,1624845156.0,32.000000
-20,-4,60,1624845156.0,32.000000
-21,-4,61,1624845156.0,32.000000
-21,-4,60,1624845156.0,32.000000
-20,-4,60,1624845156.0,32.000000
-20,-4,60,1624845156.0,32.000000
-20,-4,60,1624845156.0,32.000000
-21,-4,60,1624845156.0,32.000000
-20,-4,60,1624845156.0,32.000000
-19,-4,60,1624845156.0,32.000000
-20,-4,60,1624845156.0,32.000000
-20,-4,60,1624845156.0,32.000000
-20,-4,60,1624845156.0,32.000000
-20,-4,60,1624845156.0,32.000000
-20,-4,60,1624845156.0,32.000000
-20,-4,60,1624845156.0,32.000000
-20,-4,60,1624845156.0,32.000000
-20,-4,60,1624845156.0,32.000000
-20,-4,60,1624845156.0,32.000000
-20,-4,60,1624845156.0,32.000000
-20,-4,60,1624845156.0,32.000000
-20,-4,60,1624845156.0,32.000000
-20,-4,60,1624845156.0,32.000000
-21,-4,60,1624845156.0,32.000000
-20,-4,61,1624845156.0,32.000000
-20,-4,60,1624845156.0,32.000000
-19,-4,60,1624845156.0,32.000000
-21,-4,60,1624845156.0,32.000000
-21,-4,60,1624845156.0,32.000000
-19,-4,61,1624845156.0,32.000000
-20,-4,60,1624845156.0,32.000000
-21,-4,60,1624845156.0,32.000000
-21,-4,60,1624845156.0,32.000000
-22,-5,60,1624845156.0,32.000000
-20,-4,60,1624845156.0,32.000000
-19,-3,61,1624845156.0,32.000000
-19,-2,61,1624845156.0,32.000000
-22,-4,60,1624845156.0,32.000000
-21,-4,60,1624845156.0,32.000000
-19,-4,61,1624845156.0,32.000000
-19,-4,60,1624845156.0,32.000000
-21,-4,60,1624845156.0,32.000000
-21,-4,60,1624845156.0,32.000000
-19,-4,60,1624845156.0,32.000000
-20,-4,60,1624845156.0,32.000000
-20,-4,60,1624845156.0,32.000000
-20,-4,60,1624845156.0,32.000000
-19,-3,61,1624845156.0,32.000000
-19,-4,60,1624845156.0,32.000000
-20,-4,60,1624845156.0,32.000000
-20,-4,60,1624845156.0,32.000000
-20,-4,60,1624845156.0,32.000000
-20,-4,60,1624845156.0,32.000000
-20,-4,60,1624845156.0,32.000000
-20,-4,60,1624845156.0,32.000000
-20,-4,60,1624845156.0,32.000000
-20,-4,60,1624845156.0,32.000000
-20,-4,60,1624845156.0,32.000000
-20,-4,60,1624845156.0,32.000000
-20,-4,60,1624845156.0,32.000000
-20,-4,60,1624845156.0,32.000000
-20,-4,60,1624845156.0,32.000000
-20,-4,60,1624845156.0,32.000000
-20,-4,60,1624845156.0,32.000000
-20,-4,60,1624845156.0,32.000000
-20,-4,60,1624845156.0,32.000000
-19,-4,60,1624845156.0,32.000000
-19,-4,60,1624845156.0,32.000000
-20,-4,60,1624845156.0,32.000000
-20,-4,60,1624845156.0,32.000000
-20,-4,60,1624845156.0,32.000000
-20,-4,60,1624845156.0,32.000000
-20,-4,60,1624845156.0,32.000000
-20,-4,60,1624845156.0,32.000000
-20,-4,60,1624845156.0,32.000000
-20,-4,60,1624845156.0,32.000000
-20,-4,60,1624845156.0,32.000000
-20,-4,60,1624845156.0,32.000000
-20,-4,60,1624845156.0,32.000000
-20,-4,60,1624845156.0,32.000000
-20,-4,60,1624845156.0,32.000000
-20,-4,60,1624845156.0,32.000000
-20,-4,61,1624845156.0,32.000000
-20,-4,60,1624845156.0,32.000000
-20,-4,60,1624845156.0,32.000000
-20,-4,61,1624845156.0,32.000000
-20,-4,60,1624845156.0,32.000000
-20,-4,60,1624845156.0,32.000000
-20,-4,60,1624845156.0,32.000000
-20,-4,60,1624845156.0,32.000000
-20,-3,60,1624845156.0,32.000000
-20,-4,60,1624845156.0,32.000000
-21,-4,60,1624845156.0,32.000000
-20,-4,60,1624845156.0,32.000000
-20,-3,60,1624845156.0,32.000000
-20,-4,60,1624845156.0,32.000000
-21,-4,60,1624845156.0,32.000000
-22,-4,60,1624845156.0,32.000000
-21,-4,60,1624845156.0,32.000000
-21,-3,60,1624845156.0,32.000000
-22,-4,60,1624845156.0,32.000000
-22,-4,60,1624845156.0,32.000000
-20,-4,60,1624845156.0,32.000000
-20,-4,60,1624845156.0,32.000000
-21,-4,60,1624845156.0,32.000000
-22,-4,60,1624845156.0,32.000000
-20,-4,60,1624845156.0,32.000000
-19,-4,60,1624845156.0,32.000000
-20,-4,60,1624845156.0,32.000000
-21,-4,60,1624845156.0,32.000000
-20,-3,60,1624845156.0,32.000000
-20,-3,60,1624845156.0,32.000000
-21,-4,60,1624845156.0,32.000000
-21,-4,60,1624845156.0,32.000000
-21,-4,60,1624845156.0,32.000000
-21,-4,60,1624845156.0,32.000000
-20,-4,60,1624845156.0,32.000000
-20,-4,60,1624845156.0,32.000000
-20,-4,60,1624845156.0,32.000000
-20,-4,60,1624845156.0,32.000000
-20,-4,60,1624845156.0,32.000000
-20,-4,60,1624845156.0,32.000000
-21,-4,60,1624845156.0,32.000000
-20,-4,60,1624845156.0,32.000000
-20,-4,60,1624845156.0,32.000000
-20,-3,60,1624845156.0,32.000000
-21,-4,60,1624845156.0,32.000000
-21,-4,60,1624845156.0,32.000000
-20,-4,60,1624845156.0,32.000000
-19,-4,60,1624845156.0,32.000000
-19,-4,60,1624845156.0,32.000000
-20,-4,60,1624845156.0,32.000000
-20,-4,60,1624845156.0,32.000000
-20,-4,61,1624845156.0,32.000000
-20,-3,60,1624845156.0,32.000000
-21,-3,60,1624845156.0,32.000000
-21,-4,60,1624845156.0,32.000000
-20,-4,60,1624845156.0,32.000000
-19,-4,60,1624845156.0,32.000000
-20,-4,61,1624845156.0,32.000000
-21,-4,60,1624845156.0,32.000000
-20,-4,60,1624845156.0,32.000000
-20,-4,60,1624845156.0,32.000000
-20,-4,60,1624845156.0,32.000000
-20,-4,60,1624845156.0,32.000000
-21,-4,60,1624845156.0,32.000000
-20,-4,60,1624845156.0,32.000000
-19,-4,60,1624845156.0,32.000000
-19,-4,60,1624845156.0,32.000000
-20,-4,60,1624845156.0,32.000000
-20,-4,60,1624845156.0,32.000000
-20,-4,60,1624845156.0,32.000000
-19,-4,60,1624845156.0,32.000000
-20,-4,60,1624845156.0,32.000000
-20,-4,60,1624845156.0,32.000000
-20,-4,60,1624845156.0,32.000000
-20,-4,60,1624845156.0,32.000000
-19,-4,60,1624845156.0,32.000000
-20,-4,61,1624845156.0,32.000000
-20,-4,60,1624845156.0,32.000000
-20,-4,60,1624845156.0,32.000000
-20,-4,60,1624845156.0,32.000000
-20,-4,60,1624845156.0,32.000000
-20,-4,60,1624845156.0,32.000000
-20,-4,60,1624845156.0,32.000000
-20,-4,60,1624845156.0,32.000000
-20,-4,60,1624845156.0,32.000000
-20,-4,60,1624845156.0,32.000000
-20,-4,60,1624845156.0,32.000000
-20,-4,60,1624845156.0,32.000000
-20,-4,60,1624845156.0,32.000000
-20,-4,60,1624845156.0,32.000000
-20,-4,60,1624845156.0,32.000000
-20,-4,60,1624845156.0,32.000000
-20,-4,60,1624845156.0,32.000000
-20,-4,60,1624845156.0,32.000000
-21,-4,60,1624845156.0,32.000000
-20,-4,60,1624845156.0,32.000000
-20,-4,60,1624845156.0,32.000000
-20,-4,60,1624845156.0,32.000000
-20,-4,60,1624845156.0,32.000000
-21,-4,60,1624845156.0,32.000000
-20,-4,60,1624845156.0,32.000000
-20,-4,60,1624845156.0,32.000000
-20,-4,60,1624845156.0,32.000000
-20,-4,60,1624845156.0,32.000000
-21,-4,60,1624845156.0,32.000000
-20,-4,60,1624845156.0,32.000000
-20,-4,60,1624845156.0,32.000000
-20,-4,60,1624845156.0,32.000000
-20,-4,60,1624845156.0,32.000000
-20,-4,60,1624845156.0,32.000000
-20,-4,60,1624845156.0,32.000000
-20,-4,60,1624845156.0,32.000000
-20,-4,60,1624845156.0,32.000000
-20,-4,60,1624845156.0,32.000000
-20,-4,60,1624845156.0,32.000000
-20,-4,60,1624845156.0,32.000000
-20,-4,60,1624845156.0,32.000000
-20,-4,60,1624845156.0,32.000000
-20,-4,60,1624845156.0,32.000000
-20,-4,60,1624845156.0,32.000000
-20,-4,60,1624845156.0,32.000000
-20,-4,60,1624845156.0,32.000000
-20,-4,60,1624845156.0,32.000000
-20,-4,61,1624845156.0,32.000000
-20,-4,60,1624845156.0,32.000000
-20,-4,60,1624845156.0,32.000000
-19,-4,60,1624845156.0,32.000000
-20,-4,60,1624845156.0,32.000000
-20,-4,60,1624845156.0,32.000000
-20,-4,60,1624845156.0,32.000000
-20,-4,60,1624845156.0,32.000000
-19,-4,60,1624845156.0,32.000000
-20,-4,60,1624845156.0,32.000000
-20,-4,60,1624845156.0,32.000000
-20,-4,60,1624845156.0,32.000000
-20,-4,60,1624845156.0,32.000000
-20,-4,60,1624845156.0,32.000000
-20,-4,60,1624845156.0,32.000000
-21,-4,60,1624845156.0,32.000000
-21,-4,60,1624845156.0,32.000000
-19,-3,60,1624845156.0,32.000000
-20,-4,61,1624845156.0,32.000000
-20,-4,60,1624845156.0,32.000000
-20,-4,60,1624845156.0,32.000000
-20,-4,60,1624845156.0,32.000000
-20,-4,60,1624845156.0,32.000000
-20,-4,60,1624845156.0,32.000000
-20,-4,61,1624845156.0,32.000000
-20,-4,60,1624845156.0,32.000000
-20,-4,60,1624845156.0,32.000000
-21,-4,60,1624845156.0,32.000000
-20,-4,60,1624845156.0,32.000000
-19,-4,60,1624845156.0,32.000000
-20,-4,60,1624845156.0,32.000000
-20,-4,60,1624845156.0,32.000000
-21,-4,60,1624845156.0,32.000000
-20,-4,60,1624845156.0,32.000000
-20,-4,60,1624845156.0,32.000000
-20,-4,60,1624845156.0,32.000000
-20,-4,60,1624845156.0,32.000000
-20,-4,60,1624845156.0,32.000000
-20,-4,60,1624845156.0,32.000000
-20,-4,60,1624845156.0,32.000000
-20,-4,60,1624845156.0,32.000000
-20,-4,60,1624845156.0,32.000000
-20,-4,60,1624845156.0,32.000000
-20,-4,60,1624845156.0,32.000000
-20,-4,60,1624845156.0,32.000000
-20,-4,60,1624845156.0,32.000000
-20,-4,60,1624845156.0,32.000000
-20,-4,60,1624845156.0,32.000000
-20,-4,60,1624845156.0,32.000000
-20,-4,60,1624845156.0,32.000000
-20,-4,60,1624845156.0,32.000000
-20,-4,60,1624845156.0,32.000000
-20,-4,60,1624845156.0,32.000000
-20,-4,60,1624845156.0,32.000000
-20,-4,60,1624845156.0,32.000000
-19,-4,60,1624845156.0,32.000000
-20,-4,60,1624845156.0,32.000000
-20,-4,60,1624845156.0,32.000000
-20,-4,60,1624845156.0,32.000000
-20,-4,60,1624845156.0,32.000000
-19,-4,60,1624845156.0,32.000000
-20,-4,60,1624845156.0,32.000000
-20,-4,60,1624845156.0,32.000000
-20,-4,60,1624845156.0,32.000000
-20,-4,60,1624845156.0,32.000000
-19,-4,60,1624845156.0,32.000000
-20,-4,60,1624845156.0,32.000000
-21,-4,60,1624845156.0,32.000000
-20,-4,60,1624845156.0,32.000000
-19,-4,60,1624845156.0,32.000000
-19,-4,61,1624845156.0,32.000000
-20,-4,60,1624845156.0,32.000000
-21,-4,60,1624845156.0,32.000000
-20,-4,60,1624845156.0,32.000000
-20,-4,60,1624845156.0,32.000000
-20,-4,60,1624845156.0,32.000000
-20,-4,60,1624845156.0,32.000000
-20,-4,60,1624845156.0,32.000000
-20,-4,60,1624845156.0,32.000000
-20,-4,60,1624845156.0,32.000000
-20,-4,60,1624845156.0,32.000000
-20,-4,60,1624845156.0,32.000000
-20,-4,60,1624845156.0,32.000000
-20,-4,60,1624845156.0,32.000000
-20,-4,60,1624845156.0,32.000000
-20,-4,60,1624845156.0,32.000000
-21,-3,60,1624845156.0,32.000000
-21,-4,60,1624845156.0,32.000000
-22,-5,60,1624845156.0,32.000000
-21,-4,59,1624845156.0,32.000000
-21,-3,60,1624845156.0,32.000000
-23,-4,60,1624845156.0,32.000000
-22,-4,59,1624845156.0,32.000000
-21,-5,59,1624845156.0,32.000000
-23,-3,60,1624845156.0,32.000000
-24,-3,60,1624845156.0,32.000000
-23,-4,57,1624845156.0,32.000000
-22,-5,59,1624845156.0,32.000000
-22,-5,59,1624845156.0,32.000000
-23,-4,59,1624845156.0,32.000000
-25,-4,58,1624845156.0,32.000000
-24,-4,59,1624845156.0,32.000000
-23,-4,59,1624845156.0,32.000000
-23,-5,59,1624845156.0,32.000000
-23,-4,59,1624845156.0,32.000000
-23,-4,59,1624845156.0,32.000000
-24,-4,59,1624845156.0,32.000000
-23,-4,59,1624845156.0,32.000000
-23,-4,59,1624845156.0,32.000000
-23,-4,59,1624845156.0,32.000000
-23,-4,59,1624845156.0,32.000000
-23,-4,59,1624845156.0,32.000000
-24,-5,59,1624845156.0,32.000000
-23,-4,59,1624845156.0,32.000000
-24,-5,59,1624845156.0,32.000000
-24,-4,59,1624845156.0,32.000000
-23,-4,59,1624845156.0,32.000000
-21,-4,60,1624845156.0,32.000000
-22,-4,60,1624845156.0,32.000000
-22,-4,60,1624845156.0,32.000000
-21,-4,59,1624845156.0,32.000000
-21,-4,59,1624845156.0,32.000000
-21,-5,59,1624845156.0,32.000000
-22,-5,60,1624845156.0,32.000000
-22,-4,60,1624845156.0,32.000000
-22,-5,59,1624845156.0,32.000000
-22,-4,59,1624845156.0,32.000000
-22,-4,59,1624845156.0,32.000000
-22,-4,60,1624845156.0,32.000000
-22,-4,60,1624845156.0,32.000000
-22,-4,59,1624845156.0,32.000000
-22,-4,59,1624845156.0,32.000000
-22,-4,59,1624845156.0,32.000000
-22,-4,59,1624845156.0,32.000000
-22,-4,60,1624845156.0,32.000000
-22,-4,60,1624845156.0,32.000000
-22,-4,59,1624845156.0,32.000000
-22,-4,60,1624845156.0,32.000000
-22,-4,60,1624845156.0,32.000000
-22,-4,59,1624845156.0,32.000000
-22,-4,59,1624845156.0,32.000000
-22,-4,59,1624845156.0,32.000000
-22,-4,60,1624845156.0,32.000000
-21,-4,60,1624845156.0,32.000000
-22,-4,59,1624845156.0,32.000000
-22,-4,60,1624845156.0,32.000000
-22,-4,60,1624845156.0,32.000000
-22,-4,60,1624845156.0,32.000000
-22,-4,59,1624845156.0,32.000000
-21,-4,59,1624845156.0,32.000000
-22,-4,60,1624845156.0,32.000000
-21,-4,60,1624845156.0,32.000000
-22,-4,60,1624845156.0,32.000000
-22,-4,60,1624845156.0,32.000000
-22,-4,59,1624845156.0,32.000000
-22,-4,60,1624845156.0,32.000000
-22,-4,60,1624845156.0,32.000000
-22,-5,60,1624845156.0,32.000000
-22,-4,59,1624845156.0,32.000000
-22,-4,60,1624845156.0,32.000000
-22,-4,60,1624845156.0,32.000000
-21,-4,59,1624845156.0,32.000000
-21,-4,60,1624845156.0,32.000000
-21,-4,60,1624845156.0,32.000000
-22,-4,59,1624845156.0,32.000000
-22,-4,60,1624845156.0,32.000000
-22,-4,60,1624845156.0,32.000000
-22,-4,59,1624845156.0,32.000000
-22,-4,60,1624845156.0,32.000000
-22,-4,59,1624845156.0,32.000000
-22,-4,59,1624845156.0,32.000000
-22,-4,59,1624845156.0,32.000000
-22,-4,60,1624845156.0,32.000000
-22,-4,60,1624845156.0,32.000000
-22,-4,59,1624845156.0,32.000000
-22,-4,59,1624845156.0,32.000000
-22,-4,59,1624845156.0,32.000000
-22,-4,60,1624845156.0,32.000000
-22,-4,60,1624845156.0,32.000000
-22,-4,60,1624845156.0,32.000000
-22,-4,59,1624845156.0,32.000000
-22,-4,59,1624845156.0,32.000000
-22,-4,60,1624845156.0,32.000000
-22,-4,60,1624845156.0,32.000000
-22,-4,59,1624845156.0,32.000000
-22,-4,59,1624845156.0,32.000000
-23,-4,59,1624845156.0,32.000000
-23,-4,60,1624845156.0,32.000000
-22,-4,60,1624845156.0,32.000000
-22,-4,59,1624845156.0,32.000000
-23,-4,59,1624845156.0,32.000000
-23,-4,59,1624845156.0,32.000000
-23,-4,59,1624845156.0,32.000000
-22,-4,59,1624845156.0,32.000000
-21,-4,60,1624845156.0,32.000000
-22,-4,60,1624845156.0,32.000000
-22,-4,59,1624845156.0,32.000000
-22,-4,59,1624845156.0,32.000000
-22,-4,59,1624845156.0,32.000000
-22,-4,59,1624845156.0,32.000000
-22,-4,59,1624845156.0,32.000000
-22,-4,59,1624845156.0,32.000000
-22,-4,60,1624845156.0,32.000000
-22,-4,59,1624845156.0,32.000000
-22,-4,60,1624845156.0,32.000000
-22,-4,60,1624845156.0,32.000000
-22,-4,59,1624845156.0,32.000000
-22,-4,60,1624845156.0,32.000000
-22,-4,60,1624845156.0,32.000000
-22,-4,60,1624845156.0,32.000000
-22,-4,60,1624845156.0,32.000000
-22,-4,59,1624845156.0,32.000000
-22,-4,60,1624845156.0,32.000000
-22,-4,60,1624845156.0,32.000000
-22,-4,60,1624845156.0,32.000000
-22,-4,59,1624845156.0,32.000000
-22,-4,60,1624845156.0,32.000000
-22,-4,60,1624845156.0,32.000000
-22,-4,60,1624845156.0,32.000000
-22,-4,59,1624845156.0,32.000000
-22,-4,60,1624845156.0,32.000000
-22,-4,60,1624845156.0,32.000000
-22,-4,60,1624845156.0,32.000000
-22,-4,60,1624845156.0,32.000000
-22,-4,59,1624845156.0,32.000000
-22,-4,60,1624845156.0,32.000000
-22,-4,60,1624845156.0,32.000000
-22,-4,60,1624845156.0,32.000000
-21,-4,59,1624845156.0,32.000000
-22,-4,60,1624845156.0,32.000000
-22,-4,60,1624845156.0,32.000000
-22,-4,59,1624845156.0,32.000000
-22,-4,60,1624845156.0,32.000000
-21,-4,60,1624845156.0,32.000000
-22,-4,60,1624845156.0,32.000000
-22,-4,60,1624845156.0,32.000000
-22,-4,60,1624845156.0,32.000000
-22,-4,59,1624845156.0,32.000000
-21,-4,60,1624845156.0,32.000000
-21,-4,59,1624845156.0,32.000000
-22,-4,60,1624845156.0,32.000000
-22,-5,59,1624845156.0,32.000000
-22,-4,59,1624845156.0,32.000000
-22,-4,60,1624845156.0,32.000000
-21,-4,60,1624845156.0,32.000000
-21,-4,61,1624845156.0,32.000000
-23,-3,59,1624845156.0,32.000000
-23,-4,58,1624845156.0,32.000000
-23,-5,60,1624845156.0,32.000000
-21,-5,60,1624845156.0,32.000000
-20,-4,60,1624845156.0,32.000000
-21,-4,60,1624845156.0,32.000000
-22,-4,60,1624845156.0,32.000000
-22,-4,60,1624845156.0,32.000000
-22,-5,60,1624845156.0,32.000000
-22,-4,60,1624845156.0,32.000000
-21,-4,60,1624845156.0,32.000000
-22,-4,60,1624845156.0,32.000000
-22,-4,60,1624845156.0,32.000000
-22,-4,60,1624845156.0,32.000000
-22,-4,59,1624845156.0,32.000000
-22,-4,60,1624845156.0,32.000000
-22,-4,60,1624845156.0,32.000000
-22,-4,59,1624845156.0,32.000000
-22,-4,60,1624845156.0,32.000000
-22,-4,60,1624845156.0,32.000000
-22,-4,60,1624845156.0,32.000000
-22,-4,60,1624845156.0,32.000000
-22,-4,60,1624845156.0,32.000000
-22,-4,60,1624845156.0,32.000000
-22,-4,60,1624845156.0,32.000000
-22,-4,60,1624845156.0,32.000000
-22,-4,59,1624845156.0,32.000000
-22,-4,59,1624845156.0,32.000000
-22,-4,59,1624845156.0,32.000000
-22,-4,60,1624845156.0,32.000000
-22,-4,60,1624845156.0,32.000000
-22,-4,60,1624845156.0,32.000000
-22,-4,59,1624845156.0,32.000000
-22,-4,59,1624845156.0,32.000000
-22,-4,60,1624845156.0,32.000000
-22,-4,60,1624845156.0,32.000000
-22,-4,60,1624845156.0,32.000000
-22,-4,60,1624845156.0,32.000000
-22,-4,59,1624845156.0,32.000000
-22,-4,60,1624845156.0,32.000000
-22,-4,60,1624845156.0,32.000000
-22,-4,60,1624845156.0,32.000000
-22,-4,59,1624845156.0,32.000000
-23,-4,59,1624845156.0,32.000000
-22,-4,59,1624845156.0,32.000000
-22,-4,60,1624845156.0,32.000000
-22,-4,60,1624845156.0,32.000000
-22,-4,59,1624845156.0,32.000000
-23,-4,59,1624845156.0,32.000000
-22,-4,60,1624845156.0,32.000000
-22,-4,60,1624845156.0,32.000000
-22,-4,59,1624845156.0,32.000000
-22,-4,60,1624845156.0,32.000000
-23,-4,60,1624845156.0,32.000000
-22,-4,59,1624845156.0,32.000000
-22,-4,59,1624845156.0,32.000000
-22,-4,59,1624845156.0,32.000000
-23,-4,60,1624845156.0,32.000000
-22,-4,59,1624845156.0,32.000000
-22,-4,59,1624845156.0,32.000000
-22,-4,60,1624845156.0,32.000000
-22,-4,60,1624845156.0,32.000000
-22,-4,60,1624845156.0,32.000000
-22,-4,59,1624845156.0,32.000000
-22,-4,60,1624845156.0,32.000000
-22,-4,60,1624845156.0,32.000000
-22,-4,60,1624845156.0,32.000000
-22,-4,59,1624845156.0,32.000000
-22,-4,59,1624845156.0,32.000000
-21,-4,60,1624845156.0,32.000000
-22,-4,59,1624845156.0,32.000000
-22,-4,59,1624845156.0,32.000000
-22,-4,60,1624845156.0,32.000000
-22,-4,59,1624845156.0,32.000000
-22,-4,60,1624845156.0,32.000000
-21,-4,60,1624845156.0,32.000000
-22,-4,60,1624845156.0,32.000000
-22,-4,60,1624845156.0,32.000000
-22,-4,60,1624845156.0,32.000000
-21,-4,60,1624845156.0,32.000000
-21,-4,60,1624845156.0,32.000000
-22,-4,59,1624845156.0,32.000000
-22,-4,59,1624845156.0,32.000000
-22,-4,60,1624845156.0,32.000000
-22,-4,60,1624845156.0,32.000000
-22,-4,59,1624845156.0,32.000000
-22,-4,60,1624845156.0,32.000000
-22,-4,60,1624845156.0,32.000000
-22,-4,60,1624845156.0,32.000000
-22,-4,60,1624845156.0,32.000000
-21,-4,60,1624845156.0,32.000000
-22,-4,60,1624845156.0,32.000000
-21,-4,59,1624845156.0,32.000000
-22,-4,60,1624845156.0,32.000000
-22,-4,59,1624845156.0,32.000000
-22,-4,59,1624845156.0,32.000000
-21,-4,60,1624845156.0,32.000000
-21,-4,60,1624845156.0,32.000000
-22,-4,60,1624845156.0,32.000000
-22,-4,59,1624845156.0,32.000000
-22,-4,60,1624845156.0,32.000000
-21,-4,60,1624845156.0,32.000000
-22,-4,60,1624845156.0,32.000000
-22,-4,60,1624845156.0,32.000000
-22,-4,60,1624845156.0,32.000000
-21,-4,60,1624845156.0,32.000000
-21,-4,60,1624845156.0,32.000000
-22,-4,60,1624845156.0,32.000000
-22,-4,60,1624845156.0,32.000000
-22,-4,59,1624845156.0,32.000000
-21,-4,60,1624845156.0,32.000000
-21,-4,60,1624845156.0,32.000000
-21,-4,60,1624845156.0,32.000000
-22,-4,59,1624845156.0,32.000000
-22,-4,60,1624845156.0,32.000000
-21,-4,60,1624845156.0,32.000000
-22,-4,60,1624845156.0,32.000000
-21,-4,59,1624845156.0,32.000000
-22,-4,60,1624845156.0,32.000000
-22,-4,59,1624845156.0,32.000000
-22,-4,59,1624845156.0,32.000000
-21,-4,60,1624845156.0,32.000000
-22,-4,60,1624845156.0,32.000000
-23,-5,59,1624845156.0,32.000000
-22,-4,59,1624845156.0,32.000000
-22,-4,60,1624845156.0,32.000000
-21,-4,60,1624845156.0,32.000000
-22,-4,60,1624845156.0,32.000000
-23,-4,59,1624845156.0,32.000000
-22,-4,59,1624845156.0,32.000000
-21,-4,60,1624845156.0,32.000000
-22,-4,60,1624845156.0,32.000000
-22,-4,60,1624845156.0,32.000000
-22,-4,60,1624845156.0,32.000000
-22,-4,59,1624845156.0,32.000000
-22,-4,60,1624845156.0,32.000000
-22,-4,60,1624845156.0,32.000000
-22,-4,59,1624845156.0,32.000000
-22,-4,60,1624845156.0,32.000000
-22,-4,59,1624845156.0,32.000000
-22,-4,60,1624845156.0,32.000000
-22,-4,60,1624845156.0,32.000000
-22,-4,60,1624845156.0,32.000000
-22,-4,59,1624845156.0,32.000000
-22,-4,60,1624845156.0,32.000000
-22,-4,60,1624845156.0,32.000000
-22,-4,60,1624845156.0,32.000000
-22,-4,59,1624845156.0,32.000000
-22,-4,60,1624845156.0,32.000000
-22,-4,60,1624845156.0,32.000000
-22,-4,59,1624845156.0,32.000000
-22,-4,59,1624845156.0,32.000000
-22,-4,60,1624845156.0,32.000000
-21,-4,60,1624845156.0,32.000000
-22,-4,60,1624845156.0,32.000000
-22,-4,59,1624845156.0,32.000000
-22,-4,60,1624845156.0,32.000000
-22,-4,60,1624845156.0,32.000000
-22,-4,60,1624845156.0,32.000000
-22,-4,60,1624845156.0,32.000000
-22,-4,59,1624845156.0,32.000000
-22,-4,60,1624845156.0,32.000000
-22,-4,60,1624845156.0,32.000000
-23,-4,60,1624845156.0,32.000000
-23,-4,61,1624845156.0,32.000000
-22,-4,59,1624845156.0,32.000000
-23,-3,59,1624845156.0,32.000000
-22,-3,60,1624845156.0,32.000000
-21,-4,60,1624845156.0,32.000000
-21,-5,59,1624845156.0,32.000000
-21,-6,59,1624845156.0,32.000000
-21,-5,59,1624845156.0,32.000000
-23,-5,60,1624845156.0,32.000000
-23,-5,59,1624845156.0,32.000000
-24,-4,58,1624845156.0,32.000000
-24,-4,59,1624845156.0,32.000000
-25,-3,59,1624845156.0,32.000000
-25,-4,59,1624845156.0,32.000000
-26,-4,59,1624845156.0,32.000000
-25,-5,59,1624845156.0,32.000000
-24,-4,58,1624845156.0,32.000000
-24,-4,58,1624845156.0,32.000000
-23,-5,59,1624845156.0,32.000000
-25,-5,59,1624845156.0,32.000000
-24,-5,59,1624845156.0,32.000000
-24,-4,59,1624845156.0,32.000000
-25,-4,59,1624845156.0,32.000000
-24,-5,58,1624845156.0,32.000000
-23,-5,58,1624845156.0,32.000000
-24,-5,59,1624845156.0,32.000000
-24,-5,59,1624845156.0,32.000000
-23,-4,58,1624845156.0,32.000000
-23,-4,59,1624845156.0,32.000000
-23,-4,59,1624845156.0,32.000000
-22,-4,59,1624845156.0,32.000000
-24,-4,59,1624845156.0,32.000000
-25,-5,59,1624845156.0,32.000000
-24,-4,58,1624845156.0,32.000000
-23,-4,58,1624845156.0,32.000000
-23,-4,61,1624845156.0,32.000000
-20,-5,59,1624845156.0,32.000000
-22,-5,59,1624845156.0,32.000000
-22,-5,60,1624845156.0,32.000000
-23,-5,59,1624845156.0,32.000000
-22,-4,59,1624845156.0,32.000000
-21,-4,60,1624845156.0,32.000000
-23,-4,59,1624845156.0,32.000000
-23,-5,59,1624845156.0,32.000000
-23,-4,59,1624845156.0,32.000000
-22,-4,59,1624845156.0,32.000000
-23,-4,60,1624845156.0,32.000000
-23,-4,59,1624845156.0,32.000000
-23,-4,59,1624845156.0,32.000000
-23,-4,59,1624845156.0,32.000000
-23,-4,59,1624845156.0,32.000000
-24,-4,59,1624845156.0,32.000000
-24,-5,59,1624845156.0,32.000000
-23,-4,59,1624845156.0,32.000000
-23,-4,59,1624845156.0,32.000000
-24,-4,59,1624845156.0,32.000000
-23,-4,59,1624845156.0,32.000000
-23,-5,59,1624845156.0,32.000000
-22,-4,59,1624845156.0,32.000000
-23,-4,59,1624845156.0,32.000000
-23,-4,60,1624845156.0,32.000000
-22,-4,59,1624845156.0,32.000000
-22,-4,59,1624845156.0,32.000000
-23,-4,59,1624845156.0,32.000000
-23,-4,59,1624845156.0,32.000000
-23,-4,59,1624845156.0,32.000000
-23,-4,59,1624845156.0,32.000000
-22,-4,60,1624845156.0,32.000000
-22,-4,60,1624845156.0,32.000000
-23,-4,59,1624845156.0,32.000000
-23,-4,59,1624845156.0,32.000000
-22,-4,59,1624845156.0,32.000000
-22,-4,60,1624845156.0,32.000000
-23,-4,59,1624845156.0,32.000000
-22,-4,59,1624845156.0,32.000000
-22,-4,59,1624845156.0,32.000000
-22,-4,60,1624845156.0,32.000000
-23,-5,59,1624845156.0,32.000000
-22,-5,59,1624845156.0,32.000000
-22,-5,60,1624845156.0,32.000000
-21,-7,60,1624845156.0,32.000000
-21,-8,61,1624845156.0,32.000000
-23,-6,61,1624845156.0,32.000000
-25,-3,61,1624845156.0,32.000000
-27,-1,57,1624845156.0,32.000000
-29,-2,55,1624845156.0,32.000000
-25,-2,57,1624845156.0,32.000000
-25,-2,58,1624845156.0,32.000000
-24,-3,63,1624845156.0,32.000000
-29,-6,61,1624845156.0,32.000000
-24,-7,58,1624845156.0,32.000000
-25,-7,57,1624845156.0,32.000000
-28,-5,67,1624845156.0,32.000000
-26,-6,67,1624845156.0,32.000000
-32,-4,58,1624845156.0,32.000000
-32,-4,49,1624845156.0,32.000000
-30,-3,54,1624845156.0,32.000000
-37,-5,51,1624845156.0,32.000000
-32,-9,40,1624845156.0,32.000000
-32,-12,40,1624845156.0,32.000000
-33,-19,48,1624845156.0,32.000000
-31,-19,50,1624845156.0,32.000000
-35,-20,45,1624845156.0,32.000000
-36,-20,48,1624845156.0,32.000000
-37,-20,48,1624845156.0,32.000000
-38,-21,47,1624845156.0,32.000000
-41,-21,47,1624845156.0,32.000000
-44,-20,46,1624845156.0,32.000000
-48,-21,45,1624845156.0,32.000000
-44,-23,50,1624845156.0,32.000000
-49,-21,48,1624845156.0,32.000000
-50,-19,47,1624845156.0,32.000000
-48,-19,43,1624845156.0,32.000000
-45,-16,37,1624845156.0,32.000000
-45,-16,37,1624845156.0,32.000000
-43,-17,39,1624845156.0,32.000000
-44,-16,38,1624845156.0,32.000000
-44,-15,38,1624845156.0,32.000000
-44,-15,39,1624845156.0,32.000000
-46,-18,41,1624845156.0,32.000000
-45,-19,45,1624845156.0,32.000000
-47,-18,47,1624845156.0,32.000000
-47,-18,47,1624845156.0,32.000000
-45,-16,45,1624845156.0,32.000000
-46,-16,43,1624845156.0,32.000000
-48,-15,39,1624845156.0,32.000000
-46,-15,38,1624845156.0,32.000000
-46,-16,37,1624845156.0,32.000000
-47,-16,37,1624845156.0,32.000000
-47,-16,42,1624845156.0,32.000000
-47,-16,43,1624845156.0,32.000000
-49,-16,44,1624845156.0,32.000000
-47,-16,43,1624845156.0,32.000000
-47,-15,40,1624845156.0,32.000000
-46,-16,39,1624845156.0,32.000000
-47,-16,40,1624845156.0,32.000000
-49,-17,40,1624845156.0,32.000000
-49,-17,42,1624845156.0,32.000000
-49,-18,45,1624845156.0,32.000000
-50,-19,46,1624845156.0,32.000000
-50,-18,46,1624845156.0,32.000000
-47,-20,50,1624845156.0,32.000000
-47,-27,52,1624845156.0,32.000000
-45,-30,49,1624845156.0,32.000000
-40,-41,47,1624845156.0,32.000000
-35,-46,47,1624845156.0,32.000000
-28,-47,36,1624845156.0,32.000000
-25,-45,31,1624845156.0,32.000000
-28,-34,28,1624845156.0,32.000000
-26,-28,32,1624845156.0,32.000000
-43,-12,33,1624845156.0,32.000000
-57,-1,30,1624845156.0,32.000000
-55,13,36,1624845156.0,32.000000
-50,17,46,1624845156.0,32.000000
-57,13,31,1624845156.0,32.000000
-40,14,35,1624845156.0,32.000000
-34,20,47,1624845156.0,32.000000
-44,26,70,1624845156.0,32.000000
-33,31,78,1624845156.0,32.000000
-40,11,68,1624845156.0,32.000000
-42,11,65,1624845156.0,32.000000
-41,-7,21,1624845156.0,32.000000
-53,-8,5,1624845156.0,32.000000
-64,-6,-13,1624845156.0,32.000000
-61,-8,-23,1624845156.0,32.000000
-63,-18,-16,1624845156.0,32.000000
-57,-16,-9,1624845156.0,32.000000
-58,-14,-19,1624845156.0,32.000000
-60,-16,-24,1624845156.0,32.000000
-54,-15,-29,1624845156.0,32.000000
-54,-12,-30,1624845156.0,32.000000
-55,-12,-37,1624845156.0,32.000000
-55,-15,-41,1624845156.0,32.000000
-56,-13,-37,1624845156.0,32.000000
-53,-12,-39,1624845156.0,32.000000
-59,-12,-41,1624845156.0,32.000000
-41,-15,-25,1624845156.0,32.000000
-47,-13,-29,1624845156.0,32.000000
-52,-12,-34,1624845156.0,32.000000
-53,-13,-41,1624845156.0,32.000000
-53,-8,-38,1624845156.0,32.000000
-61,-9,-42,1624845156.0,32.000000
-52,-11,-43,1624845156.0,32.000000
-53,-10,-43,1624845156.0,32.000000
-50,-12,-41,1624845156.0,32.000000
-56,-10,-40,1624845156.0,32.000000
-53,-10,-44,1624845156.0,32.000000
-59,-12,-40,1624845156.0,32.000000
-52,-12,-28,1624845156.0,32.000000
-51,-14,-21,1624845156.0,32.000000
-50,-10,-2,1624845156.0,32.000000
-55,-12,-7,1624845156.0,32.000000
-63,-9,-6,1624845156.0,32.000000
-65,-10,-4,1624845156.0,32.000000
-69,-14,-15,1624845156.0,32.000000
-67,-12,-25,1624845156.0,32.000000
-52,-12,-21,1624845156.0,32.000000
-45,-13,-18,1624845156.0,32.000000
-62,-15,-40,1624845156.0,32.000000
-58,-14,-43,1624845156.0,32.000000
-43,-20,-51,1624845156.0,32.000000
-41,-22,-72,1624845156.0,32.000000
-46,-17,-46,1624845156.0,32.000000
-41,-13,-29,1624845156.0,32.000000
-54,-15,-53,1624845156.0,32.000000
-57,-14,-59,1624845156.0,32.000000
-42,-18,-32,1624845156.0,32.000000
-42,-15,-27,1624845156.0,32.000000
-56,-13,-35,1624845156.0,32.000000
-52,-17,-25,1624845156.0,32.000000
-56,-19,-16,1624845156.0,32.000000
-58,-20,-19,1624845156.0,32.000000
-57,-20,-15,1624845156.0,32.000000
-48,-14,18,1624845156.0,32.000000
-53,-13,29,1624845156.0,32.000000
-59,-11,22,1624845156.0,32.000000
-62,-13,15,1624845156.0,32.000000
-63,-11,12,1624845156.0,32.000000
-53,-17,18,1624845156.0,32.000000
-51,-20,28,1624845156.0,32.000000
-51,-16,25,1624845156.0,32.000000
-64,-15,8,1624845156.0,32.000000
-64,-16,2,1624845156.0,32.000000
-75,-10,10,1624845156.0,32.000000
-74,-10,10,1624845156.0,32.000000
-58,-14,8,1624845156.0,32.000000
-61,-14,4,1624845156.0,32.000000
-64,-12,3,1624845156.0,32.000000
-73,-10,-2,1624845156.0,32.000000
-55,-14,9,1624845156.0,32.000000
-52,-15,17,1624845156.0,32.000000
-61,-16,12,1624845156.0,32.000000
-71,-16,2,1624845156.0,32.000000
-65,-17,8,1624845156.0,32.000000
-62,-20,6,1624845156.0,32.000000
-54,-19,9,1624845156.0,32.000000
-62,-14,39,1624845156.0,32.000000
-65,-23,29,1624845156.0,32.000000
-32,-30,50,1624845156.0,32.000000
-43,-28,50,1624845156.0,32.000000
-67,-34,49,1624845156.0,32.000000
-31,-31,53,1624845156.0,32.000000
-41,-26,28,1624845156.0,32.000000
-52,-18,33,1624845156.0,32.000000
-51,-11,33,1624845156.0,32.000000
-17,-9,28,1624845156.0,32.000000
-33,-2,55,1624845156.0,32.000000
-45,-2,49,1624845156.0,32.000000
-48,1,28,1624845156.0,32.000000
-52,4,18,1624845156.0,32.000000
-87,-2,5,1624845156.0,32.000000
-73,-3,11,1624845156.0,32.000000
-51,-11,31,1624845156.0,32.000000
-50,-12,36,1624845156.0,32.000000
-67,-13,18,1624845156.0,32.000000
-63,-13,11,1624845156.0,32.000000
-34,-5,12,1624845156.0,32.000000
-42,6,45,1624845156.0,32.000000
-87,3,48,1624845156.0,32.000000
-56,-2,46,1624845156.0,32.000000
-41,-8,45,1624845156.0,32.000000
-25,-4,69,1624845156.0,32.000000
-20,1,70,1624845156.0,32.000000
-28,0,58,1624845156.0,32.000000
-32,-1,57,1624845156.0,32.000000
-27,1,67,1624845156.0,32.000000
-30,-1,62,1624845156.0,32.000000
-46,-7,51,1624845156.0,32.000000
-42,-8,51,1624845156.0,32.000000
-37,-14,52,1624845156.0,32.000000
-44,-17,46,1624845156.0,32.000000
-39,-23,42,1624845156.0,32.000000
-31,-23,50,1624845156.0,32.000000
-15,-27,50,1624845156.0,32.000000
-14,-25,47,1624845156.0,32.000000
-32,-23,34,1624845156.0,32.000000
-40,-21,31,1624845156.0,32.000000
-28,-12,51,1624845156.0,32.000000
-17,-11,51,1624845156.0,32.000000
-30,-6,45,1624845156.0,32.000000
-25,-3,60,1624845156.0,32.000000
-25,-8,57,1624845156.0,32.000000
-31,-15,50,1624845156.0,32.000000
-35,-15,52,1624845156.0,32.000000
-24,-21,59,1624845156.0,32.000000
-31,-24,73,1624845156.0,32.000000
-41,-15,73,1624845156.0,32.000000
-28,-5,67,1624845156.0,32.000000
-40,-3,50,1624845156.0,32.000000
-55,-8,50,1624845156.0,32.000000
-55,-3,34,1624845156.0,32.000000
-61,1,22,1624845156.0,32.000000
-41,-7,41,1624845156.0,32.000000
-27,-12,69,1624845156.0,32.000000
-23,-8,89,1624845156.0,32.000000
-14,-9,77,1624845156.0,32.000000
-20,-5,48,1624845156.0,32.000000
-35,3,55,1624845156.0,32.000000
-16,4,65,1624845156.0,32.000000
-16,1,55,1624845156.0,32.000000
-28,-3,51,1624845156.0,32.000000
-34,-4,53,1624845156.0,32.000000
-29,-8,49,1624845156.0,32.000000
-39,-12,43,1624845156.0,32.000000
-49,-8,40,1624845156.0,32.000000
-57,-7,42,1624845156.0,32.000000
-52,-18,49,1624845156.0,32.000000
-44,-21,51,1624845156.0,32.000000
-42,-21,45,1624845156.0,32.000000
-49,-24,40,1624845156.0,32.000000
-44,-23,51,1624845156.0,32.000000
-38,-24,53,1624845156.0,32.000000
-25,-22,40,1624845156.0,32.000000
-26,-19,45,1624845156.0,32.000000
-38,-17,53,1624845156.0,32.000000
-55,-10,41,1624845156.0,32.000000
-44,-8,26,1624845156.0,32.000000
-45,-5,29,1624845156.0,32.000000
-53,-4,34,1624845156.0,32.000000
-55,1,24,1624845156.0,32.000000
-57,0,25,1624845156.0,32.000000
-63,5,27,1624845156.0,32.000000
-60,2,19,1624845156.0,32.000000
-55,7,33,1624845156.0,32.000000
-67,10,37,1624845156.0,32.000000
-52,0,28,1624845156.0,32.000000
-47,0,23,1624845156.0,32.000000
-59,-1,24,1624845156.0,32.000000
-76,-1,24,1624845156.0,32.000000
-66,-1,28,1624845156.0,32.000000
-60,0,31,1624845156.0,32.000000
-51,-2,31,1624845156.0,32.000000
-53,-2,38,1624845156.0,32.000000
-67,1,28,1624845156.0,32.000000
-60,-3,24,1624845156.0,32.000000
-60,1,26,1624845156.0,32.000000
-60,1,27,1624845156.0,32.000000
-58,1,29,1624845156.0,32.000000
-56,2,30,1624845156.0,32.000000
-57,1,28,1624845156.0,32.000000
-59,0,27,1624845156.0,32.000000
-59,1,28,1624845156.0,32.000000
-58,1,28,1624845156.0,32.000000
-59,1,27,1624845156.0,32.000000
-58,1,29,1624845156.0,32.000000
-57,1,29,1624845156.0,32.000000
-58,1,28,1624845156.0,32.000000
-59,1,28,1624845156.0,32.000000
-57,1,30,1624845156.0,32.000000
-57,1,30,1624845156.0,32.000000
-58,1,28,1624845156.0,32.000000
-59,1,28,1624845156.0,32.000000
-58,1,28,1624845156.0,32.000000
-58,1,29,1624845156.0,32.000000
-58,1,29,1624845156.0,32.000000
-58,1,29,1624845156.0,32.000000
-58,1,29,1624845156.0,32.000000
-58,1,28,1624845156.0,32.000000
-58,1,29,1624845156.0,32.000000
-58,1,29,1624845156.0,32.000000
-57,1,30,1624845156.0,32.000000
-57,1,29,1624845156.0,32.000000
-58,2,30,1624845156.0,32.000000
-58,1,29,1624845156.0,32.000000
-57,1,29,1624845156.0,32.000000
-56,1,30,1624845156.0,32.000000
-58,1,30,1624845156.0,32.000000
-58,2,29,1624845156.0,32.000000
-57,2,30,1624845156.0,32.000000
-61,0,27,1624845156.0,32.000000
-61,0,26,1624845156.0,32.000000
-56,1,31,1624845156.0,32.000000
-56,1,32,1624845156.0,32.000000
-57,1,29,1624845156.0,32.000000
-59,1,28,1624845156.0,32.000000
-59,0,26,1624845156.0,32.000000
-58,1,29,1624845156.0,32.000000
-59,0,27,1624845156.0,32.000000
-59,0,26,1624845156.0,32.000000
-58,1,29,1624845156.0,32.000000
-58,0,29,1624845156.0,32.000000
-57,1,30,1624845156.0,32.000000
-56,1,31,1624845156.0,32.000000
-56,2,31,1624845156.0,32.000000
-57,1,30,1624845156.0,32.000000
-58,1,29,1624845156.0,32.000000
-57,1,31,1624845156.0,32.000000
-57,1,31,1624845156.0,32.000000
-57,1,30,1624845156.0,32.000000
-58,1,29,1624845156.0,32.000000
-57,1,30,1624845156.0,32.000000
-57,1,30,1624845156.0,32.000000
-57,1,30,1624845156.0,32.000000
-58,1,29,1624845156.0,32.000000
-57,1,31,1624845156.0,32.000000
-57,1,30,1624845156.0,32.000000
-57,1,30,1624845156.0,32.000000
-57,1,30,1624845156.0,32.000000
-57,1,31,1624845156.0,32.000000
-57,1,30,1624845156.0,32.000000
-58,1,30,1624845156.0,32.000000
-57,1,30,1624845156.0,32.000000
-58,1,30,1624845156.0,32.000000
-57,1,30,1624845156.0,32.000000
-57,1,31,1624845156.0,32.000000
-58,1,30,1624845156.0,32.000000
-57,1,30,1624845156.0,32.000000
-57,1,31,1624845156.0,32.000000
-57,1,30,1624845156.0,32.000000
-57,1,30,1624845156.0,32.000000
-57,1,30,1624845156.0,32.000000
-57,1,30,1624845156.0,32.000000
-57,1,30,1624845156.0,32.000000
-57,1,30,1624845156.0,32.000000
-57,1,30,1624845156.0,32.000000
-57,1,30,1624845156.0,32.000000
-57,1,30,1624845156.0,32.000000
-57,1,30,1624845156.0,32.000000
-57,1,31,1624845156.0,32.000000
-57,1,30,1624845156.0,32.000000
-57,1,30,1624845156.0,32.000000
-57,1,30,1624845156.0,32.000000
-57,1,30,1624845156.0,32.000000
-57,1,30,1624845156.0,32.000000
-57,1,30,1624845156.0,32.000000
-57,1,30,1624845156.0,32.000000
-57,1,30,1624845156.0,32.000000
-57,1,30,1624845156.0,32.000000
-57,1,30,1624845156.0,32.000000
-57,1,31,1624845156.0,32.000000
-57,1,31,1624845156.0,32.000000
-57,1,30,1624845156.0,32.000000
-57,1,31,1624845156.0,32.000000
-57,1,31,1624845156.0,32.000000
-57,1,30,1624845156.0,32.000000
-57,1,30,1624845156.0,32.000000
-57,1,30,1624845156.0,32.000000
-57,1,30,1624845156.0,32.000000
-57,1,30,1624845156.0,32.000000
-57,1,30,1624845156.0,32.000000
-57,1,30,1624845156.0,32.000000
-58,1,29,1624845156.0,32.000000
-58,1,30,1624845156.0,32.000000
-57,1,29,1624845156.0,32.000000
-57,1,29,1624845156.0,32.000000
-57,1,30,1624845156.0,32.000000
-57,1,30,1624845156.0,32.000000
-57,1,30,1624845156.0,32.000000
-57,1,30,1624845156.0,32.000000
-57,1,30,1624845156.0,32.000000
-57,1,31,1624845156.0,32.000000
-57,1,31,1624845156.0,32.000000
-57,1,30,1624845156.0,32.000000
-57,1,30,1624845156.0,32.000000
-57,1,30,1624845156.0,32.000000
-57,1,31,1624845156.0,32.000000
-57,1,31,1624845156.0,32.000000
-57,1,31,1624845156.0,32.000000
-57,1,31,1624845156.0,32.000000
-57,1,31,1624845156.0,32.000000
-58,1,30,1624845156.0,32.000000
-57,1,30,1624845156.0,32.000000
-57,1,31,1624845156.0,32.000000
-58,1,31,1624845156.0,32.000000
-57,2,31,1624845156.0,32.000000
-57,1,31,1624845156.0,32.000000
-56,2,34,1624845156.0,32.000000
-56,2,34,1624845156.0,32.000000
-56,-1,32,1624845156.0,32.000000
-58,1,33,1624845156.0,32.000000
-60,2,33,1624845156.0,32.000000
-55,0,33,1624845156.0,32.000000
-55,-2,29,1624845156.0,32.000000
-60,0,30,1624845156.0,32.000000
-62,3,36,1624845156.0,32.000000
-58,-1,34,1624845156.0,32.000000
-56,1,31,1624845156.0,32.000000
-59,1,35,1624845156.0,32.000000
-55,0,37,1624845156.0,32.000000
-54,-2,33,1624845156.0,32.000000
-57,-2,33,1624845156.0,32.000000
-48,-2,40,1624845156.0,32.000000
-45,-5,40,1624845156.0,32.000000
-48,-3,36,1624845156.0,32.000000
-52,-5,38,1624845156.0,32.000000
-49,-7,34,1624845156.0,32.000000
-49,-8,33,1624845156.0,32.000000
-50,-9,37,1624845156.0,32.000000
-49,-9,34,1624845156.0,32.000000
-49,-11,29,1624845156.0,32.000000
-51,-13,31,1624845156.0,32.000000
-55,-15,29,1624845156.0,32.000000
-51,-17,33,1624845156.0,32.000000
-49,-15,38,1624845156.0,32.000000
-52,-16,37,1624845156.0,32.000000
-56,-18,33,1624845156.0,32.000000
-58,-20,33,1624845156.0,32.000000
-55,-23,37,1624845156.0,32.000000
-49,-24,39,1624845156.0,32.000000
-42,-22,45,1624845156.0,32.000000
-45,-21,37,1624845156.0,32.000000
-48,-20,36,1624845156.0,32.000000
-45,-16,47,1624845156.0,32.000000
-39,-15,43,1624845156.0,32.000000
-55,-13,41,1624845156.0,32.000000
-58,-9,50,1624845156.0,32.000000
-41,-7,47,1624845156.0,32.000000
-43,-10,40,1624845156.0,32.000000
-44,4,49,1624845156.0,32.000000
-37,1,50,1624845156.0,32.000000
-40,-3,47,1624845156.0,32.000000
-45,-6,45,1624845156.0,32.000000
-30,-8,56,1624845156.0,32.000000
-32,-7,54,1624845156.0,32.000000
-46,-11,39,1624845156.0,32.000000
-34,-9,48,1624845156.0,32.000000
-32,-11,52,1624845156.0,32.000000
-31,-17,51,1624845156.0,32.000000
-39,-17,45,1624845156.0,32.000000
-54,-18,40,1624845156.0,32.000000
-49,-15,39,1624845156.0,32.000000
-32,-9,39,1624845156.0,32.000000
-38,0,44,1624845156.0,32.000000
-56,-8,57,1624845156.0,32.000000
-45,-11,52,1624845156.0,32.000000
-41,-4,44,1624845156.0,32.000000
-65,-5,37,1624845156.0,32.000000
-57,-7,36,1624845156.0,32.000000
-42,-8,37,1624845156.0,32.000000
-56,-13,29,1624845156.0,32.000000
-59,-12,26,1624845156.0,32.000000
-49,-11,13,1624845156.0,32.000000
-59,-12,4,1624845156.0,32.000000
-63,-13,5,1624845156.0,32.000000
-58,-10,5,1624845156.0,32.000000
-66,-9,-7,1624845156.0,32.000000
-80,-13,-12,1624845156.0,32.000000
-58,-12,-9,1624845156.0,32.000000
-61,-11,-16,1624845156.0,32.000000
-68,-11,-22,1624845156.0,32.000000
-62,-13,-27,1624845156.0,32.000000
-59,-13,-33,1624845156.0,32.000000
-64,-13,-35,1624845156.0,32.000000
-53,-17,-37,1624845156.0,32.000000
-51,-17,-38,1624845156.0,32.000000
-51,-18,-34,1624845156.0,32.000000
-50,-18,-32,1624845156.0,32.000000
-48,-19,-34,1624845156.0,32.000000
-54,-19,-37,1624845156.0,32.000000
-50,-20,-31,1624845156.0,32.000000
-54,-18,-30,1624845156.0,32.000000
-57,-18,-32,1624845156.0,32.000000
-59,-19,-36,1624845156.0,32.000000
-49,-19,-32,1624845156.0,32.000000
-43,-19,-25,1624845156.0,32.000000
-53,-22,-31,1624845156.0,32.000000
-58,-22,-30,1624845156.0,32.000000
-49,-22,-15,1624845156.0,32.000000
-55,-25,-7,1624845156.0,32.000000
-70,-25,-15,1624845156.0,32.000000
-64,-22,-5,1624845156.0,32.000000
-53,-24,7,1624845156.0,32.000000
-52,-24,24,1624845156.0,32.000000
-53,-24,24,1624845156.0,32.000000
-42,-21,32,1624845156.0,32.000000
-49,-20,30,1624845156.0,32.000000
-57,-23,26,1624845156.0,32.000000
-55,-22,28,1624845156.0,32.000000
-58,-22,18,1624845156.0,32.000000
-57,-22,18,1624845156.0,32.000000
-66,-26,9,1624845156.0,32.000000
-62,-25,11,1624845156.0,32.000000
-60,-24,10,1624845156.0,32.000000
-64,-25,11,1624845156.0,32.000000
-64,-22,11,1624845156.0,32.000000
-58,-17,10,1624845156.0,32.000000
-61,-21,6,1624845156.0,32.000000
-65,-18,0,1624845156.0,32.000000
-65,-21,-4,1624845156.0,32.000000
-62,-20,-11,1624845156.0,32.000000
-64,-21,-10,1624845156.0,32.000000
-61,-18,-7,1624845156.0,32.000000
-58,-17,-2,1624845156.0,32.000000
-66,-21,-10,1624845156.0,32.000000
-65,-21,-11,1624845156.0,32.000000
-59,-21,4,1624845156.0,32.000000
-57,-22,8,1624845156.0,32.000000
-60,-25,1,1624845156.0,32.000000
-57,-24,-1,1624845156.0,32.000000
-59,-21,4,1624845156.0,32.000000
-62,-20,7,1624845156.0,32.000000
-63,-21,11,1624845156.0,32.000000
-60,-21,11,1624845156.0,32.000000
-66,-23,5,1624845156.0,32.000000
-63,-26,6,1624845156.0,32.000000
-54,-26,3,1624845156.0,32.000000
-60,-27,0,1624845156.0,32.000000
-58,-24,7,1624845156.0,32.000000
-54,-26,6,1624845156.0,32.000000
-60,-26,0,1624845156.0,32.000000
-52,-23,14,1624845156.0,32.000000
-54,-27,19,1624845156.0,32.000000
-52,-23,32,1624845156.0,32.000000
-44,-22,41,1624845156.0,32.000000
-46,-27,29,1624845156.0,32.000000
-44,-27,26,1624845156.0,32.000000
-56,-20,26,1624845156.0,32.000000
-56,-21,23,1624845156.0,32.000000
-59,-22,13,1624845156.0,32.000000
-60,-22,7,1624845156.0,32.000000
-65,-21,-5,1624845156.0,32.000000
-66,-23,-9,1624845156.0,32.000000
-57,-24,-13,1624845156.0,32.000000
-62,-23,-15,1624845156.0,32.000000
-64,-22,-11,1624845156.0,32.000000
-56,-22,-13,1624845156.0,32.000000
-57,-21,-10,1624845156.0,32.000000
-57,-21,-6,1624845156.0,32.000000
-60,-21,-13,1624845156.0,32.000000
-61,-21,-15,1624845156.0,32.000000
-58,-21,-18,1624845156.0,32.000000
-58,-22,-20,1624845156.0,32.000000
-64,-20,-20,1624845156.0,32.000000
-61,-20,-16,1624845156.0,32.000000
-58,-20,-11,1624845156.0,32.000000
-62,-20,-13,1624845156.0,32.000000
-61,-19,-9,1624845156.0,32.000000
-62,-16,-6,1624845156.0,32.000000
-63,-20,-8,1624845156.0,32.000000
-64,-25,-13,1624845156.0,32.000000
-64,-24,-14,1624845156.0,32.000000
-72,-25,-7,1624845156.0,32.000000
-63,-26,-6,1624845156.0,32.000000
-43,-24,17,1624845156.0,32.000000
-42,-25,25,1624845156.0,32.000000
-40,-24,29,1624845156.0,32.000000
-47,-18,41,1624845156.0,32.000000
-50,-23,32,1624845156.0,32.000000
-48,-26,29,1624845156.0,32.000000
-58,-22,24,1624845156.0,32.000000
-55,-21,30,1624845156.0,32.000000
-47,-21,39,1624845156.0,32.000000
-46,-22,36,1624845156.0,32.000000
-48,-22,33,1624845156.0,32.000000
-60,-21,28,1624845156.0,32.000000
-57,-24,16,1624845156.0,32.000000
-54,-24,8,1624845156.0,32.000000
-66,-22,-3,1624845156.0,32.000000
-58,-24,-1,1624845156.0,32.000000
-52,-23,-11,1624845156.0,32.000000
-65,-20,-18,1624845156.0,32.000000
-64,-19,-24,1624845156.0,32.000000
-76,-20,-26,1624845156.0,32.000000
-69,-16,-14,1624845156.0,32.000000
-61,-21,-5,1624845156.0,32.000000
-60,-18,8,1624845156.0,32.000000
-55,-21,23,1624845156.0,32.000000
-49,-19,20,1624845156.0,32.000000
-67,-19,3,1624845156.0,32.000000
-71,-21,-3,1624845156.0,32.000000
-65,-26,-5,1624845156.0,32.000000
-62,-26,-5,1624845156.0,32.000000
-58,-18,17,1624845156.0,32.000000
-49,-16,33,1624845156.0,32.000000
-36,-17,46,1624845156.0,32.000000
-47,-20,30,1624845156.0,32.000000
-62,-22,29,1624845156.0,32.000000
-53,-24,29,1624845156.0,32.000000
-48,-20,27,1624845156.0,32.000000
-59,-21,23,1624845156.0,32.000000
-57,-17,7,1624845156.0,32.000000
-59,-10,-1,1624845156.0,32.000000
-85,-6,9,1624845156.0,32.000000
-76,-5,10,1624845156.0,32.000000
-41,-7,-4,1624845156.0,32.000000
-61,-2,-15,1624845156.0,32.000000
-80,-10,-9,1624845156.0,32.000000
-56,-10,18,1624845156.0,32.000000
-44,-11,20,1624845156.0,32.000000
-81,-7,-7,1624845156.0,32.000000
-78,-2,1,1624845156.0,32.000000
-46,-4,22,1624845156.0,32.000000
-35,-7,26,1624845156.0,32.000000
-77,8,20,1624845156.0,32.000000
-82,1,30,1624845156.0,32.000000
-30,-3,66,1624845156.0,32.000000
-36,-5,53,1624845156.0,32.000000
-59,2,35,1624845156.0,32.000000
-60,4,35,1624845156.0,32.000000
-49,-1,44,1624845156.0,32.000000
-46,-2,48,1624845156.0,32.000000
-41,-1,50,1624845156.0,32.000000
-48,-2,45,1624845156.0,32.000000
-47,-6,46,1624845156.0,32.000000
-49,-4,47,1624845156.0,32.000000
-50,-6,49,1624845156.0,32.000000
-47,-9,47,1624845156.0,32.000000
-39,-8,50,1624845156.0,32.000000
-34,-9,51,1624845156.0,32.000000
-45,-8,48,1624845156.0,32.000000
-42,-8,52,1624845156.0,32.000000
-31,-10,57,1624845156.0,32.000000
-38,-12,57,1624845156.0,32.000000
-40,-11,55,1624845156.0,32.000000
-32,-18,45,1624845156.0,32.000000
-29,-19,43,1624845156.0,32.000000
-30,-21,53,1624845156.0,32.000000
-23,-22,46,1624845156.0,32.000000
-30,-21,32,1624845156.0,32.000000
-48,-16,30,1624845156.0,32.000000
-40,-12,32,1624845156.0,32.000000
-41,-11,33,1624845156.0,32.000000
-77,-1,43,1624845156.0,32.000000
-61,-1,45,1624845156.0,32.000000
-41,7,26,1624845156.0,32.000000
-47,10,32,1624845156.0,32.000000
-63,6,24,1624845156.0,32.000000
-58,2,13,1624845156.0,32.000000
-58,3,11,1624845156.0,32.000000
-60,1,20,1624845156.0,32.000000
-78,1,28,1624845156.0,32.000000
-101,-3,51,1624845156.0,32.000000
-49,-13,14,1624845156.0,32.000000
-57,-5,9,1624845156.0,32.000000
-74,2,10,1624845156.0,32.000000
-62,1,13,1624845156.0,32.000000
-64,1,13,1624845156.0,32.000000
-62,0,15,1624845156.0,32.000000
-63,0,15,1624845156.0,32.000000
-63,-1,16,1624845156.0,32.000000
-63,0,16,1624845156.0,32.000000
-63,0,17,1624845156.0,32.000000
-63,1,16,1624845156.0,32.000000
-62,0,16,1624845156.0,32.000000
-63,0,16,1624845156.0,32.000000
-64,-1,15,1624845156.0,32.000000
-62,0,16,1624845156.0,32.000000
-62,0,16,1624845156.0,32.000000
-63,0,16,1624845156.0,32.000000
-63,0,16,1624845156.0,32.000000
-62,0,17,1624845156.0,32.000000
-63,0,16,1624845156.0,32.000000
-63,0,16,1624845156.0,32.000000
-62,0,17,1624845156.0,32.000000
-62,0,17,1624845156.0,32.000000
-62,0,16,1624845156.0,32.000000
-63,0,16,1624845156.0,32.000000
-63,0,16,1624845156.0,32.000000
-63,0,16,1624845156.0,32.000000
-62,0,16,1624845156.0,32.000000
-62,0,16,1624845156.0,32.000000
-63,0,16,1624845156.0,32.000000
-63,0,17,1624845156.0,32.000000
-62,0,17,1624845156.0,32.000000
-62,0,17,1624845156.0,32.000000
-62,0,17,1624845156.0,32.000000
-62,0,17,1624845156.0,32.000000
-62,0,17,1624845156.0,32.000000
-62,0,17,1624845156.0,32.000000
-62,0,17,1624845156.0,32.000000
-62,0,17,1624845156.0,32.000000
-62,0,17,1624845156.0,32.000000
-62,0,17,1624845156.0,32.000000
-63,0,17,1624845156.0,32.000000
-62,0,17,1624845156.0,32.000000
-62,0,17,1624845156.0,32.000000
-62,0,17,1624845156.0,32.000000
-62,0,17,1624845156.0,32.000000
-63,0,16,1624845156.0,32.000000
-63,0,16,1624845156.0,32.000000
-62,0,17,1624845156.0,32.000000
-63,0,17,1624845156.0,32.000000
-62,0,17,1624845156.0,32.000000
-62,0,17,1624845156.0,32.000000
-63,0,16,1624845156.0,32.000000
-62,0,16,1624845156.0,32.000000
-63,0,17,1624845156.0,32.000000
-63,0,17,1624845156.0,32.000000
-62,0,17,1624845156.0,32.000000
-63,0,16,1624845156.0,32.000000
-62,0,17,1624845156.0,32.000000
-62,0,17,1624845156.0,32.000000
