ACC_X,ACC_Y,ACC_Z,start_time_unix,sampling_rate
-35,22,47,1624845158.0,32.000000
-35,27,37,1624845158.0,32.000000
-40,27,40,1624845158.0,32.000000
-41,27,40,1624845158.0,32.000000
-28,31,40,1624845158.0,32.000000
-28,32,36,1624845158.0,32.000000
-25,28,41,1624845158.0,32.000000
-44,23,41,1624845158.0,32.000000
-52,20,42,1624845158.0,32.000000
-47,13,48,1624845158.0,32.000000
-45,9,47,1624845158.0,32.000000
-56,10,35,1624845158.0,32.000000
-53,12,41,1624845158.0,32.000000
-45,14,46,1624845158.0,32.000000
-43,21,39,1624845158.0,32.000000
-43,24,29,1624845158.0,32.000000
-41,23,27,1624845158.0,32.000000
-29,18,23,1624845158.0,32.000000
-47,15,26,1624845158.0,32.000000
-62,46,55,1624845158.0,32.000000
-24,21,48,1624845158.0,32.000000
-47,28,56,1624845158.0,32.000000
-41,19,46,1624845158.0,32.000000
-43,18,46,1624845158.0,32.000000
-48,17,42,1624845158.0,32.000000
-50,17,41,1624845158.0,32.000000
-46,17,44,1624845158.0,32.000000
-46,19,44,1624845158.0,32.000000
-47,18,45,1624845158.0,32.000000
-46,21,42,1624845158.0,32.000000
-50,21,40,1624845158.0,32.000000
-46,22,42,1624845158.0,32.000000
-49,22,43,1624845158.0,32.000000
-46,21,41,1624845158.0,32.000000
-47,21,42,1624845158.0,32.000000
-45,22,45,1624845158.0,32.000000
-46,21,46,1624845158.0,32.000000
-51,23,41,1624845158.0,32.000000
-48,25,44,1624845158.0,32.000000
-46,20,47,1624845158.0,32.000000
-41,21,44,1624845158.0,32.000000
-42,20,48,1624845158.0,32.000000
-41,19,46,1624845158.0,32.000000
-48,20,42,1624845158.0,32.000000
-49,21,43,1624845158.0,32.000000
-47,20,44,1624845158.0,32.000000
-41,20,49,1624845158.0,32.000000
-34,17,49,1624845158.0,32.000000
-34,17,46,1624845158.0,32.000000
-32,11,50,1624845158.0,32.000000
-34,4,52,1624845158.0,32.000000
-35,2,48,1624845158.0,32.000000
-35,0,39,1624845158.0,32.000000
-40,-10,61,1624845158.0,32.000000
-35,-1,50,1624845158.0,32.000000
-31,1,47,1624845158.0,32.000000
-43,7,52,1624845158.0,32.000000
-36,14,59,1624845158.0,32.000000
-22,19,60,1624845158.0,32.000000
-40,20,53,1624845158.0,32.000000
-33,11,56,1624845158.0,32.000000
-40,9,52,1624845158.0,32.000000
-39,7,49,1624845158.0,32.000000
-36,7,50,1624845158.0,32.000000
-40,9,52,1624845158.0,32.000000
-38,9,51,1624845158.0,32.000000
-36,9,53,1624845158.0,32.000000
-38,10,53,1624845158.0,32.000000
-39,11,52,1624845158.0,32.000000
-39,10,52,1624845158.0,32.000000
-38,9,51,1624845158.0,32.000000
-38,10,52,1624845158.0,32.000000
-40,11,52,1624845158.0,32.000000
-39,10,51,1624845158.0,32.000000
-39,9,50,1624845158.0,32.000000
-39,10,51,1624845158.0,32.000000
-40,10,52,1624845158.0,32.000000
-39,11,51,1624845158.0,32.000000
-39,10,51,1624845158.0,32.000000
-39,11,51,1624845158.0,32.000000
-39,10,52,1624845158.0,32.000000
-38,11,53,1624845158.0,32.000000
-38,9,51,1624845158.0,32.000000
-39,10,51,1624845158.0,32.000000
-41,14,53,1624845158.0,32.000000
-40,14,52,1624845158.0,32.000000
-39,10,53,1624845158.0,32.000000
-37,7,53,1624845158.0,32.000000
-36,11,57,1624845158.0,32.000000
-37,10,51,1624845158.0,32.000000
-35,10,48,1624845158.0,32.000000
-34,10,50,1624845158.0,32.000000
-36,6,56,1624845158.0,32.000000
-35,6,57,1624845158.0,32.000000
-33,7,53,1624845158.0,32.000000
-38,6,52,1624845158.0,32.000000
-39,6,55,1624845158.0,32.000000
-39,8,51,1624845158.0,32.000000
-37,5,57,1624845158.0,32.000000
-41,4,53,1624845158.0,32.000000
-37,4,49,1624845158.0,32.000000
-41,3,48,1624845158.0,32.000000
-39,3,57,1624845158.0,32.000000
-39,4,53,1624845158.0,32.000000
-42,4,45,1624845158.0,32.000000
-44,5,50,1624845158.0,32.000000
-42,4,51,1624845158.0,32.000000
-41,2,49,1624845158.0,32.000000
-42,1,53,1624845158.0,32.000000
-39,4,53,1624845158.0,32.000000
-41,3,52,1624845158.0,32.000000
-48,4,48,1624845158.0,32.000000
-48,3,48,1624845158.0,32.000000
-48,2,49,1624845158.0,32.000000
-43,0,52,1624845158.0,32.000000
-40,-3,49,1624845158.0,32.000000
-43,0,45,1624845158.0,32.000000
-41,0,50,1624845158.0,32.000000
-41,-2,53,1624845158.0,32.000000
-40,0,52,1624845158.0,32.000000
-41,1,50,1624845158.0,32.000000
-41,2,48,1624845158.0,32.000000
-37,0,54,1624845158.0,32.000000
-37,1,56,1624845158.0,32.000000
-42,2,51,1624845158.0,32.000000
-44,5,52,1624845158.0,32.000000
-40,6,51,1624845158.0,32.000000
-42,7,49,1624845158.0,32.000000
-44,6,54,1624845158.0,32.000000
-33,9,61,1624845158.0,32.000000
-36,12,54,1624845158.0,32.000000
-43,13,51,1624845158.0,32.000000
-42,14,41,1624845158.0,32.000000
-49,15,35,1624845158.0,32.000000
-42,16,41,1624845158.0,32.000000
-39,16,47,1624845158.0,32.000000
-39,17,44,1624845158.0,32.000000
-44,15,48,1624845158.0,32.000000
-47,14,51,1624845158.0,32.000000
-39,12,45,1624845158.0,32.000000
-59,12,40,1624845158.0,32.000000
-54,13,45,1624845158.0,32.000000
-43,9,43,1624845158.0,32.000000
-52,11,47,1624845158.0,32.000000
-48,17,51,1624845158.0,32.000000
-34,18,54,1624845158.0,32.000000
-28,17,56,1624845158.0,32.000000
-32,11,57,1624845158.0,32.000000
-28,7,54,1624845158.0,32.000000
-30,5,52,1624845158.0,32.000000
-33,-2,55,1624845158.0,32.000000
-34,-2,56,1624845158.0,32.000000
-39,-1,55,1624845158.0,32.000000
-35,4,54,1624845158.0,32.000000
-38,6,56,1624845158.0,32.000000
-41,12,57,1624845158.0,32.000000
-36,13,52,1624845158.0,32.000000
-51,10,45,1624845158.0,32.000000
-46,9,40,1624845158.0,32.000000
-44,12,42,1624845158.0,32.000000
-52,6,50,1624845158.0,32.000000
-48,6,48,1624845158.0,32.000000
-48,6,47,1624845158.0,32.000000
-47,7,46,1624845158.0,32.000000
-49,7,46,1624845158.0,32.000000
-47,7,44,1624845158.0,32.000000
-42,9,44,1624845158.0,32.000000
-54,8,43,1624845158.0,32.000000
-49,10,42,1624845158.0,32.000000
-47,10,42,1624845158.0,32.000000
-45,11,42,1624845158.0,32.000000
-43,12,44,1624845158.0,32.000000
-44,10,48,1624845158.0,32.000000
-41,10,49,1624845158.0,32.000000
-42,11,48,1624845158.0,32.000000
-41,9,55,1624845158.0,32.000000
-34,10,53,1624845158.0,32.000000
-50,9,49,1624845158.0,32.000000
-26,7,55,1624845158.0,32.000000
-31,1,54,1624845158.0,32.000000
-39,3,51,1624845158.0,32.000000
-51,4,41,1624845158.0,32.000000
-65,10,37,1624845158.0,32.000000
-35,8,39,1624845158.0,32.000000
-39,15,46,1624845158.0,32.000000
-43,7,60,1624845158.0,32.000000
-47,3,52,1624845158.0,32.000000
-52,5,41,1624845158.0,32.000000
-50,8,43,1624845158.0,32.000000
-48,7,45,1624845158.0,32.000000
-46,8,47,1624845158.0,32.000000
-49,7,46,1624845158.0,32.000000
-46,7,44,1624845158.0,32.000000
-47,8,46,1624845158.0,32.000000
-48,7,47,1624845158.0,32.000000
-44,7,46,1624845158.0,32.000000
-44,7,45,1624845158.0,32.000000
-47,8,47,1624845158.0,32.000000
-46,8,47,1624845158.0,32.000000
-44,8,47,1624845158.0,32.000000
-45,8,46,1624845158.0,32.000000
-45,8,47,1624845158.0,32.000000
-44,8,48,1624845158.0,32.000000
-43,7,47,1624845158.0,32.000000
-45,7,47,1624845158.0,32.000000
-45,8,47,1624845158.0,32.000000
-44,8,47,1624845158.0,32.000000
-46,8,47,1624845158.0,32.000000
-45,7,47,1624845158.0,32.000000
-45,7,46,1624845158.0,32.000000
-48,7,45,1624845158.0,32.000000
-48,6,46,1624845158.0,32.000000
-46,6,46,1624845158.0,32.000000
-48,9,44,1624845158.0,32.000000
-50,7,44,1624845158.0,32.000000
-47,6,46,1624845158.0,32.000000
-47,6,45,1624845158.0,32.000000
-50,5,45,1624845158.0,32.000000
-49,6,44,1624845158.0,32.000000
-49,6,44,1624845158.0,32.000000
-49,6,43,1624845158.0,32.000000
-48,6,44,1624845158.0,32.000000
-48,6,45,1624845158.0,32.000000
-48,7,44,1624845158.0,32.000000
-49,7,44,1624845158.0,32.000000
-49,7,44,1624845158.0,32.000000
-48,7,44,1624845158.0,32.000000
-48,7,44,1624845158.0,32.000000
-45,7,45,1624845158.0,32.000000
-46,7,47,1624845158.0,32.000000
-51,6,43,1624845158.0,32.000000
-52,6,42,1624845158.0,32.000000
-51,8,41,1624845158.0,32.000000
-48,7,45,1624845158.0,32.000000
-48,7,45,1624845158.0,32.000000
-47,7,45,1624845158.0,32.000000
-48,7,44,1624845158.0,32.000000
-47,7,46,1624845158.0,32.000000
-46,7,46,1624845158.0,32.000000
-46,7,46,1624845158.0,32.000000
-46,7,46,1624845158.0,32.000000
-47,7,46,1624845158.0,32.000000
-47,7,46,1624845158.0,32.000000
-46,7,46,1624845158.0,32.000000
-46,7,46,1624845158.0,32.000000
-47,7,46,1624845158.0,32.000000
-47,7,46,1624845158.0,32.000000
-47,7,46,1624845158.0,32.000000
-47,7,46,1624845158.0,32.000000
-47,7,46,1624845158.0,32.000000
-47,7,46,1624845158.0,32.000000
-47,7,45,1624845158.0,32.000000
-47,7,46,1624845158.0,32.000000
-47,7,45,1624845158.0,32.000000
-47,7,46,1624845158.0,32.000000
-47,7,46,1624845158.0,32.000000
-47,7,46,1624845158.0,32.000000
-47,7,46,1624845158.0,32.000000
-47,7,46,1624845158.0,32.000000
-48,7,45,1624845158.0,32.000000
-47,7,45,1624845158.0,32.000000
-48,7,45,1624845158.0,32.000000
-48,7,46,1624845158.0,32.000000
-47,7,45,1624845158.0,32.000000
-47,7,45,1624845158.0,32.000000
-48,7,45,1624845158.0,32.000000
-48,7,45,1624845158.0,32.000000
-48,7,45,1624845158.0,32.000000
-48,7,45,1624845158.0,32.000000
-47,7,45,1624845158.0,32.000000
-48,7,45,1624845158.0,32.000000
-48,7,44,1624845158.0,32.000000
-48,7,44,1624845158.0,32.000000
-47,7,45,1624845158.0,32.000000
-47,7,45,1624845158.0,32.000000
-48,7,45,1624845158.0,32.000000
-47,7,45,1624845158.0,32.000000
-48,7,45,1624845158.0,32.000000
-47,7,45,1624845158.0,32.000000
-48,7,45,1624845158.0,32.000000
-48,7,45,1624845158.0,32.000000
-47,7,45,1624845158.0,32.000000
-47,7,45,1624845158.0,32.000000
-48,7,45,1624845158.0,32.000000
-47,7,45,1624845158.0,32.000000
-48,7,45,1624845158.0,32.000000
-48,7,45,1624845158.0,32.000000
-47,7,45,1624845158.0,32.000000
-47,6,46,1624845158.0,32.000000
-47,7,45,1624845158.0,32.000000
-48,7,45,1624845158.0,32.000000
-48,7,45,1624845158.0,32.000000
-48,7,45,1624845158.0,32.000000
-47,7,45,1624845158.0,32.000000
-47,7,45,1624845158.0,32.000000
-48,7,45,1624845158.0,32.000000
-47,7,45,1624845158.0,32.000000
-47,7,45,1624845158.0,32.000000
-48,7,45,1624845158.0,32.000000
-48,7,45,1624845158.0,32.000000
-48,7,45,1624845158.0,32.000000
-47,7,45,1624845158.0,32.000000
-48,7,45,1624845158.0,32.000000
-48,7,45,1624845158.0,32.000000
-48,7,45,1624845158.0,32.000000
-47,7,45,1624845158.0,32.000000
-48,7,45,1624845158.0,32.000000
-48,7,44,1624845158.0,32.000000
-47,7,45,1624845158.0,32.000000
-47,7,45,1624845158.0,32.000000
-49,7,44,1624845158.0,32.000000
-49,7,44,1624845158.0,32.000000
-49,7,44,1624845158.0,32.000000
-49,6,44,1624845158.0,32.000000
-48,6,44,1624845158.0,32.000000
-49,6,45,1624845158.0,32.000000
-49,7,44,1624845158.0,32.000000
-49,7,44,1624845158.0,32.000000
-48,7,44,1624845158.0,32.000000
-48,7,45,1624845158.0,32.000000
-48,7,45,1624845158.0,32.000000
-48,7,45,1624845158.0,32.000000
-47,7,45,1624845158.0,32.000000
-48,7,45,1624845158.0,32.000000
-48,7,45,1624845158.0,32.000000
-48,7,45,1624845158.0,32.000000
-48,7,45,1624845158.0,32.000000
-48,7,45,1624845158.0,32.000000
-47,7,46,1624845158.0,32.000000
-47,7,46,1624845158.0,32.000000
-47,7,45,1624845158.0,32.000000
-47,7,45,1624845158.0,32.000000
-47,7,45,1624845158.0,32.000000
-47,7,46,1624845158.0,32.000000
-47,7,45,1624845158.0,32.000000
-48,6,45,1624845158.0,32.000000
-47,7,45,1624845158.0,32.000000
-48,7,45,1624845158.0,32.000000
-47,7,45,1624845158.0,32.000000
-48,7,46,1624845158.0,32.000000
-47,7,45,1624845158.0,32.000000
-47,7,45,1624845158.0,32.000000
-47,7,46,1624845158.0,32.000000
-48,7,45,1624845158.0,32.000000
-48,6,46,1624845158.0,32.000000
-48,7,45,1624845158.0,32.000000
-48,7,45,1624845158.0,32.000000
-48,7,45,1624845158.0,32.000000
-48,7,45,1624845158.0,32.000000
-48,7,45,1624845158.0,32.000000
-48,6,45,1624845158.0,32.000000
-48,7,45,1624845158.0,32.000000
-48,7,45,1624845158.0,32.000000
-48,6,44,1624845158.0,32.000000
-48,7,45,1624845158.0,32.000000
-48,7,45,1624845158.0,32.000000
-48,7,44,1624845158.0,32.000000
-48,7,44,1624845158.0,32.000000
-48,7,45,1624845158.0,32.000000
-48,7,46,1624845158.0,32.000000
-47,7,46,1624845158.0,32.000000
-49,7,45,1624845158.0,32.000000
-47,6,47,1624845158.0,32.000000
-47,8,45,1624845158.0,32.000000
-50,6,45,1624845158.0,32.000000
-54,4,43,1624845158.0,32.000000
-50,7,40,1624845158.0,32.000000
-51,7,42,1624845158.0,32.000000
-46,9,39,1624845158.0,32.000000
-56,5,44,1624845158.0,32.000000
-52,3,46,1624845158.0,32.000000
-47,6,40,1624845158.0,32.000000
-49,9,39,1624845158.0,32.000000
-60,6,38,1624845158.0,32.000000
-51,6,41,1624845158.0,32.000000
-51,6,39,1624845158.0,32.000000
-56,4,38,1624845158.0,32.000000
-55,6,35,1624845158.0,32.000000
-43,4,44,1624845158.0,32.000000
-58,6,39,1624845158.0,32.000000
-54,5,38,1624845158.0,32.000000
-52,6,38,1624845158.0,32.000000
-58,6,36,1624845158.0,32.000000
-53,6,37,1624845158.0,32.000000
-51,5,40,1624845158.0,32.000000
-51,5,40,1624845158.0,32.000000
-52,6,41,1624845158.0,32.000000
-52,6,41,1624845158.0,32.000000
-49,4,43,1624845158.0,32.000000
-51,6,41,1624845158.0,32.000000
-51,6,40,1624845158.0,32.000000
-53,5,40,1624845158.0,32.000000
-55,5,39,1624845158.0,32.000000
-53,5,39,1624845158.0,32.000000
-52,5,41,1624845158.0,32.000000
-51,5,40,1624845158.0,32.000000
-53,5,39,1624845158.0,32.000000
-53,5,39,1624845158.0,32.000000
-53,5,40,1624845158.0,32.000000
-53,5,39,1624845158.0,32.000000
-53,5,39,1624845158.0,32.000000
-53,5,39,1624845158.0,32.000000
-53,5,40,1624845158.0,32.000000
-53,6,39,1624845158.0,32.000000
-53,6,39,1624845158.0,32.000000
-53,5,39,1624845158.0,32.000000
-53,6,39,1624845158.0,32.000000
-53,6,39,1624845158.0,32.000000
-53,6,39,1624845158.0,32.000000
-53,5,39,1624845158.0,32.000000
-53,5,39,1624845158.0,32.000000
-53,6,39,1624845158.0,32.000000
-53,6,39,1624845158.0,32.000000
-53,6,39,1624845158.0,32.000000
-53,6,40,1624845158.0,32.000000
-53,6,39,1624845158.0,32.000000
-53,5,39,1624845158.0,32.000000
-53,6,39,1624845158.0,32.000000
-53,6,40,1624845158.0,32.000000
-53,5,39,1624845158.0,32.000000
-53,5,40,1624845158.0,32.000000
-53,5,39,1624845158.0,32.000000
-53,5,39,1624845158.0,32.000000
-53,6,40,1624845158.0,32.000000
-53,6,39,1624845158.0,32.000000
-53,5,39,1624845158.0,32.000000
-53,5,40,1624845158.0,32.000000
-53,6,40,1624845158.0,32.000000
-53,5,39,1624845158.0,32.000000
-53,6,39,1624845158.0,32.000000
-53,6,39,1624845158.0,32.000000
-52,6,40,1624845158.0,32.000000
-53,6,39,1624845158.0,32.000000
-53,6,39,1624845158.0,32.000000
-53,6,40,1624845158.0,32.000000
-53,6,40,1624845158.0,32.000000
-53,6,39,1624845158.0,32.000000
-53,6,39,1624845158.0,32.000000
-53,6,39,1624845158.0,32.000000
-53,5,39,1624845158.0,32.000000
-52,6,40,1624845158.0,32.000000
-53,6,39,1624845158.0,32.000000
-53,6,39,1624845158.0,32.000000
-53,6,39,1624845158.0,32.000000
-53,6,39,1624845158.0,32.000000
-52,6,40,1624845158.0,32.000000
-53,5,39,1624845158.0,32.000000
-53,5,39,1624845158.0,32.000000
-53,6,40,1624845158.0,32.000000
-53,6,39,1624845158.0,32.000000
-53,6,40,1624845158.0,32.000000
-52,6,40,1624845158.0,32.000000
-53,5,40,1624845158.0,32.000000
-53,6,39,1624845158.0,32.000000
-53,6,39,1624845158.0,32.000000
-53,5,40,1624845158.0,32.000000
-53,5,39,1624845158.0,32.000000
-53,6,39,1624845158.0,32.000000
-52,6,40,1624845158.0,32.000000
-53,6,39,1624845158.0,32.000000
-53,6,39,1624845158.0,32.000000
-53,6,39,1624845158.0,32.000000
-52,5,40,1624845158.0,32.000000
-53,6,40,1624845158.0,32.000000
-53,6,40,1624845158.0,32.000000
-53,6,40,1624845158.0,32.000000
-53,6,39,1624845158.0,32.000000
-53,6,40,1624845158.0,32.000000
-53,6,40,1624845158.0,32.000000
-53,6,39,1624845158.0,32.000000
-53,6,39,1624845158.0,32.000000
-53,6,39,1624845158.0,32.000000
-52,6,39,1624845158.0,32.000000
-53,6,39,1624845158.0,32.000000
-53,6,39,1624845158.0,32.000000
-53,6,40,1624845158.0,32.000000
-53,6,40,1624845158.0,32.000000
-53,5,39,1624845158.0,32.000000
-53,6,39,1624845158.0,32.000000
-53,6,39,1624845158.0,32.000000
-52,6,40,1624845158.0,32.000000
-53,6,39,1624845158.0,32.000000
-52,6,39,1624845158.0,32.000000
-52,6,39,1624845158.0,32.000000
-53,5,40,1624845158.0,32.000000
-53,6,39,1624845158.0,32.000000
-53,6,39,1624845158.0,32.000000
-53,6,39,1624845158.0,32.000000
-53,6,39,1624845158.0,32.000000
-53,6,39,1624845158.0,32.000000
-53,6,39,1624845158.0,32.000000
-53,5,39,1624845158.0,32.000000
-53,5,39,1624845158.0,32.000000
-53,6,39,1624845158.0,32.000000
-53,6,39,1624845158.0,32.000000
-53,6,39,1624845158.0,32.000000
-53,5,39,1624845158.0,32.000000
-53,6,39,1624845158.0,32.000000
-52,5,39,1624845158.0,32.000000
-53,6,39,1624845158.0,32.000000
-53,6,39,1624845158.0,32.000000
-53,6,39,1624845158.0,32.000000
-53,6,39,1624845158.0,32.000000
-53,6,40,1624845158.0,32.000000
-53,5,39,1624845158.0,32.000000
-53,6,39,1624845158.0,32.000000
-53,5,39,1624845158.0,32.000000
-53,5,39,1624845158.0,32.000000
-53,6,39,1624845158.0,32.000000
-53,6,39,1624845158.0,32.000000
-53,5,39,1624845158.0,32.000000
-53,6,39,1624845158.0,32.000000
-53,6,39,1624845158.0,32.000000
-53,6,39,1624845158.0,32.000000
-53,5,39,1624845158.0,32.000000
-53,5,39,1624845158.0,32.000000
-53,5,39,1624845158.0,32.000000
-53,5,40,1624845158.0,32.000000
-53,6,39,1624845158.0,32.000000
-53,5,39,1624845158.0,32.000000
-53,5,39,1624845158.0,32.000000
-53,5,39,1624845158.0,32.000000
-53,5,39,1624845158.0,32.000000
-53,5,39,1624845158.0,32.000000
-53,5,39,1624845158.0,32.000000
-54,5,39,1624845158.0,32.000000
-53,5,39,1624845158.0,32.000000
-53,5,39,1624845158.0,32.000000
-53,5,39,1624845158.0,32.000000
-53,5,39,1624845158.0,32.000000
-53,5,38,1624845158.0,32.000000
-53,5,38,1624845158.0,32.000000
-53,5,39,1624845158.0,32.000000
-53,5,39,1624845158.0,32.000000
-53,5,39,1624845158.0,32.000000
-53,5,39,1624845158.0,32.000000
-53,5,39,1624845158.0,32.000000
-54,5,39,1624845158.0,32.000000
-54,5,39,1624845158.0,32.000000
-54,6,38,1624845158.0,32.000000
-53,5,39,1624845158.0,32.000000
-53,5,38,1624845158.0,32.000000
-54,6,38,1624845158.0,32.000000
-54,6,38,1624845158.0,32.000000
-53,5,39,1624845158.0,32.000000
-54,5,38,1624845158.0,32.000000
-55,5,37,1624845158.0,32.000000
-54,5,38,1624845158.0,32.000000
-53,5,38,1624845158.0,32.000000
-54,5,38,1624845158.0,32.000000
-54,5,37,1624845158.0,32.000000
-54,5,37,1624845158.0,32.000000
-53,5,38,1624845158.0,32.000000
-54,5,38,1624845158.0,32.000000
-55,5,37,1624845158.0,32.000000
-54,5,37,1624845158.0,32.000000
-54,5,38,1624845158.0,32.000000
-54,5,38,1624845158.0,32.000000
-54,5,38,1624845158.0,32.000000
-54,6,38,1624845158.0,32.000000
-54,5,38,1624845158.0,32.000000
-54,5,38,1624845158.0,32.000000
-54,6,38,1624845158.0,32.000000
-53,5,39,1624845158.0,32.000000
-54,5,38,1624845158.0,32.000000
-54,5,39,1624845158.0,32.000000
-53,5,39,1624845158.0,32.000000
-53,6,39,1624845158.0,32.000000
-54,6,38,1624845158.0,32.000000
-53,6,39,1624845158.0,32.000000
-53,5,39,1624845158.0,32.000000
-54,6,38,1624845158.0,32.000000
-53,6,39,1624845158.0,32.000000
-53,5,39,1624845158.0,32.000000
-54,6,39,1624845158.0,32.000000
-54,5,38,1624845158.0,32.000000
-53,5,39,1624845158.0,32.000000
-53,5,39,1624845158.0,32.000000
-53,6,39,1624845158.0,32.000000
-53,5,39,1624845158.0,32.000000
-54,6,39,1624845158.0,32.000000
-54,5,39,1624845158.0,32.000000
-53,6,38,1624845158.0,32.000000
-54,6,39,1624845158.0,32.000000
-53,5,39,1624845158.0,32.000000
-53,6,38,1624845158.0,32.000000
-54,6,38,1624845158.0,32.000000
-54,6,38,1624845158.0,32.000000
-54,6,39,1624845158.0,32.000000
-53,5,39,1624845158.0,32.000000
-54,6,38,1624845158.0,32.000000
-54,6,38,1624845158.0,32.000000
-53,5,39,1624845158.0,32.000000
-53,5,39,1624845158.0,32.000000
-54,5,38,1624845158.0,32.000000
-53,5,39,1624845158.0,32.000000
-53,5,39,1624845158.0,32.000000
-54,6,38,1624845158.0,32.000000
-54,5,38,1624845158.0,32.000000
-53,6,39,1624845158.0,32.000000
-53,6,39,1624845158.0,32.000000
-53,6,39,1624845158.0,32.000000
-53,6,39,1624845158.0,32.000000
-53,6,39,1624845158.0,32.000000
-53,5,39,1624845158.0,32.000000
-53,5,39,1624845158.0,32.000000
-53,5,39,1624845158.0,32.000000
-53,5,39,1624845158.0,32.000000
-53,5,39,1624845158.0,32.000000
-54,6,39,1624845158.0,32.000000
-53,5,39,1624845158.0,32.000000
-53,5,39,1624845158.0,32.000000
-53,5,38,1624845158.0,32.000000
-53,5,39,1624845158.0,32.000000
-53,6,38,1624845158.0,32.000000
-53,6,39,1624845158.0,32.000000
-54,5,39,1624845158.0,32.000000
-54,6,38,1624845158.0,32.000000
-53,6,39,1624845158.0,32.000000
-53,5,39,1624845158.0,32.000000
-53,5,38,1624845158.0,32.000000
-54,5,39,1624845158.0,32.000000
-53,6,39,1624845158.0,32.000000
-53,5,39,1624845158.0,32.000000
-53,5,39,1624845158.0,32.000000
-53,6,38,1624845158.0,32.000000
-54,5,39,1624845158.0,32.000000
-53,5,39,1624845158.0,32.000000
-54,6,38,1624845158.0,32.000000
-53,5,39,1624845158.0,32.000000
-53,5,39,1624845158.0,32.000000
-54,5,39,1624845158.0,32.000000
-53,6,39,1624845158.0,32.000000
-53,6,38,1624845158.0,32.000000
-53,6,38,1624845158.0,32.000000
-53,5,39,1624845158.0,32.000000
-53,5,39,1624845158.0,32.000000
-53,5,39,1624845158.0,32.000000
-53,6,39,1624845158.0,32.000000
-53,6,39,1624845158.0,32.000000
-53,5,39,1624845158.0,32.000000
-53,5,39,1624845158.0,32.000000
-53,6,39,1624845158.0,32.000000
-53,6,39,1624845158.0,32.000000
-53,6,39,1624845158.0,32.000000
-54,5,39,1624845158.0,32.000000
-53,6,39,1624845158.0,32.000000
-53,5,39,1624845158.0,32.000000
-53,5,39,1624845158.0,32.000000
-53,6,39,1624845158.0,32.000000
-53,5,39,1624845158.0,32.000000
-53,6,39,1624845158.0,32.000000
-53,6,39,1624845158.0,32.000000
-53,6,39,1624845158.0,32.000000
-53,5,39,1624845158.0,32.000000
-53,6,39,1624845158.0,32.000000
-53,6,39,1624845158.0,32.000000
-53,6,39,1624845158.0,32.000000
-54,5,39,1624845158.0,32.000000
-53,5,38,1624845158.0,32.000000
-53,5,39,1624845158.0,32.000000
-53,6,39,1624845158.0,32.000000
-53,6,38,1624845158.0,32.000000
-53,5,39,1624845158.0,32.000000
-53,5,39,1624845158.0,32.000000
-53,5,39,1624845158.0,32.000000
-53,5,39,1624845158.0,32.000000
-53,6,39,1624845158.0,32.000000
-54,5,39,1624845158.0,32.000000
-53,5,38,1624845158.0,32.000000
-53,6,38,1624845158.0,32.000000
-54,6,39,1624845158.0,32.000000
-53,6,39,1624845158.0,32.000000
-53,5,39,1624845158.0,32.000000
-53,5,39,1624845158.0,32.000000
-54,6,39,1624845158.0,32.000000
-53,6,39,1624845158.0,32.000000
-53,5,39,1624845158.0,32.000000
-54,5,38,1624845158.0,32.000000
-54,5,39,1624845158.0,32.000000
-53,6,39,1624845158.0,32.000000
-54,5,38,1624845158.0,32.000000
-53,5,38,1624845158.0,32.000000
-53,5,39,1624845158.0,32.000000
-53,5,39,1624845158.0,32.000000
-53,6,39,1624845158.0,32.000000
-53,6,39,1624845158.0,32.000000
-53,5,39,1624845158.0,32.000000
-53,6,39,1624845158.0,32.000000
-53,6,39,1624845158.0,32.000000
-53,5,39,1624845158.0,32.000000
-53,5,39,1624845158.0,32.000000
-54,6,38,1624845158.0,32.000000
-53,6,39,1624845158.0,32.000000
-53,5,39,1624845158.0,32.000000
-53,5,39,1624845158.0,32.000000
-53,5,39,1624845158.0,32.000000
-53,5,39,1624845158.0,32.000000
-53,6,39,1624845158.0,32.000000
-53,6,39,1624845158.0,32.000000
-53,6,39,1624845158.0,32.000000
-53,6,39,1624845158.0,32.000000
-53,6,39,1624845158.0,32.000000
-53,5,39,1624845158.0,32.000000
-54,6,39,1624845158.0,32.000000
-53,5,39,1624845158.0,32.000000
-53,6,39,1624845158.0,32.000000
-53,5,39,1624845158.0,32.000000
-54,6,39,1624845158.0,32.000000
-53,6,39,1624845158.0,32.000000
-53,5,39,1624845158.0,32.000000
-53,6,39,1624845158.0,32.000000
-53,6,39,1624845158.0,32.000000
-53,6,39,1624845158.0,32.000000
-53,5,39,1624845158.0,32.000000
-53,6,39,1624845158.0,32.000000
-53,6,39,1624845158.0,32.000000
-53,5,39,1624845158.0,32.000000
-53,5,39,1624845158.0,32.000000
-53,6,39,1624845158.0,32.000000
-53,5,39,1624845158.0,32.000000
-53,5,39,1624845158.0,32.000000
-53,6,39,1624845158.0,32.000000
-53,6,39,1624845158.0,32.000000
-53,5,39,1624845158.0,32.000000
-53,5,39,1624845158.0,32.000000
-53,5,39,1624845158.0,32.000000
-53,6,39,1624845158.0,32.000000
-53,6,39,1624845158.0,32.000000
-53,6,39,1624845158.0,32.000000
-53,6,39,1624845158.0,32.000000
-53,5,39,1624845158.0,32.000000
-53,5,39,1624845158.0,32.000000
-53,5,39,1624845158.0,32.000000
-53,5,39,1624845158.0,32.000000
-53,6,39,1624845158.0,32.000000
-53,6,39,1624845158.0,32.000000
-53,5,39,1624845158.0,32.000000
-53,6,39,1624845158.0,32.000000
-53,6,39,1624845158.0,32.000000
-53,5,39,1624845158.0,32.000000
-53,5,39,1624845158.0,32.000000
-53,6,39,1624845158.0,32.000000
-53,6,39,1624845158.0,32.000000
-53,5,39,1624845158.0,32.000000
-53,5,39,1624845158.0,32.000000
-53,6,39,1624845158.0,32.000000
-53,5,39,1624845158.0,32.000000
-53,6,39,1624845158.0,32.000000
-53,6,39,1624845158.0,32.000000
-53,6,39,1624845158.0,32.000000
-53,5,39,1624845158.0,32.000000
-53,6,39,1624845158.0,32.000000
-53,5,39,1624845158.0,32.000000
-53,6,39,1624845158.0,32.000000
-53,6,39,1624845158.0,32.000000
-53,5,39,1624845158.0,32.000000
-53,6,39,1624845158.0,32.000000
-53,5,39,1624845158.0,32.000000
-53,5,39,1624845158.0,32.000000
-53,5,39,1624845158.0,32.000000
-53,6,39,1624845158.0,32.000000
-52,6,39,1624845158.0,32.000000
-53,6,39,1624845158.0,32.000000
-53,6,39,1624845158.0,32.000000
-53,6,39,1624845158.0,32.000000
-53,6,39,1624845158.0,32.000000
-53,5,39,1624845158.0,32.000000
-53,5,39,1624845158.0,32.000000
-53,6,39,1624845158.0,32.000000
-53,6,39,1624845158.0,32.000000
-53,6,39,1624845158.0,32.000000
-53,6,39,1624845158.0,32.000000
-53,6,39,1624845158.0,32.000000
-53,5,39,1624845158.0,32.000000
-53,5,39,1624845158.0,32.000000
-53,6,39,1624845158.0,32.000000
-53,5,39,1624845158.0,32.000000
-53,6,39,1624845158.0,32.000000
-53,6,39,1624845158.0,32.000000
-53,5,39,1624845158.0,32.000000
-52,5,40,1624845158.0,32.000000
-54,5,39,1624845158.0,32.000000
-52,5,42,1624845158.0,32.000000
-52,4,42,1624845158.0,32.000000
-54,6,41,1624845158.0,32.000000
-57,2,48,1624845158.0,32.000000
-50,7,47,1624845158.0,32.000000
-53,9,35,1624845158.0,32.000000
-56,8,39,1624845158.0,32.000000
-50,5,48,1624845158.0,32.000000
-43,7,43,1624845158.0,32.000000
-53,11,41,1624845158.0,32.000000
-48,12,46,1624845158.0,32.000000
-53,13,43,1624845158.0,32.000000
-53,14,42,1624845158.0,32.000000
-45,18,34,1624845158.0,32.000000
-36,19,37,1624845158.0,32.000000
-56,17,34,1624845158.0,32.000000
-52,17,33,1624845158.0,32.000000
-50,18,34,1624845158.0,32.000000
-43,18,42,1624845158.0,32.000000
-41,23,46,1624845158.0,32.000000
-33,21,45,1624845158.0,32.000000
-34,23,51,1624845158.0,32.000000
-36,23,54,1624845158.0,32.000000
-24,14,59,1624845158.0,32.000000
-27,12,59,1624845158.0,32.000000
-24,16,63,1624845158.0,32.000000
-38,16,55,1624845158.0,32.000000
-39,14,54,1624845158.0,32.000000
-26,13,63,1624845158.0,32.000000
-22,15,59,1624845158.0,32.000000
-27,18,52,1624845158.0,32.000000
-24,17,59,1624845158.0,32.000000
-22,19,61,1624845158.0,32.000000
-21,18,57,1624845158.0,32.000000
-22,18,55,1624845158.0,32.000000
-22,20,56,1624845158.0,32.000000
-26,20,54,1624845158.0,32.000000
-27,19,54,1624845158.0,32.000000
-24,18,58,1624845158.0,32.000000
-25,18,57,1624845158.0,32.000000
-26,17,55,1624845158.0,32.000000
-25,18,57,1624845158.0,32.000000
-21,19,55,1624845158.0,32.000000
-26,20,52,1624845158.0,32.000000
-23,19,54,1624845158.0,32.000000
-22,17,53,1624845158.0,32.000000
-35,16,55,1624845158.0,32.000000
-34,13,62,1624845158.0,32.000000
-28,12,61,1624845158.0,32.000000
-34,13,59,1624845158.0,32.000000
-37,9,60,1624845158.0,32.000000
-28,8,57,1624845158.0,32.000000
-32,10,57,1624845158.0,32.000000
-33,13,58,1624845158.0,32.000000
-29,13,57,1624845158.0,32.000000
-23,14,55,1624845158.0,32.000000
-26,15,58,1624845158.0,32.000000
-19,15,59,1624845158.0,32.000000
-18,14,56,1624845158.0,32.000000
-16,14,55,1624845158.0,32.000000
-19,16,57,1624845158.0,32.000000
-28,14,56,1624845158.0,32.000000
-39,12,59,1624845158.0,32.000000
-37,9,59,1624845158.0,32.000000
-37,9,56,1624845158.0,32.000000
-32,11,58,1624845158.0,32.000000
-27,13,57,1624845158.0,32.000000
-27,14,55,1624845158.0,32.000000
-26,14,55,1624845158.0,32.000000
-26,14,57,1624845158.0,32.000000
-26,12,58,1624845158.0,32.000000
-24,12,60,1624845158.0,32.000000
-25,12,60,1624845158.0,32.000000
-25,12,58,1624845158.0,32.000000
-25,13,58,1624845158.0,32.000000
-23,13,58,1624845158.0,32.000000
-25,13,58,1624845158.0,32.000000
-25,14,59,1624845158.0,32.000000
-23,13,58,1624845158.0,32.000000
-25,12,57,1624845158.0,32.000000
-25,13,60,1624845158.0,32.000000
-24,13,59,1624845158.0,32.000000
-25,13,57,1624845158.0,32.000000
-26,14,58,1624845158.0,32.000000
-26,13,59,1624845158.0,32.000000
-25,13,56,1624845158.0,32.000000
-26,13,57,1624845158.0,32.000000
-27,13,59,1624845158.0,32.000000
-26,13,58,1624845158.0,32.000000
-25,12,57,1624845158.0,32.000000
-26,13,59,1624845158.0,32.000000
-26,13,57,1624845158.0,32.000000
-27,13,56,1624845158.0,32.000000
-27,13,58,1624845158.0,32.000000
-26,13,57,1624845158.0,32.000000
-27,13,58,1624845158.0,32.000000
-28,13,57,1624845158.0,32.000000
-26,13,58,1624845158.0,32.000000
-27,12,58,1624845158.0,32.000000
-27,13,58,1624845158.0,32.000000
-27,14,58,1624845158.0,32.000000
-27,14,56,1624845158.0,32.000000
-26,14,57,1624845158.0,32.000000
-25,15,57,1624845158.0,32.000000
-25,15,56,1624845158.0,32.000000
-26,15,56,1624845158.0,32.000000
-27,14,57,1624845158.0,32.000000
-27,14,58,1624845158.0,32.000000
-29,13,57,1624845158.0,32.000000
-30,13,58,1624845158.0,32.000000
-30,13,58,1624845158.0,32.000000
-28,13,57,1624845158.0,32.000000
-28,13,57,1624845158.0,32.000000
-29,13,58,1624845158.0,32.000000
-28,14,58,1624845158.0,32.000000
-26,13,58,1624845158.0,32.000000
-26,16,58,1624845158.0,32.000000
-25,15,59,1624845158.0,32.000000
-23,15,58,1624845158.0,32.000000
-25,14,54,1624845158.0,32.000000
-26,13,60,1624845158.0,32.000000
-19,12,60,1624845158.0,32.000000
-23,11,56,1624845158.0,32.000000
-23,10,60,1624845158.0,32.000000
-18,10,58,1624845158.0,32.000000
-17,11,56,1624845158.0,32.000000
-19,15,57,1624845158.0,32.000000
-19,17,59,1624845158.0,32.000000
-23,20,61,1624845158.0,32.000000
-24,26,59,1624845158.0,32.000000
-28,29,58,1624845158.0,32.000000
-29,22,53,1624845158.0,32.000000
-30,20,54,1624845158.0,32.000000
-26,18,51,1624845158.0,32.000000
-20,19,56,1624845158.0,32.000000
-22,20,56,1624845158.0,32.000000
-23,22,58,1624845158.0,32.000000
-25,21,55,1624845158.0,32.000000
-25,21,57,1624845158.0,32.000000
-28,21,53,1624845158.0,32.000000
-29,21,50,1624845158.0,32.000000
-26,23,51,1624845158.0,32.000000
-27,25,50,1624845158.0,32.000000
-27,22,51,1624845158.0,32.000000
-32,20,53,1624845158.0,32.000000
-33,18,54,1624845158.0,32.000000
-34,16,55,1624845158.0,32.000000
-35,16,57,1624845158.0,32.000000
-33,15,57,1624845158.0,32.000000
-33,13,57,1624845158.0,32.000000
-30,14,57,1624845158.0,32.000000
-26,15,61,1624845158.0,32.000000
-24,15,59,1624845158.0,32.000000
-26,16,58,1624845158.0,32.000000
-26,25,59,1624845158.0,32.000000
-25,23,53,1624845158.0,32.000000
-29,12,50,1624845158.0,32.000000
-30,13,57,1624845158.0,32.000000
-28,8,56,1624845158.0,32.000000
-23,9,56,1624845158.0,32.000000
-24,10,62,1624845158.0,32.000000
-24,10,58,1624845158.0,32.000000
-20,9,56,1624845158.0,32.000000
-25,9,57,1624845158.0,32.000000
-28,10,57,1624845158.0,32.000000
-29,13,58,1624845158.0,32.000000
-34,13,60,1624845158.0,32.000000
-31,10,64,1624845158.0,32.000000
-27,8,59,1624845158.0,32.000000
-26,10,59,1624845158.0,32.000000
-27,9,58,1624845158.0,32.000000
-31,6,56,1624845158.0,32.000000
-34,8,57,1624845158.0,32.000000
-31,10,56,1624845158.0,32.000000
-26,11,57,1624845158.0,32.000000
-30,10,58,1624845158.0,32.000000
-34,9,56,1624845158.0,32.000000
-33,8,56,1624845158.0,32.000000
-34,9,55,1624845158.0,32.000000
-29,10,57,1624845158.0,32.000000
-27,11,57,1624845158.0,32.000000
-30,11,56,1624845158.0,32.000000
-30,11,57,1624845158.0,32.000000
-30,9,57,1624845158.0,32.000000
-30,10,58,1624845158.0,32.000000
-30,10,56,1624845158.0,32.000000
-27,11,58,1624845158.0,32.000000
-29,10,57,1624845158.0,32.000000
-31,10,57,1624845158.0,32.000000
-30,10,57,1624845158.0,32.000000
-30,10,56,1624845158.0,32.000000
-28,10,57,1624845158.0,32.000000
-30,10,57,1624845158.0,32.000000
-31,10,56,1624845158.0,32.000000
-29,10,57,1624845158.0,32.000000
-28,10,58,1624845158.0,32.000000
-30,10,57,1624845158.0,32.000000
-30,10,56,1624845158.0,32.000000
-30,10,58,1624845158.0,32.000000
-30,10,56,1624845158.0,32.000000
-29,11,56,1624845158.0,32.000000
-29,10,58,1624845158.0,32.000000
-30,10,56,1624845158.0,32.000000
-29,10,56,1624845158.0,32.000000
-31,10,57,1624845158.0,32.000000
-31,10,56,1624845158.0,32.000000
-30,10,56,1624845158.0,32.000000
-30,10,57,1624845158.0,32.000000
-30,10,57,1624845158.0,32.000000
-30,10,57,1624845158.0,32.000000
-30,10,57,1624845158.0,32.000000
-30,10,56,1624845158.0,32.000000
-30,10,57,1624845158.0,32.000000
-30,10,57,1624845158.0,32.000000
-30,10,57,1624845158.0,32.000000
-30,10,57,1624845158.0,32.000000
-29,10,57,1624845158.0,32.000000
-31,10,57,1624845158.0,32.000000
-30,10,56,1624845158.0,32.000000
-29,10,57,1624845158.0,32.000000
-30,10,57,1624845158.0,32.000000
-30,10,56,1624845158.0,32.000000
-29,10,57,1624845158.0,32.000000
-31,10,57,1624845158.0,32.000000
-31,10,56,1624845158.0,32.000000
-29,10,56,1624845158.0,32.000000
-29,10,58,1624845158.0,32.000000
-30,11,55,1624845158.0,32.000000
-29,10,57,1624845158.0,32.000000
-33,10,55,1624845158.0,32.000000
-33,9,56,1624845158.0,32.000000
-31,10,57,1624845158.0,32.000000
-30,10,57,1624845158.0,32.000000
-29,10,57,1624845158.0,32.000000
-31,10,57,1624845158.0,32.000000
-31,10,57,1624845158.0,32.000000
-30,9,57,1624845158.0,32.000000
-29,11,57,1624845158.0,32.000000
-30,11,57,1624845158.0,32.000000
-29,11,56,1624845158.0,32.000000
-30,11,58,1624845158.0,32.000000
-32,10,56,1624845158.0,32.000000
-30,10,57,1624845158.0,32.000000
-28,10,56,1624845158.0,32.000000
-27,13,56,1624845158.0,32.000000
-28,13,56,1624845158.0,32.000000
-29,11,60,1624845158.0,32.000000
-31,10,56,1624845158.0,32.000000
-32,11,55,1624845158.0,32.000000
-31,12,55,1624845158.0,32.000000
-31,12,54,1624845158.0,32.000000
-29,11,57,1624845158.0,32.000000
-32,11,56,1624845158.0,32.000000
-33,11,56,1624845158.0,32.000000
-31,11,57,1624845158.0,32.000000
-29,11,56,1624845158.0,32.000000
-28,11,58,1624845158.0,32.000000
-32,12,55,1624845158.0,32.000000
-36,12,55,1624845158.0,32.000000
-34,11,55,1624845158.0,32.000000
-29,10,56,1624845158.0,32.000000
-33,10,56,1624845158.0,32.000000
-33,11,55,1624845158.0,32.000000
-31,11,55,1624845158.0,32.000000
-33,10,56,1624845158.0,32.000000
-34,11,58,1624845158.0,32.000000
-34,11,54,1624845158.0,32.000000
-32,10,55,1624845158.0,32.000000
-33,11,55,1624845158.0,32.000000
-34,11,53,1624845158.0,32.000000
-33,11,54,1624845158.0,32.000000
-32,11,56,1624845158.0,32.000000
-33,11,54,1624845158.0,32.000000
-36,11,53,1624845158.0,32.000000
-34,10,55,1624845158.0,32.000000
-33,10,55,1624845158.0,32.000000
-31,10,56,1624845158.0,32.000000
-37,11,52,1624845158.0,32.000000
-37,11,52,1624845158.0,32.000000
-35,11,54,1624845158.0,32.000000
-35,10,55,1624845158.0,32.000000
-37,10,54,1624845158.0,32.000000
-38,10,53,1624845158.0,32.000000
-35,10,55,1624845158.0,32.000000
-33,10,54,1624845158.0,32.000000
-36,11,52,1624845158.0,32.000000
-38,10,53,1624845158.0,32.000000
-33,10,53,1624845158.0,32.000000
-34,10,52,1624845158.0,32.000000
-39,10,54,1624845158.0,32.000000
-35,10,53,1624845158.0,32.000000
-33,10,53,1624845158.0,32.000000
-39,11,53,1624845158.0,32.000000
-37,10,53,1624845158.0,32.000000
-34,10,53,1624845158.0,32.000000
-39,10,53,1624845158.0,32.000000
-38,10,54,1624845158.0,32.000000
-35,10,53,1624845158.0,32.000000
-35,10,53,1624845158.0,32.000000
-38,10,52,1624845158.0,32.000000
-36,10,53,1624845158.0,32.000000
-36,10,54,1624845158.0,32.000000
-38,10,53,1624845158.0,32.000000
-38,10,53,1624845158.0,32.000000
-37,10,52,1624845158.0,32.000000
-37,10,52,1624845158.0,32.000000
-37,10,52,1624845158.0,32.000000
-37,10,53,1624845158.0,32.000000
-37,10,54,1624845158.0,32.000000
-36,10,53,1624845158.0,32.000000
-38,10,53,1624845158.0,32.000000
-38,10,52,1624845158.0,32.000000
-38,10,52,1624845158.0,32.000000
-37,10,52,1624845158.0,32.000000
-38,10,53,1624845158.0,32.000000
-38,10,53,1624845158.0,32.000000
-36,10,53,1624845158.0,32.000000
-36,10,52,1624845158.0,32.000000
-37,10,52,1624845158.0,32.000000
-39,9,52,1624845158.0,32.000000
-37,10,52,1624845158.0,32.000000
-38,10,53,1624845158.0,32.000000
-38,10,52,1624845158.0,32.000000
-37,10,52,1624845158.0,32.000000
-38,10,52,1624845158.0,32.000000
-38,10,52,1624845158.0,32.000000
-38,10,52,1624845158.0,32.000000
-37,10,52,1624845158.0,32.000000
-39,10,53,1624845158.0,32.000000
-39,10,52,1624845158.0,32.000000
-36,10,53,1624845158.0,32.000000
-37,10,53,1624845158.0,32.000000
-38,10,53,1624845158.0,32.000000
-39,10,52,1624845158.0,32.000000
-37,10,53,1624845158.0,32.000000
-37,10,53,1624845158.0,32.000000
-38,10,52,1624845158.0,32.000000
-37,10,52,1624845158.0,32.000000
-37,10,53,1624845158.0,32.000000
-39,10,52,1624845158.0,32.000000
-37,10,52,1624845158.0,32.000000
-37,10,52,1624845158.0,32.000000
-38,10,52,1624845158.0,32.000000
-37,10,53,1624845158.0,32.000000
-37,10,53,1624845158.0,32.000000
-38,10,53,1624845158.0,32.000000
-37,10,52,1624845158.0,32.000000
-37,10,52,1624845158.0,32.000000
-37,10,52,1624845158.0,32.000000
-37,10,53,1624845158.0,32.000000
-37,10,53,1624845158.0,32.000000
-38,10,52,1624845158.0,32.000000
-38,10,52,1624845158.0,32.000000
-37,10,53,1624845158.0,32.000000
-36,10,52,1624845158.0,32.000000
-38,10,53,1624845158.0,32.000000
-37,10,53,1624845158.0,32.000000
-37,10,52,1624845158.0,32.000000
-38,11,52,1624845158.0,32.000000
-37,10,52,1624845158.0,32.000000
-37,10,52,1624845158.0,32.000000
-38,10,52,1624845158.0,32.000000
-38,10,53,1624845158.0,32.000000
-37,10,53,1624845158.0,32.000000
-38,10,52,1624845158.0,32.000000
-37,10,52,1624845158.0,32.000000
-38,10,52,1624845158.0,32.000000
-38,10,53,1624845158.0,32.000000
-37,10,52,1624845158.0,32.000000
-38,10,52,1624845158.0,32.000000
-37,10,52,1624845158.0,32.000000
-38,10,52,1624845158.0,32.000000
-37,10,53,1624845158.0,32.000000
-38,10,53,1624845158.0,32.000000
-37,10,52,1624845158.0,32.000000
-37,10,52,1624845158.0,32.000000
-38,10,52,1624845158.0,32.000000
-38,10,52,1624845158.0,32.000000
-38,10,52,1624845158.0,32.000000
-38,10,52,1624845158.0,32.000000
-37,10,52,1624845158.0,32.000000
-38,10,52,1624845158.0,32.000000
-38,10,52,1624845158.0,32.000000
-38,10,52,1624845158.0,32.000000
-38,10,53,1624845158.0,32.000000
-38,10,52,1624845158.0,32.000000
-38,10,52,1624845158.0,32.000000
-38,10,53,1624845158.0,32.000000
-37,10,52,1624845158.0,32.000000
-38,10,52,1624845158.0,32.000000
-38,10,52,1624845158.0,32.000000
-38,10,52,1624845158.0,32.000000
-37,10,53,1624845158.0,32.000000
-38,10,53,1624845158.0,32.000000
-38,10,52,1624845158.0,32.000000
-38,10,52,1624845158.0,32.000000
-38,9,52,1624845158.0,32.000000
-38,10,52,1624845158.0,32.000000
-38,10,52,1624845158.0,32.000000
-37,10,53,1624845158.0,32.000000
-38,10,52,1624845158.0,32.000000
-38,10,52,1624845158.0,32.000000
-38,10,52,1624845158.0,32.000000
-37,10,53,1624845158.0,32.000000
-37,10,53,1624845158.0,32.000000
-38,10,52,1624845158.0,32.000000
-38,10,52,1624845158.0,32.000000
-37,10,53,1624845158.0,32.000000
-38,10,52,1624845158.0,32.000000
-39,11,51,1624845158.0,32.000000
-38,11,52,1624845158.0,32.000000
-38,10,52,1624845158.0,32.000000
-37,9,54,1624845158.0,32.000000
-38,10,53,1624845158.0,32.000000
-37,10,53,1624845158.0,32.000000
-38,9,52,1624845158.0,32.000000
-38,10,52,1624845158.0,32.000000
-38,10,52,1624845158.0,32.000000
-37,10,53,1624845158.0,32.000000
-37,10,53,1624845158.0,32.000000
-37,10,52,1624845158.0,32.000000
-38,10,52,1624845158.0,32.000000
-38,10,52,1624845158.0,32.000000
-37,10,52,1624845158.0,32.000000
-37,10,53,1624845158.0,32.000000
-38,10,52,1624845158.0,32.000000
-37,10,53,1624845158.0,32.000000
-38,10,53,1624845158.0,32.000000
-37,10,53,1624845158.0,32.000000
-38,10,52,1624845158.0,32.000000
-37,10,52,1624845158.0,32.000000
-38,10,53,1624845158.0,32.000000
-37,10,52,1624845158.0,32.000000
-38,10,52,1624845158.0,32.000000
-38,10,52,1624845158.0,32.000000
-37,10,52,1624845158.0,32.000000
-37,10,53,1624845158.0,32.000000
-37,10,53,1624845158.0,32.000000
-37,10,53,1624845158.0,32.000000
-37,10,52,1624845158.0,32.000000
-37,10,52,1624845158.0,32.000000
-38,10,52,1624845158.0,32.000000
-38,10,52,1624845158.0,32.000000
-38,9,52,1624845158.0,32.000000
-38,10,52,1624845158.0,32.000000
-37,10,53,1624845158.0,32.000000
-37,10,53,1624845158.0,32.000000
-37,10,53,1624845158.0,32.000000
-37,10,52,1624845158.0,32.000000
-38,10,52,1624845158.0,32.000000
-37,10,52,1624845158.0,32.000000
-38,10,52,1624845158.0,32.000000
-38,10,52,1624845158.0,32.000000
-37,10,52,1624845158.0,32.000000
-37,10,53,1624845158.0,32.000000
-38,10,52,1624845158.0,32.000000
-37,10,52,1624845158.0,32.000000
-38,10,52,1624845158.0,32.000000
-37,10,52,1624845158.0,32.000000
-38,10,53,1624845158.0,32.000000
-38,10,52,1624845158.0,32.000000
-37,10,52,1624845158.0,32.000000
-38,10,52,1624845158.0,32.000000
-38,10,53,1624845158.0,32.000000
-37,10,53,1624845158.0,32.000000
-38,10,52,1624845158.0,32.000000
-37,10,52,1624845158.0,32.000000
-38,10,53,1624845158.0,32.000000
-38,10,52,1624845158.0,32.000000
-38,10,52,1624845158.0,32.000000
-37,10,53,1624845158.0,32.000000
-37,10,53,1624845158.0,32.000000
-38,10,52,1624845158.0,32.000000
-38,10,52,1624845158.0,32.000000
-37,10,52,1624845158.0,32.000000
-37,10,53,1624845158.0,32.000000
-37,10,52,1624845158.0,32.000000
-37,10,53,1624845158.0,32.000000
-37,10,53,1624845158.0,32.000000
-37,10,52,1624845158.0,32.000000
-38,10,52,1624845158.0,32.000000
-37,10,52,1624845158.0,32.000000
-37,10,53,1624845158.0,32.000000
-38,10,53,1624845158.0,32.000000
-38,10,52,1624845158.0,32.000000
-38,10,52,1624845158.0,32.000000
-37,10,53,1624845158.0,32.000000
-38,10,52,1624845158.0,32.000000
-37,10,52,1624845158.0,32.000000
-38,10,53,1624845158.0,32.000000
-37,10,52,1624845158.0,32.000000
-38,10,52,1624845158.0,32.000000
-38,10,52,1624845158.0,32.000000
-38,10,53,1624845158.0,32.000000
-37,10,52,1624845158.0,32.000000
-38,10,52,1624845158.0,32.000000
-37,10,53,1624845158.0,32.000000
-37,10,53,1624845158.0,32.000000
-37,10,53,1624845158.0,32.000000
-37,10,52,1624845158.0,32.000000
-37,10,53,1624845158.0,32.000000
-37,10,53,1624845158.0,32.000000
-37,10,52,1624845158.0,32.000000
-38,10,52,1624845158.0,32.000000
-37,10,53,1624845158.0,32.000000
-37,10,53,1624845158.0,32.000000
-38,10,52,1624845158.0,32.000000
-37,10,52,1624845158.0,32.000000
-37,10,53,1624845158.0,32.000000
-38,10,53,1624845158.0,32.000000
-38,10,52,1624845158.0,32.000000
-37,10,53,1624845158.0,32.000000
-37,10,53,1624845158.0,32.000000
-38,10,52,1624845158.0,32.000000
-37,10,52,1624845158.0,32.000000
-37,10,53,1624845158.0,32.000000
-38,10,53,1624845158.0,32.000000
-38,10,52,1624845158.0,32.000000
-37,10,52,1624845158.0,32.000000
-37,10,53,1624845158.0,32.000000
-38,10,53,1624845158.0,32.000000
-37,10,52,1624845158.0,32.000000
-37,10,52,1624845158.0,32.000000
-38,10,53,1624845158.0,32.000000
-37,10,52,1624845158.0,32.000000
-37,10,52,1624845158.0,32.000000
-37,10,53,1624845158.0,32.000000
-38,10,52,1624845158.0,32.000000
-37,10,52,1624845158.0,32.000000
-37,10,53,1624845158.0,32.000000
-37,10,53,1624845158.0,32.000000
-38,10,52,1624845158.0,32.000000
-38,10,52,1624845158.0,32.000000
-38,10,52,1624845158.0,32.000000
-37,10,52,1624845158.0,32.000000
-37,10,52,1624845158.0,32.000000
-37,10,53,1624845158.0,32.000000
-37,10,53,1624845158.0,32.000000
-38,10,53,1624845158.0,32.000000
-38,10,52,1624845158.0,32.000000
-37,10,52,1624845158.0,32.000000
-37,10,53,1624845158.0,32.000000
-38,10,52,1624845158.0,32.000000
-38,10,52,1624845158.0,32.000000
-38,10,52,1624845158.0,32.000000
-38,10,52,1624845158.0,32.000000
-38,10,52,1624845158.0,32.000000
-38,10,53,1624845158.0,32.000000
-38,10,53,1624845158.0,32.000000
-38,10,52,1624845158.0,32.000000
-38,10,52,1624845158.0,32.000000
-38,10,52,1624845158.0,32.000000
-38,10,52,1624845158.0,32.000000
-38,10,52,1624845158.0,32.000000
-37,10,52,1624845158.0,32.000000
-37,10,52,1624845158.0,32.000000
-39,10,52,1624845158.0,32.000000
-37,10,52,1624845158.0,32.000000
-37,10,53,1624845158.0,32.000000
-38,10,52,1624845158.0,32.000000
-38,10,52,1624845158.0,32.000000
-37,10,53,1624845158.0,32.000000
-37,10,52,1624845158.0,32.000000
-38,10,52,1624845158.0,32.000000
-38,10,52,1624845158.0,32.000000
-38,10,52,1624845158.0,32.000000
-37,10,52,1624845158.0,32.000000
-38,10,52,1624845158.0,32.000000
-38,10,52,1624845158.0,32.000000
-38,10,52,1624845158.0,32.000000
-38,10,52,1624845158.0,32.000000
-37,11,52,1624845158.0,32.000000
-37,10,52,1624845158.0,32.000000
-38,9,52,1624845158.0,32.000000
-38,10,53,1624845158.0,32.000000
-38,11,52,1624845158.0,32.000000
-37,10,52,1624845158.0,32.000000
-38,10,52,1624845158.0,32.000000
-38,10,52,1624845158.0,32.000000
-38,10,52,1624845158.0,32.000000
-38,10,52,1624845158.0,32.000000
-38,10,51,1624845158.0,32.000000
-38,10,52,1624845158.0,32.000000
-39,10,52,1624845158.0,32.000000
-40,9,51,1624845158.0,32.000000
-40,9,51,1624845158.0,32.000000
-40,10,51,1624845158.0,32.000000
-40,10,51,1624845158.0,32.000000
-39,10,52,1624845158.0,32.000000
-39,10,52,1624845158.0,32.000000
-37,10,51,1624845158.0,32.000000
-38,10,52,1624845158.0,32.000000
-38,10,52,1624845158.0,32.000000
-38,10,52,1624845158.0,32.000000
-38,10,51,1624845158.0,32.000000
-38,10,51,1624845158.0,32.000000
-40,10,51,1624845158.0,32.000000
-40,10,52,1624845158.0,32.000000
-38,10,52,1624845158.0,32.000000
-38,10,52,1624845158.0,32.000000
-38,10,51,1624845158.0,32.000000
-39,10,52,1624845158.0,32.000000
-39,10,52,1624845158.0,32.000000
-39,10,52,1624845158.0,32.000000
-38,11,52,1624845158.0,32.000000
-38,10,52,1624845158.0,32.000000
-39,10,52,1624845158.0,32.000000
-38,10,52,1624845158.0,32.000000
-38,10,51,1624845158.0,32.000000
-39,10,52,1624845158.0,32.000000
-39,10,52,1624845158.0,32.000000
-39,10,52,1624845158.0,32.000000
-38,10,52,1624845158.0,32.000000
-38,10,52,1624845158.0,32.000000
-38,10,52,1624845158.0,32.000000
-38,10,52,1624845158.0,32.000000
-39,10,52,1624845158.0,32.000000
-38,11,52,1624845158.0,32.000000
-38,10,52,1624845158.0,32.000000
-37,11,52,1624845158.0,32.000000
-38,11,52,1624845158.0,32.000000
-38,10,51,1624845158.0,32.000000
-39,10,52,1624845158.0,32.000000
-39,10,52,1624845158.0,32.000000
-38,9,52,1624845158.0,32.000000
-38,10,52,1624845158.0,32.000000
-38,11,52,1624845158.0,32.000000
-38,11,52,1624845158.0,32.000000
-39,10,52,1624845158.0,32.000000
-39,10,51,1624845158.0,32.000000
-38,10,52,1624845158.0,32.000000
-39,9,53,1624845158.0,32.000000
-38,9,52,1624845158.0,32.000000
-38,10,52,1624845158.0,32.000000
-38,11,52,1624845158.0,32.000000
-38,11,52,1624845158.0,32.000000
-39,10,52,1624845158.0,32.000000
-39,10,52,1624845158.0,32.000000
-39,10,52,1624845158.0,32.000000
-38,10,52,1624845158.0,32.000000
-38,10,52,1624845158.0,32.000000
-38,11,52,1624845158.0,32.000000
-38,10,52,1624845158.0,32.000000
-39,10,52,1624845158.0,32.000000
-39,10,52,1624845158.0,32.000000
-39,10,52,1624845158.0,32.000000
-38,10,52,1624845158.0,32.000000
-39,10,52,1624845158.0,32.000000
-39,10,52,1624845158.0,32.000000
-39,10,52,1624845158.0,32.000000
-38,10,52,1624845158.0,32.000000
-39,10,52,1624845158.0,32.000000
-38,10,52,1624845158.0,32.000000
-39,10,52,1624845158.0,32.000000
-39,10,51,1624845158.0,32.000000
-39,10,51,1624845158.0,32.000000
-39,10,51,1624845158.0,32.000000
-38,10,52,1624845158.0,32.000000
-39,10,52,1624845158.0,32.000000
-39,10,52,1624845158.0,32.000000
-38,10,52,1624845158.0,32.000000
-38,10,52,1624845158.0,32.000000
-39,10,51,1624845158.0,32.000000
-39,10,51,1624845158.0,32.000000
-39,10,52,1624845158.0,32.000000
-39,10,51,1624845158.0,32.000000
-39,10,51,1624845158.0,32.000000
-39,9,52,1624845158.0,32.000000
-38,9,52,1624845158.0,32.000000
-38,11,52,1624845158.0,32.000000
-38,11,52,1624845158.0,32.000000
-38,10,52,1624845158.0,32.000000
-39,10,51,1624845158.0,32.000000
-40,9,51,1624845158.0,32.000000
-39,9,52,1624845158.0,32.000000
-38,10,52,1624845158.0,32.000000
-38,10,52,1624845158.0,32.000000
-39,10,52,1624845158.0,32.000000
-39,10,51,1624845158.0,32.000000
-39,11,51,1624845158.0,32.000000
-39,10,52,1624845158.0,32.000000
-39,10,52,1624845158.0,32.000000
-39,10,51,1624845158.0,32.000000
-39,10,52,1624845158.0,32.000000
-38,10,52,1624845158.0,32.000000
-39,10,52,1624845158.0,32.000000
-38,10,52,1624845158.0,32.000000
-39,11,52,1624845158.0,32.000000
-39,11,51,1624845158.0,32.000000
-38,10,51,1624845158.0,32.000000
-39,9,52,1624845158.0,32.000000
-39,10,52,1624845158.0,32.000000
-38,10,52,1624845158.0,32.000000
-38,10,52,1624845158.0,32.000000
-39,10,53,1624845158.0,32.000000
-40,10,50,1624845158.0,32.000000
-38,10,53,1624845158.0,32.000000
-38,10,51,1624845158.0,32.000000
-38,10,52,1624845158.0,32.000000
-39,10,52,1624845158.0,32.000000
-38,10,51,1624845158.0,32.000000
-38,10,51,1624845158.0,32.000000
-38,10,52,1624845158.0,32.000000
-38,10,52,1624845158.0,32.000000
-38,10,52,1624845158.0,32.000000
-39,10,52,1624845158.0,32.000000
-38,10,52,1624845158.0,32.000000
-39,10,52,1624845158.0,32.000000
-38,10,51,1624845158.0,32.000000
-38,10,52,1624845158.0,32.000000
-39,10,52,1624845158.0,32.000000
-38,10,52,1624845158.0,32.000000
-38,10,52,1624845158.0,32.000000
-39,10,52,1624845158.0,32.000000
-39,10,51,1624845158.0,32.000000
-38,10,52,1624845158.0,32.000000
-38,10,52,1624845158.0,32.000000
-38,10,52,1624845158.0,32.000000
-39,9,52,1624845158.0,32.000000
-38,10,51,1624845158.0,32.000000
-38,10,52,1624845158.0,32.000000
-38,10,52,1624845158.0,32.000000
-38,10,52,1624845158.0,32.000000
-38,10,52,1624845158.0,32.000000
-38,10,52,1624845158.0,32.000000
-38,10,52,1624845158.0,32.000000
-39,10,52,1624845158.0,32.000000
-39,10,52,1624845158.0,32.000000
-39,10,51,1624845158.0,32.000000
-38,10,52,1624845158.0,32.000000
-38,10,52,1624845158.0,32.000000
-39,10,52,1624845158.0,32.000000
-39,10,52,1624845158.0,32.000000
-38,10,52,1624845158.0,32.000000
-39,10,51,1624845158.0,32.000000
-39,10,52,1624845158.0,32.000000
-39,10,51,1624845158.0,32.000000
-39,10,52,1624845158.0,32.000000
-39,10,52,1624845158.0,32.000000
-39,10,52,1624845158.0,32.000000
-39,10,52,1624845158.0,32.000000
-38,10,51,1624845158.0,32.000000
-39,10,52,1624845158.0,32.000000
-39,10,52,1624845158.0,32.000000
-39,10,51,1624845158.0,32.000000
-39,10,51,1624845158.0,32.000000
-39,10,52,1624845158.0,32.000000
-38,10,52,1624845158.0,32.000000
-39,10,52,1624845158.0,32.000000
-39,10,51,1624845158.0,32.000000
-39,10,51,1624845158.0,32.000000
-39,10,52,1624845158.0,32.000000
-39,10,52,1624845158.0,32.000000
-39,10,51,1624845158.0,32.000000
-39,10,51,1624845158.0,32.000000
-39,10,52,1624845158.0,32.000000
-39,10,52,1624845158.0,32.000000
-39,10,52,1624845158.0,32.000000
-39,10,52,1624845158.0,32.000000
-39,10,51,1624845158.0,32.000000
-39,10,52,1624845158.0,32.000000
-39,10,51,1624845158.0,32.000000
-39,10,51,1624845158.0,32.000000
-39,10,52,1624845158.0,32.000000
-39,10,52,1624845158.0,32.000000
-39,10,52,1624845158.0,32.000000
-39,10,52,1624845158.0,32.000000
-39,10,52,1624845158.0,32.000000
-39,10,52,1624845158.0,32.000000
-39,10,52,1624845158.0,32.000000
-38,10,52,1624845158.0,32.000000
-38,10,52,1624845158.0,32.000000
-38,10,52,1624845158.0,32.000000
-39,10,52,1624845158.0,32.000000
-39,10,52,1624845158.0,32.000000
-38,10,52,1624845158.0,32.000000
-38,10,52,1624845158.0,32.000000
-38,10,52,1624845158.0,32.000000
-39,10,52,1624845158.0,32.000000
-38,10,52,1624845158.0,32.000000
-38,10,52,1624845158.0,32.000000
-38,10,52,1624845158.0,32.000000
-38,10,52,1624845158.0,32.000000
-38,10,52,1624845158.0,32.000000
-38,10,52,1624845158.0,32.000000
-38,10,52,1624845158.0,32.000000
-38,10,52,1624845158.0,32.000000
-38,10,52,1624845158.0,32.000000
-38,10,52,1624845158.0,32.000000
-38,10,52,1624845158.0,32.000000
-39,10,52,1624845158.0,32.000000
-38,10,52,1624845158.0,32.000000
-38,10,52,1624845158.0,32.000000
-38,10,52,1624845158.0,32.000000
-38,10,52,1624845158.0,32.000000
-38,10,52,1624845158.0,32.000000
-38,10,52,1624845158.0,32.000000
-38,10,52,1624845158.0,32.000000
-38,10,52,1624845158.0,32.000000
-38,10,52,1624845158.0,32.000000
-38,10,52,1624845158.0,32.000000
-38,10,52,1624845158.0,32.000000
-38,10,52,1624845158.0,32.000000
-37,10,52,1624845158.0,32.000000
-38,10,52,1624845158.0,32.000000
-38,10,52,1624845158.0,32.000000
-38,10,52,1624845158.0,32.000000
-38,10,52,1624845158.0,32.000000
-38,10,52,1624845158.0,32.000000
-38,10,52,1624845158.0,32.000000
-38,10,52,1624845158.0,32.000000
-38,10,52,1624845158.0,32.000000
-38,10,52,1624845158.0,32.000000
-38,10,51,1624845158.0,32.000000
-39,10,53,1624845158.0,32.000000
-38,10,52,1624845158.0,32.000000
-38,10,53,1624845158.0,32.000000
-38,10,52,1624845158.0,32.000000
-38,10,52,1624845158.0,32.000000
-38,11,52,1624845158.0,32.000000
-38,10,52,1624845158.0,32.000000
-38,10,52,1624845158.0,32.000000
-38,10,52,1624845158.0,32.000000
-38,10,52,1624845158.0,32.000000
-38,10,52,1624845158.0,32.000000
-38,10,52,1624845158.0,32.000000
-38,10,52,1624845158.0,32.000000
-38,10,52,1624845158.0,32.000000
-38,10,52,1624845158.0,32.000000
-38,10,52,1624845158.0,32.000000
-38,10,52,1624845158.0,32.000000
-39,10,52,1624845158.0,32.000000
-38,10,52,1624845158.0,32.000000
-38,10,52,1624845158.0,32.000000
-38,10,52,1624845158.0,32.000000
-38,10,52,1624845158.0,32.000000
-38,10,52,1624845158.0,32.000000
-38,10,52,1624845158.0,32.000000
-38,10,52,1624845158.0,32.000000
-38,11,52,1624845158.0,32.000000
-38,10,52,1624845158.0,32.000000
-38,10,52,1624845158.0,32.000000
-38,10,52,1624845158.0,32.000000
-38,10,52,1624845158.0,32.000000
-38,10,52,1624845158.0,32.000000
-39,10,52,1624845158.0,32.000000
-38,10,52,1624845158.0,32.000000
-38,10,52,1624845158.0,32.000000
-38,10,52,1624845158.0,32.000000
-38,10,52,1624845158.0,32.000000
-39,10,52,1624845158.0,32.000000
-39,10,52,1624845158.0,32.000000
-38,10,52,1624845158.0,32.000000
-38,10,52,1624845158.0,32.000000
-38,10,52,1624845158.0,32.000000
-38,10,52,1624845158.0,32.000000
-38,10,52,1624845158.0,32.000000
-39,10,52,1624845158.0,32.000000
-38,10,52,1624845158.0,32.000000
-38,11,52,1624845158.0,32.000000
-38,11,52,1624845158.0,32.000000
-39,10,52,1624845158.0,32.000000
-39,10,52,1624845158.0,32.000000
-39,10,52,1624845158.0,32.000000
-38,10,52,1624845158.0,32.000000
-38,10,52,1624845158.0,32.000000
-38,10,52,1624845158.0,32.000000
-38,10,52,1624845158.0,32.000000
-38,10,52,1624845158.0,32.000000
-38,10,52,1624845158.0,32.000000
-38,10,52,1624845158.0,32.000000
-38,10,52,1624845158.0,32.000000
-38,10,52,1624845158.0,32.000000
-38,10,52,1624845158.0,32.000000
-38,10,52,1624845158.0,32.000000
-39,11,52,1624845158.0,32.000000
-39,11,51,1624845158.0,32.000000
-37,10,52,1624845158.0,32.000000
-38,10,53,1624845158.0,32.000000
-38,11,52,1624845158.0,32.000000
-38,10,52,1624845158.0,32.000000
-38,10,52,1624845158.0,32.000000
-38,10,52,1624845158.0,32.000000
-39,10,52,1624845158.0,32.000000
-38,10,52,1624845158.0,32.000000
-38,10,52,1624845158.0,32.000000
-38,10,52,1624845158.0,32.000000
-38,11,52,1624845158.0,32.000000
-38,10,53,1624845158.0,32.000000
-37,10,52,1624845158.0,32.000000
-38,11,52,1624845158.0,32.000000
-38,10,52,1624845158.0,32.000000
-38,10,52,1624845158.0,32.000000
-38,10,52,1624845158.0,32.000000
-39,10,52,1624845158.0,32.000000
-38,10,52,1624845158.0,32.000000
-37,10,52,1624845158.0,32.000000
-38,10,52,1624845158.0,32.000000
-38,11,52,1624845158.0,32.000000
-38,10,52,1624845158.0,32.000000
-38,10,53,1624845158.0,32.000000
-38,10,52,1624845158.0,32.000000
-38,10,52,1624845158.0,32.000000
-38,10,52,1624845158.0,32.000000
-38,11,52,1624845158.0,32.000000
-38,10,52,1624845158.0,32.000000
-38,10,52,1624845158.0,32.000000
-38,10,52,1624845158.0,32.000000
-38,10,52,1624845158.0,32.000000
-38,11,52,1624845158.0,32.000000
-38,10,52,1624845158.0,32.000000
-38,10,52,1624845158.0,32.000000
-38,10,52,1624845158.0,32.000000
-38,10,52,1624845158.0,32.000000
-37,10,53,1624845158.0,32.000000
-38,10,52,1624845158.0,32.000000
-38,10,52,1624845158.0,32.000000
-38,10,53,1624845158.0,32.000000
-37,11,51,1624845158.0,32.000000
-38,11,52,1624845158.0,32.000000
-38,10,52,1624845158.0,32.000000
-38,10,51,1624845158.0,32.000000
-39,11,52,1624845158.0,32.000000
-38,9,53,1624845158.0,32.000000
-37,10,53,1624845158.0,32.000000
-38,12,52,1624845158.0,32.000000
-38,13,52,1624845158.0,32.000000
-37,11,52,1624845158.0,32.000000
-38,10,52,1624845158.0,32.000000
-38,9,52,1624845158.0,32.000000
-39,9,52,1624845158.0,32.000000
-37,10,52,1624845158.0,32.000000
-37,11,52,1624845158.0,32.000000
-38,11,52,1624845158.0,32.000000
-38,10,52,1624845158.0,32.000000
-38,10,52,1624845158.0,32.000000
-38,10,52,1624845158.0,32.000000
-38,10,52,1624845158.0,32.000000
-37,10,52,1624845158.0,32.000000
-39,11,52,1624845158.0,32.000000
-39,11,52,1624845158.0,32.000000
-38,10,51,1624845158.0,32.000000
-39,10,52,1624845158.0,32.000000
-39,10,52,1624845158.0,32.000000
-38,11,52,1624845158.0,32.000000
-38,11,52,1624845158.0,32.000000
-38,10,52,1624845158.0,32.000000
-38,10,52,1624845158.0,32.000000
-39,10,52,1624845158.0,32.000000
-38,10,52,1624845158.0,32.000000
-38,10,52,1624845158.0,32.000000
-38,10,52,1624845158.0,32.000000
-39,10,52,1624845158.0,32.000000
-39,10,52,1624845158.0,32.000000
-38,10,52,1624845158.0,32.000000
-38,10,52,1624845158.0,32.000000
-38,10,52,1624845158.0,32.000000
-38,10,52,1624845158.0,32.000000
-39,10,52,1624845158.0,32.000000
-38,10,52,1624845158.0,32.000000
-38,10,52,1624845158.0,32.000000
-38,10,52,1624845158.0,32.000000
-38,10,52,1624845158.0,32.000000
-38,10,52,1624845158.0,32.000000
-38,10,52,1624845158.0,32.000000
-38,10,52,1624845158.0,32.000000
-39,10,52,1624845158.0,32.000000
-38,10,52,1624845158.0,32.000000
-38,10,52,1624845158.0,32.000000
-38,11,52,1624845158.0,32.000000
-38,10,52,1624845158.0,32.000000
-38,10,52,1624845158.0,32.000000
-38,10,52,1624845158.0,32.000000
-38,10,52,1624845158.0,32.000000
-38,10,52,1624845158.0,32.000000
-38,10,52,1624845158.0,32.000000
-38,10,52,1624845158.0,32.000000
-38,10,52,1624845158.0,32.000000
-38,10,52,1624845158.0,32.000000
-38,10,52,1624845158.0,32.000000
-38,10,52,1624845158.0,32.000000
-38,10,52,1624845158.0,32.000000
-38,10,52,1624845158.0,32.000000
-38,10,52,1624845158.0,32.000000
-38,10,52,1624845158.0,32.000000
-37,10,52,1624845158.0,32.000000
-38,10,52,1624845158.0,32.000000
-38,10,52,1624845158.0,32.000000
-38,10,52,1624845158.0,32.000000
-38,10,52,1624845158.0,32.000000
-38,10,52,1624845158.0,32.000000
-37,10,52,1624845158.0,32.000000
-37,10,52,1624845158.0,32.000000
-38,10,52,1624845158.0,32.000000
-37,10,52,1624845158.0,32.000000
-37,11,52,1624845158.0,32.000000
-36,10,53,1624845158.0,32.000000
-36,11,53,1624845158.0,32.000000
-37,11,53,1624845158.0,32.000000
-37,11,52,1624845158.0,32.000000
-37,10,52,1624845158.0,32.000000
-38,11,52,1624845158.0,32.000000
-38,10,52,1624845158.0,32.000000
-37,10,53,1624845158.0,32.000000
-37,10,52,1624845158.0,32.000000
-37,10,52,1624845158.0,32.000000
-38,11,52,1624845158.0,32.000000
-37,10,52,1624845158.0,32.000000
-37,10,52,1624845158.0,32.000000
-37,10,52,1624845158.0,32.000000
-38,10,52,1624845158.0,32.000000
-37,10,52,1624845158.0,32.000000
-38,11,53,1624845158.0,32.000000
-38,11,52,1624845158.0,32.000000
-38,10,52,1624845158.0,32.000000
-37,10,53,1624845158.0,32.000000
-37,11,53,1624845158.0,32.000000
-38,10,52,1624845158.0,32.000000
-38,10,52,1624845158.0,32.000000
-38,10,52,1624845158.0,32.000000
-38,10,52,1624845158.0,32.000000
-39,10,53,1624845158.0,32.000000
-37,10,52,1624845158.0,32.000000
-38,10,53,1624845158.0,32.000000
-38,10,52,1624845158.0,32.000000
-38,11,52,1624845158.0,32.000000
-37,10,52,1624845158.0,32.000000
-37,11,52,1624845158.0,32.000000
-37,11,52,1624845158.0,32.000000
-37,10,52,1624845158.0,32.000000
-37,10,52,1624845158.0,32.000000
-38,10,53,1624845158.0,32.000000
-37,10,52,1624845158.0,32.000000
-38,11,52,1624845158.0,32.000000
-38,10,52,1624845158.0,32.000000
-37,10,52,1624845158.0,32.000000
-38,11,52,1624845158.0,32.000000
-38,11,52,1624845158.0,32.000000
-38,11,52,1624845158.0,32.000000
-37,10,53,1624845158.0,32.000000
-37,10,52,1624845158.0,32.000000
-38,11,52,1624845158.0,32.000000
-37,10,52,1624845158.0,32.000000
-37,10,52,1624845158.0,32.000000
-38,10,53,1624845158.0,32.000000
-38,10,53,1624845158.0,32.000000
-38,10,52,1624845158.0,32.000000
-38,10,52,1624845158.0,32.000000
-38,11,52,1624845158.0,32.000000
-37,10,53,1624845158.0,32.000000
-38,10,52,1624845158.0,32.000000
-38,10,52,1624845158.0,32.000000
-38,11,52,1624845158.0,32.000000
-38,10,52,1624845158.0,32.000000
-37,10,52,1624845158.0,32.000000
-37,10,52,1624845158.0,32.000000
-38,10,52,1624845158.0,32.000000
-37,10,53,1624845158.0,32.000000
-37,10,52,1624845158.0,32.000000
-38,11,52,1624845158.0,32.000000
-38,10,53,1624845158.0,32.000000
-37,10,52,1624845158.0,32.000000
-38,10,52,1624845158.0,32.000000
-38,11,52,1624845158.0,32.000000
-38,10,52,1624845158.0,32.000000
-38,10,52,1624845158.0,32.000000
-38,10,52,1624845158.0,32.000000
-38,10,52,1624845158.0,32.000000
-38,10,52,1624845158.0,32.000000
-38,10,52,1624845158.0,32.000000
-38,10,52,1624845158.0,32.000000
-38,10,52,1624845158.0,32.000000
-38,10,52,1624845158.0,32.000000
-38,10,52,1624845158.0,32.000000
-38,10,52,1624845158.0,32.000000
-38,10,52,1624845158.0,32.000000
-38,10,52,1624845158.0,32.000000
-38,11,52,1624845158.0,32.000000
-37,10,52,1624845158.0,32.000000
-38,10,52,1624845158.0,32.000000
-38,10,52,1624845158.0,32.000000
-38,10,52,1624845158.0,32.000000
-38,10,52,1624845158.0,32.000000
-38,10,52,1624845158.0,32.000000
-38,10,52,1624845158.0,32.000000
-37,10,52,1624845158.0,32.000000
-38,10,52,1624845158.0,32.000000
-38,10,52,1624845158.0,32.000000
-38,10,52,1624845158.0,32.000000
-38,10,52,1624845158.0,32.000000
-38,10,52,1624845158.0,32.000000
-38,10,52,1624845158.0,32.000000
-37,10,52,1624845158.0,32.000000
-38,10,52,1624845158.0,32.000000
-38,10,52,1624845158.0,32.000000
-38,11,52,1624845158.0,32.000000
-38,10,52,1624845158.0,32.000000
-37,10,52,1624845158.0,32.000000
-38,10,52,1624845158.0,32.000000
-37,10,52,1624845158.0,32.000000
-37,10,53,1624845158.0,32.000000
-38,11,52,1624845158.0,32.000000
-38,11,52,1624845158.0,32.000000
-38,10,52,1624845158.0,32.000000
-37,10,53,1624845158.0,32.000000
-38,11,52,1624845158.0,32.000000
-38,10,52,1624845158.0,32.000000
-37,10,52,1624845158.0,32.000000
-37,10,53,1624845158.0,32.000000
-38,10,52,1624845158.0,32.000000
-37,10,52,1624845158.0,32.000000
-38,11,52,1624845158.0,32.000000
-38,10,52,1624845158.0,32.000000
-38,10,52,1624845158.0,32.000000
-38,11,52,1624845158.0,32.000000
-38,11,52,1624845158.0,32.000000
-38,10,53,1624845158.0,32.000000
-37,10,52,1624845158.0,32.000000
-37,10,52,1624845158.0,32.000000
-36,10,53,1624845158.0,32.000000
-37,11,53,1624845158.0,32.000000
-38,11,52,1624845158.0,32.000000
-37,11,52,1624845158.0,32.000000
-37,10,53,1624845158.0,32.000000
-37,10,52,1624845158.0,32.000000
-38,11,52,1624845158.0,32.000000
-37,11,52,1624845158.0,32.000000
-37,11,52,1624845158.0,32.000000
-38,11,53,1624845158.0,32.000000
-37,10,53,1624845158.0,32.000000
-37,11,51,1624845158.0,32.000000
-38,11,51,1624845158.0,32.000000
-37,11,53,1624845158.0,32.000000
-36,11,52,1624845158.0,32.000000
-40,11,51,1624845158.0,32.000000
-41,10,51,1624845158.0,32.000000
-41,10,52,1624845158.0,32.000000
-39,10,50,1624845158.0,32.000000
-38,10,52,1624845158.0,32.000000
-39,10,53,1624845158.0,32.000000
-41,10,51,1624845158.0,32.000000
-40,9,50,1624845158.0,32.000000
-39,9,52,1624845158.0,32.000000
-39,9,53,1624845158.0,32.000000
-41,11,49,1624845158.0,32.000000
-41,11,50,1624845158.0,32.000000
-41,12,51,1624845158.0,32.000000
-38,10,53,1624845158.0,32.000000
-38,9,52,1624845158.0,32.000000
-39,9,51,1624845158.0,32.000000
-40,11,51,1624845158.0,32.000000
-40,11,51,1624845158.0,32.000000
-39,11,52,1624845158.0,32.000000
-39,11,53,1624845158.0,32.000000
-39,11,51,1624845158.0,32.000000
-39,12,48,1624845158.0,32.000000
-40,11,48,1624845158.0,32.000000
-39,10,53,1624845158.0,32.000000
-39,11,52,1624845158.0,32.000000
-38,13,51,1624845158.0,32.000000
-38,12,52,1624845158.0,32.000000
-38,11,52,1624845158.0,32.000000
-39,11,51,1624845158.0,32.000000
-40,11,50,1624845158.0,32.000000
-40,12,51,1624845158.0,32.000000
-39,10,53,1624845158.0,32.000000
-39,10,52,1624845158.0,32.000000
-39,10,53,1624845158.0,32.000000
-38,11,52,1624845158.0,32.000000
-38,12,50,1624845158.0,32.000000
-38,12,50,1624845158.0,32.000000
-39,12,50,1624845158.0,32.000000
-39,11,51,1624845158.0,32.000000
-40,12,50,1624845158.0,32.000000
-40,11,51,1624845158.0,32.000000
-39,12,51,1624845158.0,32.000000
-39,12,51,1624845158.0,32.000000
-40,11,50,1624845158.0,32.000000
-40,11,52,1624845158.0,32.000000
-40,11,52,1624845158.0,32.000000
-39,12,50,1624845158.0,32.000000
-40,11,50,1624845158.0,32.000000
-37,11,51,1624845158.0,32.000000
-37,12,53,1624845158.0,32.000000
-39,11,50,1624845158.0,32.000000
-41,11,50,1624845158.0,32.000000
-40,11,52,1624845158.0,32.000000
-39,11,51,1624845158.0,32.000000
-39,11,51,1624845158.0,32.000000
-39,11,52,1624845158.0,32.000000
-38,11,52,1624845158.0,32.000000
-38,11,52,1624845158.0,32.000000
-39,11,51,1624845158.0,32.000000
-41,11,51,1624845158.0,32.000000
-39,10,51,1624845158.0,32.000000
-39,10,52,1624845158.0,32.000000
-40,10,52,1624845158.0,32.000000
-39,11,51,1624845158.0,32.000000
-38,12,51,1624845158.0,32.000000
-38,11,52,1624845158.0,32.000000
-40,10,51,1624845158.0,32.000000
-38,10,52,1624845158.0,32.000000
-39,11,50,1624845158.0,32.000000
-39,11,52,1624845158.0,32.000000
-38,10,52,1624845158.0,32.000000
-38,11,51,1624845158.0,32.000000
-39,11,50,1624845158.0,32.000000
-39,11,52,1624845158.0,32.000000
-39,11,52,1624845158.0,32.000000
-39,11,51,1624845158.0,32.000000
-38,11,51,1624845158.0,32.000000
-38,11,52,1624845158.0,32.000000
-38,11,52,1624845158.0,32.000000
-39,11,51,1624845158.0,32.000000
-39,11,51,1624845158.0,32.000000
-38,11,52,1624845158.0,32.000000
-38,10,52,1624845158.0,32.000000
-39,11,52,1624845158.0,32.000000
-38,11,52,1624845158.0,32.000000
-37,12,52,1624845158.0,32.000000
-39,10,52,1624845158.0,32.000000
-39,11,51,1624845158.0,32.000000
-39,11,51,1624845158.0,32.000000
-39,11,51,1624845158.0,32.000000
-40,11,51,1624845158.0,32.000000
-40,10,52,1624845158.0,32.000000
-39,10,51,1624845158.0,32.000000
-38,11,51,1624845158.0,32.000000
-38,11,53,1624845158.0,32.000000
-38,11,53,1624845158.0,32.000000
-38,12,51,1624845158.0,32.000000
-37,11,51,1624845158.0,32.000000
-38,10,52,1624845158.0,32.000000
-39,10,51,1624845158.0,32.000000
-39,11,51,1624845158.0,32.000000
-38,10,52,1624845158.0,32.000000
-38,11,52,1624845158.0,32.000000
-40,10,52,1624845158.0,32.000000
-38,11,51,1624845158.0,32.000000
-38,11,52,1624845158.0,32.000000
-37,11,52,1624845158.0,32.000000
-40,11,51,1624845158.0,32.000000
-39,11,51,1624845158.0,32.000000
-38,11,52,1624845158.0,32.000000
-37,11,53,1624845158.0,32.000000
-38,11,52,1624845158.0,32.000000
-39,11,51,1624845158.0,32.000000
-39,10,52,1624845158.0,32.000000
-39,10,51,1624845158.0,32.000000
-40,10,51,1624845158.0,32.000000
-39,10,52,1624845158.0,32.000000
-38,11,52,1624845158.0,32.000000
-38,11,52,1624845158.0,32.000000
-38,11,51,1624845158.0,32.000000
-38,11,51,1624845158.0,32.000000
-39,10,52,1624845158.0,32.000000
-39,11,51,1624845158.0,32.000000
-39,11,51,1624845158.0,32.000000
-39,10,52,1624845158.0,32.000000
-38,9,52,1624845158.0,32.000000
-38,11,51,1624845158.0,32.000000
-39,11,52,1624845158.0,32.000000
-38,10,52,1624845158.0,32.000000
-38,11,52,1624845158.0,32.000000
-38,11,51,1624845158.0,32.000000
-39,11,51,1624845158.0,32.000000
-39,10,52,1624845158.0,32.000000
-39,10,51,1624845158.0,32.000000
-40,10,51,1624845158.0,32.000000
-40,10,51,1624845158.0,32.000000
-38,10,52,1624845158.0,32.000000
-38,10,52,1624845158.0,32.000000
-38,10,52,1624845158.0,32.000000
-39,12,52,1624845158.0,32.000000
-39,12,51,1624845158.0,32.000000
-38,10,52,1624845158.0,32.000000
-38,11,51,1624845158.0,32.000000
-39,11,52,1624845158.0,32.000000
-40,10,51,1624845158.0,32.000000
-39,9,51,1624845158.0,32.000000
-38,10,52,1624845158.0,32.000000
-38,11,52,1624845158.0,32.000000
-40,11,51,1624845158.0,32.000000
-39,11,51,1624845158.0,32.000000
-39,10,52,1624845158.0,32.000000
-39,10,52,1624845158.0,32.000000
-39,10,51,1624845158.0,32.000000
-38,11,52,1624845158.0,32.000000
-38,10,52,1624845158.0,32.000000
-39,10,52,1624845158.0,32.000000
-38,10,51,1624845158.0,32.000000
-39,12,51,1624845158.0,32.000000
-39,11,51,1624845158.0,32.000000
-40,9,51,1624845158.0,32.000000
-39,9,51,1624845158.0,32.000000
-39,10,51,1624845158.0,32.000000
-39,12,51,1624845158.0,32.000000
-40,11,51,1624845158.0,32.000000
-40,10,51,1624845158.0,32.000000
-40,10,51,1624845158.0,32.000000
-40,11,51,1624845158.0,32.000000
-40,11,51,1624845158.0,32.000000
-36,11,50,1624845158.0,32.000000
-31,13,52,1624845158.0,32.000000
-40,10,52,1624845158.0,32.000000
-44,8,51,1624845158.0,32.000000
-47,6,49,1624845158.0,32.000000
-47,7,49,1624845158.0,32.000000
-44,7,50,1624845158.0,32.000000
-41,8,50,1624845158.0,32.000000
-39,8,52,1624845158.0,32.000000
-40,10,51,1624845158.0,32.000000
-40,9,51,1624845158.0,32.000000
-38,8,50,1624845158.0,32.000000
-43,9,52,1624845158.0,32.000000
-45,10,48,1624845158.0,32.000000
-41,10,48,1624845158.0,32.000000
-41,9,49,1624845158.0,32.000000
-42,9,50,1624845158.0,32.000000
-42,10,50,1624845158.0,32.000000
-41,10,49,1624845158.0,32.000000
-43,9,49,1624845158.0,32.000000
-44,9,49,1624845158.0,32.000000
-45,9,49,1624845158.0,32.000000
-42,10,48,1624845158.0,32.000000
-43,10,49,1624845158.0,32.000000
-43,9,48,1624845158.0,32.000000
-43,9,49,1624845158.0,32.000000
-45,9,48,1624845158.0,32.000000
-42,9,48,1624845158.0,32.000000
-43,9,48,1624845158.0,32.000000
-42,10,49,1624845158.0,32.000000
-43,10,49,1624845158.0,32.000000
-42,8,49,1624845158.0,32.000000
-43,9,48,1624845158.0,32.000000
-43,10,48,1624845158.0,32.000000
-42,9,50,1624845158.0,32.000000
-42,9,50,1624845158.0,32.000000
-43,9,48,1624845158.0,32.000000
-42,9,49,1624845158.0,32.000000
-43,9,49,1624845158.0,32.000000
-42,9,49,1624845158.0,32.000000
-42,10,49,1624845158.0,32.000000
-44,9,48,1624845158.0,32.000000
-40,9,50,1624845158.0,32.000000
-43,10,49,1624845158.0,32.000000
-43,10,49,1624845158.0,32.000000
-42,9,49,1624845158.0,32.000000
-42,9,49,1624845158.0,32.000000
-42,10,50,1624845158.0,32.000000
-43,10,50,1624845158.0,32.000000
-42,9,49,1624845158.0,32.000000
-42,9,48,1624845158.0,32.000000
-42,9,50,1624845158.0,32.000000
-42,10,49,1624845158.0,32.000000
-42,9,49,1624845158.0,32.000000
-44,9,49,1624845158.0,32.000000
-42,9,49,1624845158.0,32.000000
-42,9,49,1624845158.0,32.000000
-42,9,49,1624845158.0,32.000000
-42,9,49,1624845158.0,32.000000
-43,9,49,1624845158.0,32.000000
-43,9,49,1624845158.0,32.000000
-42,9,49,1624845158.0,32.000000
-42,10,49,1624845158.0,32.000000
-42,9,49,1624845158.0,32.000000
-43,9,49,1624845158.0,32.000000
-42,10,49,1624845158.0,32.000000
-42,9,49,1624845158.0,32.000000
-43,9,49,1624845158.0,32.000000
-42,9,49,1624845158.0,32.000000
-42,9,49,1624845158.0,32.000000
-42,10,49,1624845158.0,32.000000
-42,9,49,1624845158.0,32.000000
-42,9,49,1624845158.0,32.000000
-42,10,49,1624845158.0,32.000000
-42,9,49,1624845158.0,32.000000
-42,9,49,1624845158.0,32.000000
-42,9,49,1624845158.0,32.000000
-42,9,49,1624845158.0,32.000000
-43,10,49,1624845158.0,32.000000
-42,10,49,1624845158.0,32.000000
-42,10,49,1624845158.0,32.000000
-42,10,49,1624845158.0,32.000000
-43,9,49,1624845158.0,32.000000
-42,9,49,1624845158.0,32.000000
-42,9,49,1624845158.0,32.000000
-42,9,49,1624845158.0,32.000000
-42,9,49,1624845158.0,32.000000
-42,10,49,1624845158.0,32.000000
-42,10,50,1624845158.0,32.000000
-42,9,49,1624845158.0,32.000000
-42,9,49,1624845158.0,32.000000
-42,9,49,1624845158.0,32.000000
-42,9,49,1624845158.0,32.000000
-42,10,49,1624845158.0,32.000000
-42,9,49,1624845158.0,32.000000
-42,9,49,1624845158.0,32.000000
-42,10,49,1624845158.0,32.000000
-42,9,49,1624845158.0,32.000000
-42,9,49,1624845158.0,32.000000
-42,9,49,1624845158.0,32.000000
-42,10,49,1624845158.0,32.000000
-42,9,50,1624845158.0,32.000000
-42,9,49,1624845158.0,32.000000
-42,10,49,1624845158.0,32.000000
-43,9,49,1624845158.0,32.000000
-42,9,49,1624845158.0,32.000000
-42,9,49,1624845158.0,32.000000
-42,10,50,1624845158.0,32.000000
-42,9,49,1624845158.0,32.000000
-42,9,49,1624845158.0,32.000000
-42,9,49,1624845158.0,32.000000
-42,10,49,1624845158.0,32.000000
-42,10,49,1624845158.0,32.000000
-42,9,49,1624845158.0,32.000000
-42,10,50,1624845158.0,32.000000
-42,10,49,1624845158.0,32.000000
-42,9,49,1624845158.0,32.000000
-42,10,49,1624845158.0,32.000000
-42,9,50,1624845158.0,32.000000
-42,9,49,1624845158.0,32.000000
-42,9,49,1624845158.0,32.000000
-42,9,49,1624845158.0,32.000000
-43,10,49,1624845158.0,32.000000
-42,10,49,1624845158.0,32.000000
-42,9,49,1624845158.0,32.000000
-42,9,50,1624845158.0,32.000000
-42,10,49,1624845158.0,32.000000
-42,9,49,1624845158.0,32.000000
-42,9,49,1624845158.0,32.000000
-42,9,50,1624845158.0,32.000000
-42,9,49,1624845158.0,32.000000
-43,10,49,1624845158.0,32.000000
-42,9,49,1624845158.0,32.000000
-42,10,50,1624845158.0,32.000000
-42,9,49,1624845158.0,32.000000
-43,9,49,1624845158.0,32.000000
-42,9,49,1624845158.0,32.000000
-42,9,49,1624845158.0,32.000000
-43,9,49,1624845158.0,32.000000
-42,9,49,1624845158.0,32.000000
-42,9,49,1624845158.0,32.000000
-42,9,49,1624845158.0,32.000000
-42,10,49,1624845158.0,32.000000
-43,9,49,1624845158.0,32.000000
-43,9,49,1624845158.0,32.000000
-42,9,49,1624845158.0,32.000000
-42,9,49,1624845158.0,32.000000
-42,9,49,1624845158.0,32.000000
-42,10,49,1624845158.0,32.000000
-42,10,49,1624845158.0,32.000000
-43,10,49,1624845158.0,32.000000
-42,9,49,1624845158.0,32.000000
-42,9,49,1624845158.0,32.000000
-42,9,49,1624845158.0,32.000000
-43,10,49,1624845158.0,32.000000
-42,9,49,1624845158.0,32.000000
-42,9,49,1624845158.0,32.000000
-42,9,49,1624845158.0,32.000000
-42,9,49,1624845158.0,32.000000
-42,9,49,1624845158.0,32.000000
-42,9,49,1624845158.0,32.000000
-43,10,49,1624845158.0,32.000000
-42,9,49,1624845158.0,32.000000
-42,10,49,1624845158.0,32.000000
-42,9,49,1624845158.0,32.000000
-42,9,49,1624845158.0,32.000000
-42,9,49,1624845158.0,32.000000
-42,10,49,1624845158.0,32.000000
-42,9,49,1624845158.0,32.000000
-42,9,49,1624845158.0,32.000000
-42,9,50,1624845158.0,32.000000
-42,10,49,1624845158.0,32.000000
-42,9,49,1624845158.0,32.000000
-42,9,49,1624845158.0,32.000000
-42,9,49,1624845158.0,32.000000
-42,9,49,1624845158.0,32.000000
-42,10,49,1624845158.0,32.000000
-42,9,49,1624845158.0,32.000000
-42,9,50,1624845158.0,32.000000
-42,9,49,1624845158.0,32.000000
-42,9,49,1624845158.0,32.000000
-42,9,49,1624845158.0,32.000000
-42,9,49,1624845158.0,32.000000
-42,9,50,1624845158.0,32.000000
-42,10,49,1624845158.0,32.000000
-43,9,49,1624845158.0,32.000000
-43,9,49,1624845158.0,32.000000
-42,9,49,1624845158.0,32.000000
-42,9,50,1624845158.0,32.000000
-42,10,49,1624845158.0,32.000000
-43,9,49,1624845158.0,32.000000
-42,9,49,1624845158.0,32.000000
-42,9,49,1624845158.0,32.000000
-42,10,49,1624845158.0,32.000000
-42,9,49,1624845158.0,32.000000
-42,9,49,1624845158.0,32.000000
-42,9,49,1624845158.0,32.000000
-41,10,49,1624845158.0,32.000000
-42,10,50,1624845158.0,32.000000
-42,10,50,1624845158.0,32.000000
-43,9,49,1624845158.0,32.000000
-43,9,49,1624845158.0,32.000000
-43,10,49,1624845158.0,32.000000
-42,9,49,1624845158.0,32.000000
-42,9,49,1624845158.0,32.000000
-42,9,49,1624845158.0,32.000000
-42,9,49,1624845158.0,32.000000
-43,10,49,1624845158.0,32.000000
-42,9,49,1624845158.0,32.000000
-41,9,50,1624845158.0,32.000000
-42,9,49,1624845158.0,32.000000
-42,10,49,1624845158.0,32.000000
-43,9,49,1624845158.0,32.000000
-43,9,49,1624845158.0,32.000000
-43,10,49,1624845158.0,32.000000
-42,10,49,1624845158.0,32.000000
-42,9,49,1624845158.0,32.000000
-42,9,49,1624845158.0,32.000000
-43,10,49,1624845158.0,32.000000
-42,10,49,1624845158.0,32.000000
-42,9,49,1624845158.0,32.000000
-42,9,49,1624845158.0,32.000000
-42,9,49,1624845158.0,32.000000
-42,9,49,1624845158.0,32.000000
-42,9,49,1624845158.0,32.000000
-42,9,49,1624845158.0,32.000000
-42,9,49,1624845158.0,32.000000
-42,9,49,1624845158.0,32.000000
-42,9,49,1624845158.0,32.000000
-43,9,49,1624845158.0,32.000000
-42,10,49,1624845158.0,32.000000
-42,9,49,1624845158.0,32.000000
-42,9,49,1624845158.0,32.000000
-43,9,49,1624845158.0,32.000000
-42,9,49,1624845158.0,32.000000
-42,9,49,1624845158.0,32.000000
-42,9,49,1624845158.0,32.000000
-43,10,49,1624845158.0,32.000000
-42,9,49,1624845158.0,32.000000
-42,9,49,1624845158.0,32.000000
-43,10,49,1624845158.0,32.000000
-42,9,49,1624845158.0,32.000000
-42,9,49,1624845158.0,32.000000
-43,9,49,1624845158.0,32.000000
-43,9,49,1624845158.0,32.000000
-43,9,49,1624845158.0,32.000000
-42,9,49,1624845158.0,32.000000
-42,9,49,1624845158.0,32.000000
-43,9,49,1624845158.0,32.000000
-43,9,49,1624845158.0,32.000000
-43,9,49,1624845158.0,32.000000
-43,9,49,1624845158.0,32.000000
-43,9,49,1624845158.0,32.000000
-42,9,49,1624845158.0,32.000000
-43,9,49,1624845158.0,32.000000
-43,9,49,1624845158.0,32.000000
-42,9,49,1624845158.0,32.000000
-41,9,49,1624845158.0,32.000000
-43,10,49,1624845158.0,32.000000
-43,10,49,1624845158.0,32.000000
-43,8,49,1624845158.0,32.000000
-42,10,49,1624845158.0,32.000000
-42,10,49,1624845158.0,32.000000
-43,9,49,1624845158.0,32.000000
-43,9,49,1624845158.0,32.000000
-43,9,48,1624845158.0,32.000000
-43,9,49,1624845158.0,32.000000
-42,9,49,1624845158.0,32.000000
-42,9,49,1624845158.0,32.000000
-43,9,49,1624845158.0,32.000000
-42,9,49,1624845158.0,32.000000
-41,9,49,1624845158.0,32.000000
-42,10,49,1624845158.0,32.000000
-42,10,50,1624845158.0,32.000000
-42,9,50,1624845158.0,32.000000
-43,9,49,1624845158.0,32.000000
-43,9,49,1624845158.0,32.000000
-43,9,49,1624845158.0,32.000000
-43,9,49,1624845158.0,32.000000
-43,9,49,1624845158.0,32.000000
-42,9,49,1624845158.0,32.000000
-42,9,50,1624845158.0,32.000000
-42,10,49,1624845158.0,32.000000
-42,10,49,1624845158.0,32.000000
-42,10,50,1624845158.0,32.000000
-41,9,49,1624845158.0,32.000000
-42,9,49,1624845158.0,32.000000
-42,9,49,1624845158.0,32.000000
-42,9,49,1624845158.0,32.000000
-43,9,49,1624845158.0,32.000000
-43,9,49,1624845158.0,32.000000
-43,10,49,1624845158.0,32.000000
-42,10,49,1624845158.0,32.000000
-43,9,49,1624845158.0,32.000000
-42,9,49,1624845158.0,32.000000
-41,9,50,1624845158.0,32.000000
-42,10,50,1624845158.0,32.000000
-42,10,50,1624845158.0,32.000000
-42,10,49,1624845158.0,32.000000
-42,10,49,1624845158.0,32.000000
-42,9,49,1624845158.0,32.000000
-42,9,49,1624845158.0,32.000000
-42,9,49,1624845158.0,32.000000
-42,9,49,1624845158.0,32.000000
-42,10,49,1624845158.0,32.000000
-42,9,49,1624845158.0,32.000000
-42,10,49,1624845158.0,32.000000
-42,10,49,1624845158.0,32.000000
-42,9,49,1624845158.0,32.000000
-42,9,50,1624845158.0,32.000000
-42,9,49,1624845158.0,32.000000
-42,9,49,1624845158.0,32.000000
-42,9,49,1624845158.0,32.000000
-42,9,50,1624845158.0,32.000000
-42,9,49,1624845158.0,32.000000
-42,10,49,1624845158.0,32.000000
-42,10,49,1624845158.0,32.000000
-42,10,50,1624845158.0,32.000000
-42,10,49,1624845158.0,32.000000
-42,9,49,1624845158.0,32.000000
-42,9,49,1624845158.0,32.000000
-42,9,49,1624845158.0,32.000000
-42,9,49,1624845158.0,32.000000
-42,10,49,1624845158.0,32.000000
-42,10,49,1624845158.0,32.000000
-42,9,49,1624845158.0,32.000000
-42,9,49,1624845158.0,32.000000
-42,9,49,1624845158.0,32.000000
-42,10,49,1624845158.0,32.000000
-42,9,49,1624845158.0,32.000000
-42,9,49,1624845158.0,32.000000
-42,10,49,1624845158.0,32.000000
-42,10,49,1624845158.0,32.000000
-42,9,49,1624845158.0,32.000000
-42,9,49,1624845158.0,32.000000
-42,9,49,1624845158.0,32.000000
-42,10,49,1624845158.0,32.000000
-42,9,49,1624845158.0,32.000000
-42,9,49,1624845158.0,32.000000
-42,9,49,1624845158.0,32.000000
-43,9,49,1624845158.0,32.000000
-42,9,49,1624845158.0,32.000000
-42,9,49,1624845158.0,32.000000
-42,10,49,1624845158.0,32.000000
-42,10,49,1624845158.0,32.000000
-42,9,49,1624845158.0,32.000000
-43,9,49,1624845158.0,32.000000
-42,9,49,1624845158.0,32.000000
-42,9,49,1624845158.0,32.000000
-42,9,49,1624845158.0,32.000000
-42,9,49,1624845158.0,32.000000
-42,9,49,1624845158.0,32.000000
-42,9,49,1624845158.0,32.000000
-42,9,49,1624845158.0,32.000000
-42,9,49,1624845158.0,32.000000
-42,9,49,1624845158.0,32.000000
-43,9,49,1624845158.0,32.000000
-43,9,49,1624845158.0,32.000000
-43,9,49,1624845158.0,32.000000
-42,9,49,1624845158.0,32.000000
-43,9,49,1624845158.0,32.000000
-43,9,49,1624845158.0,32.000000
-42,9,49,1624845158.0,32.000000
-42,9,49,1624845158.0,32.000000
-43,9,49,1624845158.0,32.000000
-43,9,49,1624845158.0,32.000000
-42,9,49,1624845158.0,32.000000
-43,9,49,1624845158.0,32.000000
-42,9,49,1624845158.0,32.000000
-42,9,49,1624845158.0,32.000000
-42,9,49,1624845158.0,32.000000
-42,10,49,1624845158.0,32.000000
-43,9,49,1624845158.0,32.000000
-43,9,49,1624845158.0,32.000000
-42,9,49,1624845158.0,32.000000
-42,9,49,1624845158.0,32.000000
-42,9,49,1624845158.0,32.000000
-42,9,49,1624845158.0,32.000000
-42,9,49,1624845158.0,32.000000
-42,10,49,1624845158.0,32.000000
-42,9,49,1624845158.0,32.000000
-42,9,49,1624845158.0,32.000000
-42,9,49,1624845158.0,32.000000
-43,10,49,1624845158.0,32.000000
-42,9,49,1624845158.0,32.000000
-42,9,49,1624845158.0,32.000000
-42,9,49,1624845158.0,32.000000
-42,9,49,1624845158.0,32.000000
-42,9,49,1624845158.0,32.000000
-42,10,49,1624845158.0,32.000000
-42,9,49,1624845158.0,32.000000
-42,9,49,1624845158.0,32.000000
-42,9,49,1624845158.0,32.000000
-42,9,49,1624845158.0,32.000000
-42,10,49,1624845158.0,32.000000
-42,9,49,1624845158.0,32.000000
-42,10,49,1624845158.0,32.000000
-42,10,49,1624845158.0,32.000000
-42,9,49,1624845158.0,32.000000
-42,9,49,1624845158.0,32.000000
-42,9,49,1624845158.0,32.000000
-42,9,49,1624845158.0,32.000000
-42,10,49,1624845158.0,32.000000
-42,9,49,1624845158.0,32.000000
-42,10,49,1624845158.0,32.000000
-42,10,49,1624845158.0,32.000000
-42,9,49,1624845158.0,32.000000
-42,9,49,1624845158.0,32.000000
-43,9,49,1624845158.0,32.000000
-42,10,49,1624845158.0,32.000000
-42,9,49,1624845158.0,32.000000
-42,10,49,1624845158.0,32.000000
-42,9,49,1624845158.0,32.000000
-42,9,49,1624845158.0,32.000000
-42,9,49,1624845158.0,32.000000
-42,9,49,1624845158.0,32.000000
-42,10,49,1624845158.0,32.000000
-42,9,49,1624845158.0,32.000000
-42,9,49,1624845158.0,32.000000
-42,10,49,1624845158.0,32.000000
-42,9,49,1624845158.0,32.000000
-42,9,49,1624845158.0,32.000000
-42,9,49,1624845158.0,32.000000
-42,9,49,1624845158.0,32.000000
-42,9,49,1624845158.0,32.000000
-42,9,49,1624845158.0,32.000000
-42,10,49,1624845158.0,32.000000
-43,10,49,1624845158.0,32.000000
-42,9,49,1624845158.0,32.000000
-42,9,50,1624845158.0,32.000000
-43,10,49,1624845158.0,32.000000
-43,9,49,1624845158.0,32.000000
-42,9,50,1624845158.0,32.000000
-42,10,49,1624845158.0,32.000000
-42,10,49,1624845158.0,32.000000
-42,9,49,1624845158.0,32.000000
-42,9,50,1624845158.0,32.000000
-42,9,49,1624845158.0,32.000000
-42,9,49,1624845158.0,32.000000
-42,9,49,1624845158.0,32.000000
-42,9,49,1624845158.0,32.000000
-43,9,49,1624845158.0,32.000000
-42,9,49,1624845158.0,32.000000
-42,9,49,1624845158.0,32.000000
-42,9,49,1624845158.0,32.000000
-42,9,49,1624845158.0,32.000000
-42,9,49,1624845158.0,32.000000
-42,9,49,1624845158.0,32.000000
-42,9,49,1624845158.0,32.000000
-42,9,49,1624845158.0,32.000000
-42,9,49,1624845158.0,32.000000
-42,9,49,1624845158.0,32.000000
-43,10,48,1624845158.0,32.000000
-43,10,48,1624845158.0,32.000000
-43,9,49,1624845158.0,32.000000
-44,10,47,1624845158.0,32.000000
-45,10,47,1624845158.0,32.000000
-45,8,50,1624845158.0,32.000000
-42,9,50,1624845158.0,32.000000
-39,9,50,1624845158.0,32.000000
-42,8,50,1624845158.0,32.000000
-43,8,50,1624845158.0,32.000000
-45,10,47,1624845158.0,32.000000
-47,10,47,1624845158.0,32.000000
-44,9,48,1624845158.0,32.000000
-44,8,47,1624845158.0,32.000000
-46,8,45,1624845158.0,32.000000
-46,7,48,1624845158.0,32.000000
-45,8,48,1624845158.0,32.000000
-45,8,47,1624845158.0,32.000000
-47,8,47,1624845158.0,32.000000
-48,9,46,1624845158.0,32.000000
-44,8,47,1624845158.0,32.000000
-44,8,47,1624845158.0,32.000000
-44,7,48,1624845158.0,32.000000
-45,8,47,1624845158.0,32.000000
-45,7,48,1624845158.0,32.000000
-46,7,48,1624845158.0,32.000000
-46,9,47,1624845158.0,32.000000
-44,9,47,1624845158.0,32.000000
-44,9,46,1624845158.0,32.000000
-44,9,47,1624845158.0,32.000000
-45,9,48,1624845158.0,32.000000
-44,10,48,1624845158.0,32.000000
-44,10,47,1624845158.0,32.000000
-44,10,47,1624845158.0,32.000000
-45,10,47,1624845158.0,32.000000
-46,9,48,1624845158.0,32.000000
-45,9,47,1624845158.0,32.000000
-44,9,47,1624845158.0,32.000000
-44,9,48,1624845158.0,32.000000
-44,9,48,1624845158.0,32.000000
-44,9,47,1624845158.0,32.000000
-45,9,48,1624845158.0,32.000000
-45,9,48,1624845158.0,32.000000
-44,9,48,1624845158.0,32.000000
-43,10,48,1624845158.0,32.000000
-45,9,47,1624845158.0,32.000000
-44,8,48,1624845158.0,32.000000
-44,9,48,1624845158.0,32.000000
-45,9,48,1624845158.0,32.000000
-45,9,48,1624845158.0,32.000000
-45,9,47,1624845158.0,32.000000
-45,9,48,1624845158.0,32.000000
-44,9,48,1624845158.0,32.000000
-44,9,48,1624845158.0,32.000000
-45,9,48,1624845158.0,32.000000
-44,9,48,1624845158.0,32.000000
-45,9,47,1624845158.0,32.000000
-45,9,48,1624845158.0,32.000000
-44,9,48,1624845158.0,32.000000
-44,9,47,1624845158.0,32.000000
-45,9,47,1624845158.0,32.000000
-45,9,47,1624845158.0,32.000000
-44,9,47,1624845158.0,32.000000
-45,9,47,1624845158.0,32.000000
-45,9,48,1624845158.0,32.000000
-45,9,47,1624845158.0,32.000000
-44,9,48,1624845158.0,32.000000
-44,9,48,1624845158.0,32.000000
-45,9,47,1624845158.0,32.000000
-45,9,47,1624845158.0,32.000000
-44,9,48,1624845158.0,32.000000
-45,9,47,1624845158.0,32.000000
-44,9,47,1624845158.0,32.000000
-45,9,48,1624845158.0,32.000000
-44,9,48,1624845158.0,32.000000
-44,9,48,1624845158.0,32.000000
-45,9,48,1624845158.0,32.000000
-45,9,48,1624845158.0,32.000000
-44,9,48,1624845158.0,32.000000
-44,9,48,1624845158.0,32.000000
-45,9,48,1624845158.0,32.000000
-44,8,48,1624845158.0,32.000000
-44,9,48,1624845158.0,32.000000
-44,9,48,1624845158.0,32.000000
-45,9,48,1624845158.0,32.000000
-45,9,47,1624845158.0,32.000000
-44,9,48,1624845158.0,32.000000
-44,9,48,1624845158.0,32.000000
-45,9,47,1624845158.0,32.000000
-44,9,48,1624845158.0,32.000000
-44,9,48,1624845158.0,32.000000
-45,9,47,1624845158.0,32.000000
-45,9,47,1624845158.0,32.000000
-45,9,48,1624845158.0,32.000000
-44,9,47,1624845158.0,32.000000
-45,9,47,1624845158.0,32.000000
-45,9,47,1624845158.0,32.000000
-45,9,47,1624845158.0,32.000000
-45,9,47,1624845158.0,32.000000
-44,9,48,1624845158.0,32.000000
-44,9,48,1624845158.0,32.000000
-45,9,47,1624845158.0,32.000000
-45,9,47,1624845158.0,32.000000
-44,9,48,1624845158.0,32.000000
-45,9,47,1624845158.0,32.000000
-45,9,47,1624845158.0,32.000000
-45,9,47,1624845158.0,32.000000
-44,8,47,1624845158.0,32.000000
-45,9,47,1624845158.0,32.000000
-45,9,47,1624845158.0,32.000000
-45,9,47,1624845158.0,32.000000
-44,9,47,1624845158.0,32.000000
-45,9,48,1624845158.0,32.000000
-45,9,47,1624845158.0,32.000000
-45,9,48,1624845158.0,32.000000
-45,9,48,1624845158.0,32.000000
-45,9,47,1624845158.0,32.000000
-45,9,47,1624845158.0,32.000000
-45,9,48,1624845158.0,32.000000
-45,9,47,1624845158.0,32.000000
-45,9,47,1624845158.0,32.000000
-45,9,48,1624845158.0,32.000000
-44,9,48,1624845158.0,32.000000
-45,9,47,1624845158.0,32.000000
-45,9,47,1624845158.0,32.000000
-44,9,48,1624845158.0,32.000000
-44,9,48,1624845158.0,32.000000
-45,9,47,1624845158.0,32.000000
-45,9,47,1624845158.0,32.000000
-44,9,48,1624845158.0,32.000000
-45,9,48,1624845158.0,32.000000
-44,9,48,1624845158.0,32.000000
-44,9,48,1624845158.0,32.000000
-44,9,47,1624845158.0,32.000000
-45,9,48,1624845158.0,32.000000
-44,9,48,1624845158.0,32.000000
-45,9,48,1624845158.0,32.000000
-45,9,48,1624845158.0,32.000000
-45,9,48,1624845158.0,32.000000
-45,9,48,1624845158.0,32.000000
-44,9,48,1624845158.0,32.000000
-44,9,47,1624845158.0,32.000000
-45,9,48,1624845158.0,32.000000
-44,9,48,1624845158.0,32.000000
-45,9,48,1624845158.0,32.000000
-45,9,48,1624845158.0,32.000000
-44,9,48,1624845158.0,32.000000
-44,9,48,1624845158.0,32.000000
-45,9,48,1624845158.0,32.000000
-45,9,47,1624845158.0,32.000000
-44,9,48,1624845158.0,32.000000
-44,9,48,1624845158.0,32.000000
-45,9,47,1624845158.0,32.000000
-45,9,47,1624845158.0,32.000000
-45,9,48,1624845158.0,32.000000
-44,9,48,1624845158.0,32.000000
-44,9,48,1624845158.0,32.000000
-45,9,47,1624845158.0,32.000000
-45,8,48,1624845158.0,32.000000
-44,8,48,1624845158.0,32.000000
-44,8,48,1624845158.0,32.000000
-44,10,47,1624845158.0,32.000000
-46,11,47,1624845158.0,32.000000
-45,10,47,1624845158.0,32.000000
-45,8,47,1624845158.0,32.000000
-45,8,47,1624845158.0,32.000000
-45,8,48,1624845158.0,32.000000
-45,9,48,1624845158.0,32.000000
-45,8,47,1624845158.0,32.000000
-45,9,47,1624845158.0,32.000000
-44,9,48,1624845158.0,32.000000
-44,9,48,1624845158.0,32.000000
-43,9,48,1624845158.0,32.000000
-44,10,48,1624845158.0,32.000000
-45,9,47,1624845158.0,32.000000
-45,9,47,1624845158.0,32.000000
-45,9,47,1624845158.0,32.000000
-44,9,48,1624845158.0,32.000000
-45,9,48,1624845158.0,32.000000
-45,9,48,1624845158.0,32.000000
-45,9,47,1624845158.0,32.000000
-44,9,48,1624845158.0,32.000000
-44,10,48,1624845158.0,32.000000
-44,9,48,1624845158.0,32.000000
-44,9,48,1624845158.0,32.000000
-44,9,48,1624845158.0,32.000000
-45,9,47,1624845158.0,32.000000
-44,9,48,1624845158.0,32.000000
-45,9,48,1624845158.0,32.000000
-45,9,47,1624845158.0,32.000000
-45,9,47,1624845158.0,32.000000
-44,9,47,1624845158.0,32.000000
-45,9,47,1624845158.0,32.000000
-45,9,48,1624845158.0,32.000000
-44,9,48,1624845158.0,32.000000
-44,9,48,1624845158.0,32.000000
-44,9,48,1624845158.0,32.000000
-45,9,47,1624845158.0,32.000000
-45,9,47,1624845158.0,32.000000
-44,9,48,1624845158.0,32.000000
-44,9,47,1624845158.0,32.000000
-45,9,47,1624845158.0,32.000000
-44,9,48,1624845158.0,32.000000
-44,9,48,1624845158.0,32.000000
-45,9,47,1624845158.0,32.000000
-45,9,47,1624845158.0,32.000000
-45,9,47,1624845158.0,32.000000
-45,9,47,1624845158.0,32.000000
-45,9,47,1624845158.0,32.000000
-45,9,48,1624845158.0,32.000000
-45,9,47,1624845158.0,32.000000
-45,9,47,1624845158.0,32.000000
-45,9,47,1624845158.0,32.000000
-45,9,47,1624845158.0,32.000000
-45,9,47,1624845158.0,32.000000
-45,9,48,1624845158.0,32.000000
-44,8,49,1624845158.0,32.000000
-44,9,48,1624845158.0,32.000000
-45,9,47,1624845158.0,32.000000
-45,9,47,1624845158.0,32.000000
-45,9,48,1624845158.0,32.000000
-45,9,48,1624845158.0,32.000000
-45,9,47,1624845158.0,32.000000
-44,9,48,1624845158.0,32.000000
-45,9,48,1624845158.0,32.000000
-45,9,47,1624845158.0,32.000000
-45,9,48,1624845158.0,32.000000
-44,9,48,1624845158.0,32.000000
-44,9,47,1624845158.0,32.000000
-45,9,47,1624845158.0,32.000000
-45,9,48,1624845158.0,32.000000
-45,9,47,1624845158.0,32.000000
-44,9,48,1624845158.0,32.000000
-44,9,48,1624845158.0,32.000000
-45,9,47,1624845158.0,32.000000
-45,9,47,1624845158.0,32.000000
-44,9,48,1624845158.0,32.000000
-44,9,48,1624845158.0,32.000000
-45,9,47,1624845158.0,32.000000
-45,9,47,1624845158.0,32.000000
-44,9,48,1624845158.0,32.000000
-45,9,48,1624845158.0,32.000000
-45,9,47,1624845158.0,32.000000
-45,9,47,1624845158.0,32.000000
-44,9,48,1624845158.0,32.000000
-45,9,48,1624845158.0,32.000000
-44,9,48,1624845158.0,32.000000
-44,9,48,1624845158.0,32.000000
-44,9,48,1624845158.0,32.000000
-44,9,48,1624845158.0,32.000000
-44,9,47,1624845158.0,32.000000
-44,9,48,1624845158.0,32.000000
-44,9,48,1624845158.0,32.000000
-45,9,48,1624845158.0,32.000000
-44,9,47,1624845158.0,32.000000
-44,9,48,1624845158.0,32.000000
-44,9,48,1624845158.0,32.000000
-44,9,48,1624845158.0,32.000000
-45,9,48,1624845158.0,32.000000
-44,9,48,1624845158.0,32.000000
-44,9,48,1624845158.0,32.000000
-45,9,48,1624845158.0,32.000000
-44,9,48,1624845158.0,32.000000
-45,9,48,1624845158.0,32.000000
-44,9,48,1624845158.0,32.000000
-45,9,47,1624845158.0,32.000000
-44,9,48,1624845158.0,32.000000
-44,9,48,1624845158.0,32.000000
-44,9,48,1624845158.0,32.000000
-45,9,47,1624845158.0,32.000000
-44,9,48,1624845158.0,32.000000
-44,9,48,1624845158.0,32.000000
-45,9,48,1624845158.0,32.000000
-44,9,48,1624845158.0,32.000000
-44,9,48,1624845158.0,32.000000
-44,9,48,1624845158.0,32.000000
-44,9,47,1624845158.0,32.000000
-45,9,48,1624845158.0,32.000000
-44,9,48,1624845158.0,32.000000
-44,9,48,1624845158.0,32.000000
-44,9,48,1624845158.0,32.000000
-45,9,48,1624845158.0,32.000000
-44,9,48,1624845158.0,32.000000
-44,9,48,1624845158.0,32.000000
-45,9,47,1624845158.0,32.000000
-44,9,48,1624845158.0,32.000000
-44,9,48,1624845158.0,32.000000
-45,9,48,1624845158.0,32.000000
-44,9,48,1624845158.0,32.000000
-44,9,48,1624845158.0,32.000000
-44,9,48,1624845158.0,32.000000
-45,9,48,1624845158.0,32.000000
-44,9,48,1624845158.0,32.000000
-44,9,48,1624845158.0,32.000000
-44,9,47,1624845158.0,32.000000
-44,9,48,1624845158.0,32.000000
-44,9,48,1624845158.0,32.000000
-45,9,48,1624845158.0,32.000000
-45,9,48,1624845158.0,32.000000
-44,9,48,1624845158.0,32.000000
-44,9,48,1624845158.0,32.000000
-44,9,48,1624845158.0,32.000000
-45,9,47,1624845158.0,32.000000
-44,9,47,1624845158.0,32.000000
-44,9,48,1624845158.0,32.000000
-44,9,48,1624845158.0,32.000000
-44,9,47,1624845158.0,32.000000
-44,9,48,1624845158.0,32.000000
-44,9,48,1624845158.0,32.000000
-45,9,48,1624845158.0,32.000000
-44,9,48,1624845158.0,32.000000
-44,9,48,1624845158.0,32.000000
-44,9,48,1624845158.0,32.000000
-44,9,48,1624845158.0,32.000000
-44,9,48,1624845158.0,32.000000
-45,9,47,1624845158.0,32.000000
-44,9,48,1624845158.0,32.000000
-44,9,48,1624845158.0,32.000000
-45,9,47,1624845158.0,32.000000
-44,9,48,1624845158.0,32.000000
-45,9,47,1624845158.0,32.000000
-45,9,47,1624845158.0,32.000000
-44,9,48,1624845158.0,32.000000
-44,9,48,1624845158.0,32.000000
-44,9,47,1624845158.0,32.000000
-45,9,47,1624845158.0,32.000000
-45,9,47,1624845158.0,32.000000
-45,9,47,1624845158.0,32.000000
-45,10,48,1624845158.0,32.000000
-45,10,47,1624845158.0,32.000000
-44,9,47,1624845158.0,32.000000
-44,9,47,1624845158.0,32.000000
-45,9,47,1624845158.0,32.000000
-46,8,48,1624845158.0,32.000000
-45,7,47,1624845158.0,32.000000
-45,7,47,1624845158.0,32.000000
-45,8,46,1624845158.0,32.000000
-48,8,46,1624845158.0,32.000000
-48,8,44,1624845158.0,32.000000
-48,8,44,1624845158.0,32.000000
-48,8,45,1624845158.0,32.000000
-48,7,46,1624845158.0,32.000000
-48,9,44,1624845158.0,32.000000
-48,10,45,1624845158.0,32.000000
-49,9,45,1624845158.0,32.000000
-46,8,45,1624845158.0,32.000000
-46,8,45,1624845158.0,32.000000
-49,8,44,1624845158.0,32.000000
-47,8,45,1624845158.0,32.000000
-48,8,43,1624845158.0,32.000000
-49,9,43,1624845158.0,32.000000
-50,8,45,1624845158.0,32.000000
-48,8,45,1624845158.0,32.000000
-48,8,44,1624845158.0,32.000000
-48,8,44,1624845158.0,32.000000
-48,8,45,1624845158.0,32.000000
-48,8,44,1624845158.0,32.000000
-48,8,44,1624845158.0,32.000000
-48,8,44,1624845158.0,32.000000
-48,9,45,1624845158.0,32.000000
-46,7,45,1624845158.0,32.000000
-47,7,46,1624845158.0,32.000000
-48,8,46,1624845158.0,32.000000
-46,9,45,1624845158.0,32.000000
-46,9,45,1624845158.0,32.000000
-46,9,47,1624845158.0,32.000000
-46,8,46,1624845158.0,32.000000
-46,8,46,1624845158.0,32.000000
-46,8,47,1624845158.0,32.000000
-45,8,47,1624845158.0,32.000000
-46,8,46,1624845158.0,32.000000
-47,9,45,1624845158.0,32.000000
-46,9,46,1624845158.0,32.000000
-46,8,47,1624845158.0,32.000000
-46,9,47,1624845158.0,32.000000
-46,9,46,1624845158.0,32.000000
-46,9,46,1624845158.0,32.000000
-46,8,47,1624845158.0,32.000000
-46,8,47,1624845158.0,32.000000
-45,9,47,1624845158.0,32.000000
-45,9,47,1624845158.0,32.000000
-46,8,46,1624845158.0,32.000000
-46,8,47,1624845158.0,32.000000
-45,8,47,1624845158.0,32.000000
-46,8,47,1624845158.0,32.000000
-45,8,47,1624845158.0,32.000000
-45,8,47,1624845158.0,32.000000
-45,8,47,1624845158.0,32.000000
-45,9,47,1624845158.0,32.000000
-45,9,47,1624845158.0,32.000000
-45,8,47,1624845158.0,32.000000
-45,8,47,1624845158.0,32.000000
-45,8,47,1624845158.0,32.000000
-45,9,47,1624845158.0,32.000000
-45,9,47,1624845158.0,32.000000
-44,9,47,1624845158.0,32.000000
-45,8,47,1624845158.0,32.000000
-45,9,47,1624845158.0,32.000000
-45,8,47,1624845158.0,32.000000
-45,8,47,1624845158.0,32.000000
-45,9,47,1624845158.0,32.000000
-45,9,47,1624845158.0,32.000000
-45,9,47,1624845158.0,32.000000
-45,8,47,1624845158.0,32.000000
-45,8,47,1624845158.0,32.000000
-45,9,48,1624845158.0,32.000000
-44,9,48,1624845158.0,32.000000
-45,10,47,1624845158.0,32.000000
-46,12,48,1624845158.0,32.000000
-47,13,48,1624845158.0,32.000000
-47,7,50,1624845158.0,32.000000
-50,1,50,1624845158.0,32.000000
-51,2,50,1624845158.0,32.000000
-54,4,49,1624845158.0,32.000000
-46,6,53,1624845158.0,32.000000
-39,10,56,1624845158.0,32.000000
-46,8,37,1624845158.0,32.000000
-51,-5,40,1624845158.0,32.000000
-40,13,53,1624845158.0,32.000000
-59,24,42,1624845158.0,32.000000
-66,24,33,1624845158.0,32.000000
-75,33,19,1624845158.0,32.000000
-77,39,15,1624845158.0,32.000000
-81,36,2,1624845158.0,32.000000
-74,34,2,1624845158.0,32.000000
-42,35,12,1624845158.0,32.000000
-40,32,-4,1624845158.0,32.000000
-30,34,-6,1624845158.0,32.000000
-4,41,-7,1624845158.0,32.000000
-16,49,-19,1624845158.0,32.000000
-11,54,-19,1624845158.0,32.000000
14,61,-20,1624845158.0,32.000000
18,65,-28,1624845158.0,32.000000
-1,56,-29,1624845158.0,32.000000
-1,50,-14,1624845158.0,32.000000
-13,53,-12,1624845158.0,32.000000
-25,64,5,1624845158.0,32.000000
-18,68,7,1624845158.0,32.000000
-31,64,-12,1624845158.0,32.000000
-30,61,-2,1624845158.0,32.000000
-20,58,5,1624845158.0,32.000000
-38,49,2,1624845158.0,32.000000
-37,53,-4,1624845158.0,32.000000
-33,57,-13,1624845158.0,32.000000
-24,60,-11,1624845158.0,32.000000
-28,63,-12,1624845158.0,32.000000
-35,60,-17,1624845158.0,32.000000
-33,57,-16,1624845158.0,32.000000
-30,56,-12,1624845158.0,32.000000
-32,55,-15,1624845158.0,32.000000
-32,55,-16,1624845158.0,32.000000
-26,53,-10,1624845158.0,32.000000
-26,53,-11,1624845158.0,32.000000
-32,54,-11,1624845158.0,32.000000
-28,54,-15,1624845158.0,32.000000
-26,56,-15,1624845158.0,32.000000
-28,58,-14,1624845158.0,32.000000
-28,56,-13,1624845158.0,32.000000
-27,55,-11,1624845158.0,32.000000
-27,56,-12,1624845158.0,32.000000
-33,54,-11,1624845158.0,32.000000
-28,55,-14,1624845158.0,32.000000
-29,59,-21,1624845158.0,32.000000
-33,54,-16,1624845158.0,32.000000
-35,51,-11,1624845158.0,32.000000
-44,47,-6,1624845158.0,32.000000
-61,34,-2,1624845158.0,32.000000
-57,37,-6,1624845158.0,32.000000
-57,43,-23,1624845158.0,32.000000
-46,46,-43,1624845158.0,32.000000
-29,49,-46,1624845158.0,32.000000
-12,58,-31,1624845158.0,32.000000
-13,53,-15,1624845158.0,32.000000
-28,44,-1,1624845158.0,32.000000
-53,46,-8,1624845158.0,32.000000
-55,47,-9,1624845158.0,32.000000
-48,47,3,1624845158.0,32.000000
-52,47,6,1624845158.0,32.000000
-56,47,11,1624845158.0,32.000000
-56,45,24,1624845158.0,32.000000
-56,45,24,1624845158.0,32.000000
-59,42,26,1624845158.0,32.000000
-56,41,28,1624845158.0,32.000000
-51,40,26,1624845158.0,32.000000
-55,36,29,1624845158.0,32.000000
-53,37,25,1624845158.0,32.000000
-50,35,21,1624845158.0,32.000000
-49,36,19,1624845158.0,32.000000
-54,35,17,1624845158.0,32.000000
-51,37,13,1624845158.0,32.000000
-52,38,10,1624845158.0,32.000000
-58,37,9,1624845158.0,32.000000
-56,37,12,1624845158.0,32.000000
-54,37,10,1624845158.0,32.000000
-53,35,15,1624845158.0,32.000000
-49,35,19,1624845158.0,32.000000
-44,35,21,1624845158.0,32.000000
-43,33,24,1624845158.0,32.000000
-46,32,25,1624845158.0,32.000000
-51,31,30,1624845158.0,32.000000
-48,32,34,1624845158.0,32.000000
-47,34,37,1624845158.0,32.000000
-48,34,33,1624845158.0,32.000000
-48,28,45,1624845158.0,32.000000
-54,31,44,1624845158.0,32.000000
-48,34,31,1624845158.0,32.000000
-58,32,15,1624845158.0,32.000000
-44,31,26,1624845158.0,32.000000
-36,33,22,1624845158.0,32.000000
-62,27,2,1624845158.0,32.000000
-72,27,-2,1624845158.0,32.000000
-57,29,-1,1624845158.0,32.000000
-53,31,-1,1624845158.0,32.000000
-56,32,-4,1624845158.0,32.000000
-49,31,-17,1624845158.0,32.000000
-53,31,-25,1624845158.0,32.000000
-61,30,-42,1624845158.0,32.000000
-64,24,-43,1624845158.0,32.000000
-63,25,-40,1624845158.0,32.000000
-58,20,-29,1624845158.0,32.000000
-49,19,-14,1624845158.0,32.000000
-54,20,0,1624845158.0,32.000000
-59,27,-8,1624845158.0,32.000000
-52,27,-16,1624845158.0,32.000000
-67,30,-18,1624845158.0,32.000000
-82,35,-17,1624845158.0,32.000000
-66,36,-14,1624845158.0,32.000000
-36,39,-2,1624845158.0,32.000000
-40,38,7,1624845158.0,32.000000
-41,31,32,1624845158.0,32.000000
-36,28,32,1624845158.0,32.000000
-49,31,25,1624845158.0,32.000000
-24,26,38,1624845158.0,32.000000
-55,31,33,1624845158.0,32.000000
-51,32,24,1624845158.0,32.000000
-53,31,29,1624845158.0,32.000000
-45,32,23,1624845158.0,32.000000
-66,31,23,1624845158.0,32.000000
-63,31,29,1624845158.0,32.000000
-51,30,28,1624845158.0,32.000000
-49,30,23,1624845158.0,32.000000
-69,27,15,1624845158.0,32.000000
-53,30,20,1624845158.0,32.000000
-61,29,16,1624845158.0,32.000000
-60,32,12,1624845158.0,32.000000
-63,32,6,1624845158.0,32.000000
-57,32,-2,1624845158.0,32.000000
-57,30,8,1624845158.0,32.000000
-58,27,15,1624845158.0,32.000000
-60,27,29,1624845158.0,32.000000
-53,30,31,1624845158.0,32.000000
-57,31,3,1624845158.0,32.000000
-62,23,15,1624845158.0,32.000000
-63,22,17,1624845158.0,32.000000
-51,29,22,1624845158.0,32.000000
-61,24,17,1624845158.0,32.000000
-64,23,20,1624845158.0,32.000000
-59,25,18,1624845158.0,32.000000
-62,22,15,1624845158.0,32.000000
-63,19,12,1624845158.0,32.000000
-66,17,2,1624845158.0,32.000000
-67,15,6,1624845158.0,32.000000
-68,15,3,1624845158.0,32.000000
-58,18,-3,1624845158.0,32.000000
-60,16,14,1624845158.0,32.000000
-73,16,12,1624845158.0,32.000000
-65,17,11,1624845158.0,32.000000
-51,14,9,1624845158.0,32.000000
-54,16,8,1624845158.0,32.000000
-61,16,10,1624845158.0,32.000000
-64,19,13,1624845158.0,32.000000
-64,19,11,1624845158.0,32.000000
-65,19,9,1624845158.0,32.000000
-66,18,10,1624845158.0,32.000000
-64,16,14,1624845158.0,32.000000
-64,17,14,1624845158.0,32.000000
-63,18,15,1624845158.0,32.000000
-59,18,17,1624845158.0,32.000000
-59,18,18,1624845158.0,32.000000
-63,18,20,1624845158.0,32.000000
-63,19,20,1624845158.0,32.000000
-63,18,19,1624845158.0,32.000000
-61,18,21,1624845158.0,32.000000
-60,17,23,1624845158.0,32.000000
-58,18,24,1624845158.0,32.000000
-58,18,25,1624845158.0,32.000000
-60,18,26,1624845158.0,32.000000
-56,17,28,1624845158.0,32.000000
-56,17,28,1624845158.0,32.000000
-60,18,29,1624845158.0,32.000000
-57,19,30,1624845158.0,32.000000
-56,19,31,1624845158.0,32.000000
-57,20,38,1624845158.0,32.000000
-55,20,40,1624845158.0,32.000000
-51,21,39,1624845158.0,32.000000
-55,21,36,1624845158.0,32.000000
-55,22,37,1624845158.0,32.000000
-47,23,36,1624845158.0,32.000000
-46,24,33,1624845158.0,32.000000
-48,23,29,1624845158.0,32.000000
-49,23,35,1624845158.0,32.000000
-46,23,37,1624845158.0,32.000000
-45,20,36,1624845158.0,32.000000
-52,17,36,1624845158.0,32.000000
-48,19,37,1624845158.0,32.000000
-48,18,38,1624845158.0,32.000000
-53,15,39,1624845158.0,32.000000
-48,14,43,1624845158.0,32.000000
-46,14,42,1624845158.0,32.000000
-46,11,40,1624845158.0,32.000000
-46,11,46,1624845158.0,32.000000
-44,12,47,1624845158.0,32.000000
-43,12,46,1624845158.0,32.000000
-45,12,45,1624845158.0,32.000000
-52,12,48,1624845158.0,32.000000
-51,11,48,1624845158.0,32.000000
-48,11,45,1624845158.0,32.000000
-47,12,43,1624845158.0,32.000000
-49,13,44,1624845158.0,32.000000
-50,15,43,1624845158.0,32.000000
-49,17,44,1624845158.0,32.000000
-50,17,43,1624845158.0,32.000000
-54,16,40,1624845158.0,32.000000
-53,14,37,1624845158.0,32.000000
-52,13,38,1624845158.0,32.000000
-51,12,39,1624845158.0,32.000000
-51,11,39,1624845158.0,32.000000
-51,12,40,1624845158.0,32.000000
-50,13,41,1624845158.0,32.000000
-48,15,41,1624845158.0,32.000000
-52,15,38,1624845158.0,32.000000
-52,15,38,1624845158.0,32.000000
-54,15,36,1624845158.0,32.000000
-56,14,35,1624845158.0,32.000000
-57,13,34,1624845158.0,32.000000
-51,13,41,1624845158.0,32.000000
-51,14,42,1624845158.0,32.000000
-53,15,43,1624845158.0,32.000000
-52,15,46,1624845158.0,32.000000
-51,16,47,1624845158.0,32.000000
-48,17,48,1624845158.0,32.000000
-48,17,48,1624845158.0,32.000000
-47,17,45,1624845158.0,32.000000
-38,16,38,1624845158.0,32.000000
-41,15,32,1624845158.0,32.000000
-49,13,29,1624845158.0,32.000000
-47,13,27,1624845158.0,32.000000
-50,14,27,1624845158.0,32.000000
-47,10,25,1624845158.0,32.000000
-52,9,20,1624845158.0,32.000000
-62,4,21,1624845158.0,32.000000
-56,3,30,1624845158.0,32.000000
-64,2,35,1624845158.0,32.000000
-87,2,35,1624845158.0,32.000000
-53,4,37,1624845158.0,32.000000
-59,13,33,1624845158.0,32.000000
-66,13,29,1624845158.0,32.000000
-73,11,26,1624845158.0,32.000000
-54,6,27,1624845158.0,32.000000
-58,5,23,1624845158.0,32.000000
-62,6,21,1624845158.0,32.000000
-65,5,23,1624845158.0,32.000000
-66,6,25,1624845158.0,32.000000
-55,7,28,1624845158.0,32.000000
-56,7,28,1624845158.0,32.000000
-63,7,26,1624845158.0,32.000000
-61,6,27,1624845158.0,32.000000
-60,5,26,1624845158.0,32.000000
-63,5,27,1624845158.0,32.000000
-61,6,27,1624845158.0,32.000000
-59,6,27,1624845158.0,32.000000
-60,6,26,1624845158.0,32.000000
-62,6,27,1624845158.0,32.000000
-58,6,27,1624845158.0,32.000000
-59,6,26,1624845158.0,32.000000
-61,5,28,1624845158.0,32.000000
-60,5,28,1624845158.0,32.000000
-60,5,28,1624845158.0,32.000000
-60,6,26,1624845158.0,32.000000
-61,6,26,1624845158.0,32.000000
-61,6,27,1624845158.0,32.000000
-60,6,27,1624845158.0,32.000000
-59,8,27,1624845158.0,32.000000
-59,7,28,1624845158.0,32.000000
-59,6,29,1624845158.0,32.000000
-60,6,28,1624845158.0,32.000000
-60,6,27,1624845158.0,32.000000
-60,6,26,1624845158.0,32.000000
-61,5,29,1624845158.0,32.000000
-60,5,26,1624845158.0,32.000000
-59,6,31,1624845158.0,32.000000
-57,6,30,1624845158.0,32.000000
-61,6,27,1624845158.0,32.000000
-61,7,25,1624845158.0,32.000000
-59,7,25,1624845158.0,32.000000
-59,5,30,1624845158.0,32.000000
-60,6,26,1624845158.0,32.000000
-59,6,26,1624845158.0,32.000000
-64,5,27,1624845158.0,32.000000
-62,4,27,1624845158.0,32.000000
-60,4,26,1624845158.0,32.000000
-60,5,27,1624845158.0,32.000000
-61,5,28,1624845158.0,32.000000
-62,6,27,1624845158.0,32.000000
-60,6,26,1624845158.0,32.000000
-62,6,26,1624845158.0,32.000000
-58,6,30,1624845158.0,32.000000
-58,7,29,1624845158.0,32.000000
-58,6,31,1624845158.0,32.000000
-58,6,32,1624845158.0,32.000000
-60,6,28,1624845158.0,32.000000
-61,7,25,1624845158.0,32.000000
-62,6,25,1624845158.0,32.000000
-60,6,29,1624845158.0,32.000000
-59,6,29,1624845158.0,32.000000
-60,6,28,1624845158.0,32.000000
-59,6,29,1624845158.0,32.000000
-60,6,28,1624845158.0,32.000000
-60,6,28,1624845158.0,32.000000
-60,6,28,1624845158.0,32.000000
-60,6,28,1624845158.0,32.000000
-60,7,28,1624845158.0,32.000000
-60,6,28,1624845158.0,32.000000
-60,6,29,1624845158.0,32.000000
-60,6,29,1624845158.0,32.000000
-60,7,27,1624845158.0,32.000000
-60,7,28,1624845158.0,32.000000
-60,7,29,1624845158.0,32.000000
-60,7,27,1624845158.0,32.000000
-59,7,28,1624845158.0,32.000000
-60,7,28,1624845158.0,32.000000
-60,7,28,1624845158.0,32.000000
-60,7,29,1624845158.0,32.000000
-60,7,28,1624845158.0,32.000000
-60,7,28,1624845158.0,32.000000
-60,7,28,1624845158.0,32.000000
-60,6,28,1624845158.0,32.000000
-60,7,28,1624845158.0,32.000000
-60,7,28,1624845158.0,32.000000
-60,6,28,1624845158.0,32.000000
-59,7,28,1624845158.0,32.000000
-60,7,28,1624845158.0,32.000000
-60,7,28,1624845158.0,32.000000
-60,7,28,1624845158.0,32.000000
-60,7,28,1624845158.0,32.000000
-60,7,28,1624845158.0,32.000000
-60,7,28,1624845158.0,32.000000
-60,7,28,1624845158.0,32.000000
-60,7,28,1624845158.0,32.000000
-60,7,28,1624845158.0,32.000000
-60,7,28,1624845158.0,32.000000
-60,7,28,1624845158.0,32.000000
-60,7,28,1624845158.0,32.000000
-60,7,28,1624845158.0,32.000000
-60,7,28,1624845158.0,32.000000
-60,7,28,1624845158.0,32.000000
-60,7,28,1624845158.0,32.000000
-60,7,28,1624845158.0,32.000000
-60,7,28,1624845158.0,32.000000
-60,7,28,1624845158.0,32.000000
-60,7,29,1624845158.0,32.000000
-59,7,29,1624845158.0,32.000000
-60,7,28,1624845158.0,32.000000
-60,6,27,1624845158.0,32.000000
-60,7,28,1624845158.0,32.000000
-60,7,29,1624845158.0,32.000000
-59,7,28,1624845158.0,32.000000
-60,7,28,1624845158.0,32.000000
-60,7,28,1624845158.0,32.000000
-60,6,28,1624845158.0,32.000000
-60,7,29,1624845158.0,32.000000
-59,7,29,1624845158.0,32.000000
-59,7,28,1624845158.0,32.000000
-60,7,28,1624845158.0,32.000000
-60,7,28,1624845158.0,32.000000
-60,7,28,1624845158.0,32.000000
-59,6,29,1624845158.0,32.000000
-60,7,29,1624845158.0,32.000000
-60,7,28,1624845158.0,32.000000
-59,7,29,1624845158.0,32.000000
-59,7,29,1624845158.0,32.000000
-60,7,28,1624845158.0,32.000000
-60,7,28,1624845158.0,32.000000
-60,7,29,1624845158.0,32.000000
-60,7,28,1624845158.0,32.000000
-60,7,28,1624845158.0,32.000000
-60,7,29,1624845158.0,32.000000
-59,7,29,1624845158.0,32.000000
-60,7,28,1624845158.0,32.000000
-59,7,29,1624845158.0,32.000000
-60,7,29,1624845158.0,32.000000
-59,7,27,1624845158.0,32.000000
-60,7,27,1624845158.0,32.000000
-62,7,26,1624845158.0,32.000000
-60,7,28,1624845158.0,32.000000
-60,7,28,1624845158.0,32.000000
-60,6,28,1624845158.0,32.000000
-60,6,28,1624845158.0,32.000000
-61,6,26,1624845158.0,32.000000
-62,6,26,1624845158.0,32.000000
-62,7,27,1624845158.0,32.000000
-59,7,29,1624845158.0,32.000000
-58,8,28,1624845158.0,32.000000
-60,8,26,1624845158.0,32.000000
-61,9,26,1624845158.0,32.000000
-59,8,28,1624845158.0,32.000000
-60,7,29,1624845158.0,32.000000
-60,6,30,1624845158.0,32.000000
-57,6,29,1624845158.0,32.000000
-58,8,32,1624845158.0,32.000000
-59,7,32,1624845158.0,32.000000
-59,8,29,1624845158.0,32.000000
-60,8,29,1624845158.0,32.000000
-59,8,29,1624845158.0,32.000000
-59,7,29,1624845158.0,32.000000
-60,7,29,1624845158.0,32.000000
-58,7,30,1624845158.0,32.000000
-59,8,30,1624845158.0,32.000000
-58,8,30,1624845158.0,32.000000
-60,7,30,1624845158.0,32.000000
-60,6,30,1624845158.0,32.000000
-58,7,29,1624845158.0,32.000000
-58,9,29,1624845158.0,32.000000
-59,9,31,1624845158.0,32.000000
-59,7,30,1624845158.0,32.000000
-59,7,30,1624845158.0,32.000000
-58,6,30,1624845158.0,32.000000
-59,7,31,1624845158.0,32.000000
-59,8,31,1624845158.0,32.000000
-59,8,30,1624845158.0,32.000000
-59,8,30,1624845158.0,32.000000
-58,7,30,1624845158.0,32.000000
-58,7,31,1624845158.0,32.000000
-58,7,31,1624845158.0,32.000000
-59,7,30,1624845158.0,32.000000
-59,8,30,1624845158.0,32.000000
-59,8,30,1624845158.0,32.000000
-58,8,31,1624845158.0,32.000000
-58,8,31,1624845158.0,32.000000
-58,8,31,1624845158.0,32.000000
-58,8,31,1624845158.0,32.000000
-57,8,31,1624845158.0,32.000000
-59,8,30,1624845158.0,32.000000
-59,8,31,1624845158.0,32.000000
-58,7,31,1624845158.0,32.000000
-58,8,30,1624845158.0,32.000000
-59,8,31,1624845158.0,32.000000
-58,8,31,1624845158.0,32.000000
-58,8,30,1624845158.0,32.000000
-59,7,31,1624845158.0,32.000000
-59,7,31,1624845158.0,32.000000
-58,7,31,1624845158.0,32.000000
-59,7,31,1624845158.0,32.000000
-58,8,31,1624845158.0,32.000000
-58,9,31,1624845158.0,32.000000
-57,9,31,1624845158.0,32.000000
-58,9,31,1624845158.0,32.000000
-58,8,31,1624845158.0,32.000000
-58,8,31,1624845158.0,32.000000
-58,8,31,1624845158.0,32.000000
-58,8,31,1624845158.0,32.000000
-58,8,31,1624845158.0,32.000000
-59,9,31,1624845158.0,32.000000
-59,8,31,1624845158.0,32.000000
-58,9,31,1624845158.0,32.000000
-59,9,32,1624845158.0,32.000000
-60,9,32,1624845158.0,32.000000
-60,14,28,1624845158.0,32.000000
-63,14,25,1624845158.0,32.000000
-65,15,22,1624845158.0,32.000000
-68,16,20,1624845158.0,32.000000
-64,13,24,1624845158.0,32.000000
-53,18,28,1624845158.0,32.000000
-58,25,19,1624845158.0,32.000000
-64,7,13,1624845158.0,32.000000
-56,12,17,1624845158.0,32.000000
-54,7,20,1624845158.0,32.000000
-65,6,20,1624845158.0,32.000000
-62,3,19,1624845158.0,32.000000
-63,8,10,1624845158.0,32.000000
-66,10,-4,1624845158.0,32.000000
-72,15,-5,1624845158.0,32.000000
-68,19,-9,1624845158.0,32.000000
-73,18,-14,1624845158.0,32.000000
-67,20,-8,1624845158.0,32.000000
-60,24,-7,1624845158.0,32.000000
-63,24,-4,1624845158.0,32.000000
-60,19,-6,1624845158.0,32.000000
-65,21,-11,1624845158.0,32.000000
-61,21,-4,1624845158.0,32.000000
-58,19,-2,1624845158.0,32.000000
-62,21,-7,1624845158.0,32.000000
-62,21,-8,1624845158.0,32.000000
-59,21,-7,1624845158.0,32.000000
-52,20,-9,1624845158.0,32.000000
-61,14,-8,1624845158.0,32.000000
-56,17,-4,1624845158.0,32.000000
-64,21,0,1624845158.0,32.000000
-61,22,-3,1624845158.0,32.000000
-62,26,-10,1624845158.0,32.000000
-64,27,-6,1624845158.0,32.000000
-65,26,-7,1624845158.0,32.000000
-64,25,-3,1624845158.0,32.000000
-62,25,1,1624845158.0,32.000000
-58,23,9,1624845158.0,32.000000
-63,25,12,1624845158.0,32.000000
-55,26,19,1624845158.0,32.000000
-48,26,25,1624845158.0,32.000000
-49,25,28,1624845158.0,32.000000
-50,20,33,1624845158.0,32.000000
-48,21,35,1624845158.0,32.000000
-49,22,33,1624845158.0,32.000000
-62,22,17,1624845158.0,32.000000
-63,23,14,1624845158.0,32.000000
-58,24,6,1624845158.0,32.000000
-67,25,2,1624845158.0,32.000000
-67,24,1,1624845158.0,32.000000
-66,22,6,1624845158.0,32.000000
-58,23,8,1624845158.0,32.000000
-64,21,5,1624845158.0,32.000000
-64,18,4,1624845158.0,32.000000
-61,19,1,1624845158.0,32.000000
-67,21,-3,1624845158.0,32.000000
-68,23,-6,1624845158.0,32.000000
-53,25,-1,1624845158.0,32.000000
-61,24,-7,1624845158.0,32.000000
-65,25,-9,1624845158.0,32.000000
-60,23,-7,1624845158.0,32.000000
-57,23,-4,1624845158.0,32.000000
-61,23,-5,1624845158.0,32.000000
-65,23,-5,1624845158.0,32.000000
-58,23,-1,1624845158.0,32.000000
-62,21,-1,1624845158.0,32.000000
-67,23,-3,1624845158.0,32.000000
-62,24,-2,1624845158.0,32.000000
-57,24,2,1624845158.0,32.000000
-62,24,-2,1624845158.0,32.000000
-62,25,-9,1624845158.0,32.000000
-63,24,-6,1624845158.0,32.000000
-63,21,-6,1624845158.0,32.000000
-61,20,-10,1624845158.0,32.000000
-57,20,-13,1624845158.0,32.000000
-64,22,-21,1624845158.0,32.000000
-57,19,-14,1624845158.0,32.000000
-53,20,-16,1624845158.0,32.000000
-61,22,-18,1624845158.0,32.000000
-62,21,-12,1624845158.0,32.000000
-62,18,-11,1624845158.0,32.000000
-59,19,-12,1624845158.0,32.000000
-59,20,-14,1624845158.0,32.000000
-59,18,-14,1624845158.0,32.000000
-61,18,-11,1624845158.0,32.000000
-56,20,-18,1624845158.0,32.000000
-70,18,-6,1624845158.0,32.000000
-63,19,-8,1624845158.0,32.000000
-61,18,-7,1624845158.0,32.000000
-64,18,-9,1624845158.0,32.000000
-66,19,-16,1624845158.0,32.000000
-58,18,-16,1624845158.0,32.000000
-60,17,-16,1624845158.0,32.000000
-64,18,-16,1624845158.0,32.000000
-59,19,-18,1624845158.0,32.000000
-61,18,-17,1624845158.0,32.000000
-60,14,-10,1624845158.0,32.000000
-66,16,-13,1624845158.0,32.000000
-60,18,-24,1624845158.0,32.000000
-56,21,-25,1624845158.0,32.000000
-56,18,-14,1624845158.0,32.000000
-64,14,-15,1624845158.0,32.000000
-67,15,-14,1624845158.0,32.000000
-68,20,-6,1624845158.0,32.000000
-69,22,-13,1624845158.0,32.000000
-78,24,-22,1624845158.0,32.000000
-61,23,-11,1624845158.0,32.000000
-45,20,7,1624845158.0,32.000000
-39,17,36,1624845158.0,32.000000
-37,19,38,1624845158.0,32.000000
-51,14,37,1624845158.0,32.000000
-61,21,26,1624845158.0,32.000000
-57,20,26,1624845158.0,32.000000
-50,18,23,1624845158.0,32.000000
-58,21,21,1624845158.0,32.000000
-61,16,25,1624845158.0,32.000000
-62,17,20,1624845158.0,32.000000
-64,17,19,1624845158.0,32.000000
-58,18,17,1624845158.0,32.000000
-51,16,20,1624845158.0,32.000000
-66,18,6,1624845158.0,32.000000
-62,15,3,1624845158.0,32.000000
-66,14,-4,1624845158.0,32.000000
-67,14,-6,1624845158.0,32.000000
-68,12,-4,1624845158.0,32.000000
-64,14,1,1624845158.0,32.000000
-75,11,-9,1624845158.0,32.000000
-70,12,-11,1624845158.0,32.000000
-60,12,0,1624845158.0,32.000000
-62,13,-1,1624845158.0,32.000000
-62,11,0,1624845158.0,32.000000
-63,12,1,1624845158.0,32.000000
-61,12,0,1624845158.0,32.000000
-66,10,-1,1624845158.0,32.000000
-68,9,1,1624845158.0,32.000000
-64,10,5,1624845158.0,32.000000
-67,12,5,1624845158.0,32.000000
-66,11,8,1624845158.0,32.000000
-60,9,13,1624845158.0,32.000000
-61,9,13,1624845158.0,32.000000
-63,9,13,1624845158.0,32.000000
-69,9,12,1624845158.0,32.000000
-72,9,11,1624845158.0,32.000000
-73,12,12,1624845158.0,32.000000
-68,11,12,1624845158.0,32.000000
-60,8,14,1624845158.0,32.000000
-67,5,15,1624845158.0,32.000000
-68,3,18,1624845158.0,32.000000
-67,2,19,1624845158.0,32.000000
-61,5,19,1624845158.0,32.000000
-66,5,19,1624845158.0,32.000000
-62,6,20,1624845158.0,32.000000
-62,7,20,1624845158.0,32.000000
-63,6,20,1624845158.0,32.000000
-62,5,21,1624845158.0,32.000000
-62,6,20,1624845158.0,32.000000
-62,6,20,1624845158.0,32.000000
-62,6,20,1624845158.0,32.000000
-63,7,18,1624845158.0,32.000000
-65,6,19,1624845158.0,32.000000
-64,6,20,1624845158.0,32.000000
-61,5,17,1624845158.0,32.000000
-62,5,18,1624845158.0,32.000000
-66,5,19,1624845158.0,32.000000
-60,5,16,1624845158.0,32.000000
-62,6,14,1624845158.0,32.000000
-66,7,10,1624845158.0,32.000000
-64,6,11,1624845158.0,32.000000
-67,6,10,1624845158.0,32.000000
-69,6,7,1624845158.0,32.000000
-65,6,9,1624845158.0,32.000000
-64,6,7,1624845158.0,32.000000
-69,7,8,1624845158.0,32.000000
-71,5,5,1624845158.0,32.000000
-64,7,5,1624845158.0,32.000000
-60,4,9,1624845158.0,32.000000
-63,7,17,1624845158.0,32.000000
-67,11,12,1624845158.0,32.000000
-57,12,11,1624845158.0,32.000000
-72,4,17,1624845158.0,32.000000
-60,5,20,1624845158.0,32.000000
-63,7,22,1624845158.0,32.000000
-60,4,21,1624845158.0,32.000000
-65,6,25,1624845158.0,32.000000
-61,3,18,1624845158.0,32.000000
-66,3,18,1624845158.0,32.000000
-66,3,17,1624845158.0,32.000000
-65,5,15,1624845158.0,32.000000
-64,5,17,1624845158.0,32.000000
-63,5,21,1624845158.0,32.000000
-62,5,21,1624845158.0,32.000000
-62,5,20,1624845158.0,32.000000
-63,6,19,1624845158.0,32.000000
-64,6,19,1624845158.0,32.000000
-63,5,19,1624845158.0,32.000000
-64,5,19,1624845158.0,32.000000
-64,5,20,1624845158.0,32.000000
-63,5,20,1624845158.0,32.000000
-62,5,20,1624845158.0,32.000000
-64,5,18,1624845158.0,32.000000
-64,6,18,1624845158.0,32.000000
-63,5,20,1624845158.0,32.000000
-63,5,19,1624845158.0,32.000000
-64,5,19,1624845158.0,32.000000
-63,5,19,1624845158.0,32.000000
-63,5,20,1624845158.0,32.000000
-63,5,20,1624845158.0,32.000000
-63,5,19,1624845158.0,32.000000
-63,5,20,1624845158.0,32.000000
-63,5,20,1624845158.0,32.000000
-63,5,20,1624845158.0,32.000000
-63,5,19,1624845158.0,32.000000
-64,5,20,1624845158.0,32.000000
-63,6,20,1624845158.0,32.000000
-64,5,20,1624845158.0,32.000000
-63,5,19,1624845158.0,32.000000
-63,5,19,1624845158.0,32.000000
-63,5,20,1624845158.0,32.000000
-63,5,20,1624845158.0,32.000000
-64,5,19,1624845158.0,32.000000
-64,5,19,1624845158.0,32.000000
-63,5,19,1624845158.0,32.000000
-63,5,20,1624845158.0,32.000000
-64,5,19,1624845158.0,32.000000
-63,5,20,1624845158.0,32.000000
-63,5,20,1624845158.0,32.000000
-63,5,19,1624845158.0,32.000000
-63,5,20,1624845158.0,32.000000
-63,5,20,1624845158.0,32.000000
-63,5,20,1624845158.0,32.000000
-63,5,20,1624845158.0,32.000000
-64,5,20,1624845158.0,32.000000
-63,5,20,1624845158.0,32.000000
-64,5,19,1624845158.0,32.000000
-64,5,19,1624845158.0,32.000000
-63,5,20,1624845158.0,32.000000
-63,5,20,1624845158.0,32.000000
-64,5,19,1624845158.0,32.000000
-63,5,20,1624845158.0,32.000000
-63,5,19,1624845158.0,32.000000
-63,5,19,1624845158.0,32.000000
-63,5,20,1624845158.0,32.000000
-63,5,20,1624845158.0,32.000000
-64,5,19,1624845158.0,32.000000
-64,5,19,1624845158.0,32.000000
-63,5,20,1624845158.0,32.000000
-63,5,20,1624845158.0,32.000000
-64,5,19,1624845158.0,32.000000
-63,5,19,1624845158.0,32.000000
-63,5,20,1624845158.0,32.000000
-63,5,20,1624845158.0,32.000000
-63,5,19,1624845158.0,32.000000
-63,5,19,1624845158.0,32.000000
-63,5,20,1624845158.0,32.000000
-63,5,20,1624845158.0,32.000000
-63,5,20,1624845158.0,32.000000
-64,5,19,1624845158.0,32.000000
-64,5,19,1624845158.0,32.000000
-63,5,20,1624845158.0,32.000000
-63,5,20,1624845158.0,32.000000
-63,5,20,1624845158.0,32.000000
-63,5,19,1624845158.0,32.000000
-63,5,20,1624845158.0,32.000000
-63,5,20,1624845158.0,32.000000
-63,5,20,1624845158.0,32.000000
-63,5,20,1624845158.0,32.000000
-63,5,20,1624845158.0,32.000000
-63,5,19,1624845158.0,32.000000
-63,5,20,1624845158.0,32.000000
-63,5,20,1624845158.0,32.000000
-64,5,20,1624845158.0,32.000000
-63,5,20,1624845158.0,32.000000
-63,5,20,1624845158.0,32.000000
-63,5,20,1624845158.0,32.000000
-64,5,19,1624845158.0,32.000000
-64,5,19,1624845158.0,32.000000
-63,5,20,1624845158.0,32.000000
-63,5,20,1624845158.0,32.000000
-63,5,20,1624845158.0,32.000000
-64,5,19,1624845158.0,32.000000
-63,5,20,1624845158.0,32.000000
-63,5,20,1624845158.0,32.000000
-63,5,20,1624845158.0,32.000000
-63,5,20,1624845158.0,32.000000
-64,5,20,1624845158.0,32.000000
