ACC_X,ACC_Y,ACC_Z,start_time_unix,sampling_rate
-24,-19,58,1635111146.0,32.000000
-21,-19,61,1635111146.0,32.000000
-19,-21,60,1635111146.0,32.000000
-27,-23,51,1635111146.0,32.000000
-29,-20,46,1635111146.0,32.000000
-22,-18,55,1635111146.0,32.000000
-22,-17,56,1635111146.0,32.000000
-26,-20,56,1635111146.0,32.000000
-25,-20,55,1635111146.0,32.000000
-25,-19,55,1635111146.0,32.000000
-27,-18,57,1635111146.0,32.000000
-25,-18,55,1635111146.0,32.000000
-24,-18,55,1635111146.0,32.000000
-25,-19,56,1635111146.0,32.000000
-24,-19,56,1635111146.0,32.000000
-26,-19,56,1635111146.0,32.000000
-22,-18,57,1635111146.0,32.000000
-25,-19,56,1635111146.0,32.000000
-22,-20,61,1635111146.0,32.000000
-20,-21,60,1635111146.0,32.000000
-22,-21,54,1635111146.0,32.000000
-26,-19,48,1635111146.0,32.000000
-29,-18,53,1635111146.0,32.000000
-23,-20,55,1635111146.0,32.000000
-21,-21,57,1635111146.0,32.000000
-24,-21,57,1635111146.0,32.000000
-24,-20,54,1635111146.0,32.000000
-24,-21,55,1635111146.0,32.000000
-24,-21,56,1635111146.0,32.000000
-24,-21,56,1635111146.0,32.000000
-23,-20,55,1635111146.0,32.000000
-24,-20,56,1635111146.0,32.000000
-23,-20,56,1635111146.0,32.000000
-24,-21,55,1635111146.0,32.000000
-24,-20,55,1635111146.0,32.000000
-23,-21,54,1635111146.0,32.000000
-30,-19,55,1635111146.0,32.000000
-22,-22,57,1635111146.0,32.000000
-25,-18,57,1635111146.0,32.000000
-25,-20,58,1635111146.0,32.000000
-24,-21,56,1635111146.0,32.000000
-19,-20,59,1635111146.0,32.000000
-20,-21,59,1635111146.0,32.000000
-27,-21,52,1635111146.0,32.000000
-28,-21,47,1635111146.0,32.000000
-21,-19,56,1635111146.0,32.000000
-23,-20,56,1635111146.0,32.000000
-23,-22,55,1635111146.0,32.000000
-23,-21,55,1635111146.0,32.000000
-23,-21,56,1635111146.0,32.000000
-23,-21,55,1635111146.0,32.000000
-23,-21,55,1635111146.0,32.000000
-23,-21,55,1635111146.0,32.000000
-23,-21,56,1635111146.0,32.000000
-23,-21,55,1635111146.0,32.000000
-23,-22,52,1635111146.0,32.000000
-27,-18,53,1635111146.0,32.000000
-20,-21,59,1635111146.0,32.000000
-22,-19,55,1635111146.0,32.000000
-23,-20,57,1635111146.0,32.000000
-21,-20,58,1635111146.0,32.000000
-24,-21,54,1635111146.0,32.000000
-25,-21,53,1635111146.0,32.000000
-23,-21,55,1635111146.0,32.000000
-23,-20,55,1635111146.0,32.000000
-24,-21,55,1635111146.0,32.000000
-23,-21,55,1635111146.0,32.000000
-24,-21,55,1635111146.0,32.000000
-22,-21,56,1635111146.0,32.000000
-23,-21,56,1635111146.0,32.000000
-23,-21,55,1635111146.0,32.000000
-24,-22,55,1635111146.0,32.000000
-25,-19,56,1635111146.0,32.000000
-25,-21,55,1635111146.0,32.000000
-23,-19,56,1635111146.0,32.000000
-25,-19,57,1635111146.0,32.000000
-24,-21,54,1635111146.0,32.000000
-21,-21,57,1635111146.0,32.000000
-19,-21,58,1635111146.0,32.000000
-22,-21,56,1635111146.0,32.000000
-27,-21,50,1635111146.0,32.000000
-25,-19,50,1635111146.0,32.000000
-21,-20,56,1635111146.0,32.000000
-22,-22,56,1635111146.0,32.000000
-24,-21,55,1635111146.0,32.000000
-23,-21,55,1635111146.0,32.000000
-22,-20,55,1635111146.0,32.000000
-23,-21,56,1635111146.0,32.000000
-22,-21,55,1635111146.0,32.000000
-23,-21,56,1635111146.0,32.000000
-23,-21,55,1635111146.0,32.000000
-23,-21,55,1635111146.0,32.000000
-23,-20,55,1635111146.0,32.000000
-23,-20,56,1635111146.0,32.000000
-22,-20,57,1635111146.0,32.000000
-25,-20,55,1635111146.0,32.000000
-22,-20,57,1635111146.0,32.000000
-21,-20,57,1635111146.0,32.000000
-22,-21,57,1635111146.0,32.000000
-25,-21,54,1635111146.0,32.000000
-25,-20,53,1635111146.0,32.000000
-23,-20,55,1635111146.0,32.000000
-24,-21,55,1635111146.0,32.000000
-21,-21,55,1635111146.0,32.000000
-24,-20,55,1635111146.0,32.000000
-22,-20,55,1635111146.0,32.000000
-25,-20,56,1635111146.0,32.000000
-23,-20,56,1635111146.0,32.000000
-21,-21,57,1635111146.0,32.000000
-24,-20,55,1635111146.0,32.000000
-25,-21,54,1635111146.0,32.000000
-23,-21,56,1635111146.0,32.000000
-22,-20,56,1635111146.0,32.000000
-24,-21,55,1635111146.0,32.000000
-24,-21,55,1635111146.0,32.000000
-24,-21,56,1635111146.0,32.000000
-22,-21,56,1635111146.0,32.000000
-23,-21,56,1635111146.0,32.000000
-23,-21,55,1635111146.0,32.000000
-23,-21,56,1635111146.0,32.000000
-23,-21,55,1635111146.0,32.000000
-23,-21,53,1635111146.0,32.000000
-25,-20,56,1635111146.0,32.000000
-20,-21,57,1635111146.0,32.000000
-28,-19,56,1635111146.0,32.000000
-24,-20,56,1635111146.0,32.000000
-22,-20,57,1635111146.0,32.000000
-21,-20,58,1635111146.0,32.000000
-19,-21,59,1635111146.0,32.000000
-21,-21,58,1635111146.0,32.000000
-28,-21,50,1635111146.0,32.000000
-27,-18,53,1635111146.0,32.000000
-22,-20,55,1635111146.0,32.000000
-22,-22,56,1635111146.0,32.000000
-23,-22,55,1635111146.0,32.000000
-23,-21,55,1635111146.0,32.000000
-22,-20,56,1635111146.0,32.000000
-23,-20,56,1635111146.0,32.000000
-23,-21,55,1635111146.0,32.000000
-23,-21,56,1635111146.0,32.000000
-23,-21,56,1635111146.0,32.000000
-23,-20,56,1635111146.0,32.000000
-23,-21,56,1635111146.0,32.000000
-23,-21,55,1635111146.0,32.000000
-23,-21,55,1635111146.0,32.000000
-23,-21,55,1635111146.0,32.000000
-23,-21,55,1635111146.0,32.000000
-23,-21,55,1635111146.0,32.000000
-23,-21,55,1635111146.0,32.000000
-22,-21,56,1635111146.0,32.000000
-23,-21,55,1635111146.0,32.000000
-24,-21,55,1635111146.0,32.000000
-23,-20,56,1635111146.0,32.000000
-24,-20,56,1635111146.0,32.000000
-24,-19,56,1635111146.0,32.000000
-23,-20,56,1635111146.0,32.000000
-23,-20,56,1635111146.0,32.000000
-20,-20,57,1635111146.0,32.000000
-19,-22,58,1635111146.0,32.000000
-19,-22,59,1635111146.0,32.000000
-19,-22,57,1635111146.0,32.000000
-27,-20,53,1635111146.0,32.000000
-25,-17,53,1635111146.0,32.000000
-24,-20,54,1635111146.0,32.000000
-23,-20,57,1635111146.0,32.000000
-18,-21,56,1635111146.0,32.000000
-22,-18,55,1635111146.0,32.000000
-25,-19,56,1635111146.0,32.000000
-23,-19,57,1635111146.0,32.000000
-19,-20,60,1635111146.0,32.000000
-20,-21,59,1635111146.0,32.000000
-21,-22,55,1635111146.0,32.000000
-22,-21,53,1635111146.0,32.000000
-17,-19,57,1635111146.0,32.000000
-24,-18,57,1635111146.0,32.000000
-24,-19,55,1635111146.0,32.000000
-20,-14,57,1635111146.0,32.000000
-19,-20,58,1635111146.0,32.000000
-22,-20,57,1635111146.0,32.000000
-21,-19,58,1635111146.0,32.000000
-20,-20,58,1635111146.0,32.000000
-18,-19,60,1635111146.0,32.000000
-24,-21,56,1635111146.0,32.000000
-24,-20,51,1635111146.0,32.000000
-16,-18,60,1635111146.0,32.000000
-21,-19,57,1635111146.0,32.000000
-24,-20,55,1635111146.0,32.000000
-24,-19,55,1635111146.0,32.000000
-17,-20,60,1635111146.0,32.000000
-18,-17,59,1635111146.0,32.000000
-23,-18,57,1635111146.0,32.000000
-22,-18,57,1635111146.0,32.000000
-20,-18,59,1635111146.0,32.000000
-21,-19,59,1635111146.0,32.000000
-23,-20,53,1635111146.0,32.000000
-23,-19,53,1635111146.0,32.000000
-22,-18,55,1635111146.0,32.000000
-24,-17,55,1635111146.0,32.000000
-18,-19,59,1635111146.0,32.000000
-23,-18,57,1635111146.0,32.000000
-23,-18,57,1635111146.0,32.000000
-21,-18,58,1635111146.0,32.000000
-21,-18,58,1635111146.0,32.000000
-24,-19,54,1635111146.0,32.000000
-23,-18,52,1635111146.0,32.000000
-24,-18,55,1635111146.0,32.000000
-23,-18,56,1635111146.0,32.000000
-18,-18,60,1635111146.0,32.000000
-21,-18,58,1635111146.0,32.000000
-22,-19,57,1635111146.0,32.000000
-21,-19,57,1635111146.0,32.000000
-21,-19,57,1635111146.0,32.000000
-20,-19,57,1635111146.0,32.000000
-21,-19,58,1635111146.0,32.000000
-22,-19,57,1635111146.0,32.000000
-22,-19,56,1635111146.0,32.000000
-22,-19,56,1635111146.0,32.000000
-19,-19,57,1635111146.0,32.000000
-21,-20,57,1635111146.0,32.000000
-21,-19,56,1635111146.0,32.000000
-21,-19,56,1635111146.0,32.000000
-21,-19,57,1635111146.0,32.000000
-22,-19,57,1635111146.0,32.000000
-22,-19,57,1635111146.0,32.000000
-22,-19,57,1635111146.0,32.000000
-21,-19,57,1635111146.0,32.000000
-21,-19,57,1635111146.0,32.000000
-22,-19,57,1635111146.0,32.000000
-21,-18,57,1635111146.0,32.000000
-21,-18,57,1635111146.0,32.000000
-21,-19,57,1635111146.0,32.000000
-21,-19,57,1635111146.0,32.000000
-21,-19,57,1635111146.0,32.000000
-21,-19,57,1635111146.0,32.000000
-21,-19,57,1635111146.0,32.000000
-21,-19,57,1635111146.0,32.000000
-21,-19,57,1635111146.0,32.000000
-21,-19,57,1635111146.0,32.000000
-21,-19,57,1635111146.0,32.000000
-21,-19,57,1635111146.0,32.000000
-21,-19,57,1635111146.0,32.000000
-21,-19,57,1635111146.0,32.000000
-21,-19,57,1635111146.0,32.000000
-21,-19,57,1635111146.0,32.000000
-21,-19,57,1635111146.0,32.000000
-21,-19,57,1635111146.0,32.000000
-21,-19,57,1635111146.0,32.000000
-21,-19,57,1635111146.0,32.000000
-21,-19,57,1635111146.0,32.000000
-21,-19,57,1635111146.0,32.000000
-21,-19,57,1635111146.0,32.000000
-21,-19,57,1635111146.0,32.000000
-21,-19,57,1635111146.0,32.000000
-21,-19,57,1635111146.0,32.000000
-21,-19,57,1635111146.0,32.000000
-21,-19,57,1635111146.0,32.000000
-21,-19,57,1635111146.0,32.000000
-21,-19,57,1635111146.0,32.000000
-21,-19,57,1635111146.0,32.000000
-21,-19,57,1635111146.0,32.000000
-21,-19,57,1635111146.0,32.000000
-21,-19,57,1635111146.0,32.000000
-21,-19,57,1635111146.0,32.000000
-21,-19,57,1635111146.0,32.000000
-21,-19,57,1635111146.0,32.000000
-21,-19,57,1635111146.0,32.000000
-21,-19,57,1635111146.0,32.000000
-21,-19,57,1635111146.0,32.000000
-21,-19,57,1635111146.0,32.000000
-21,-19,57,1635111146.0,32.000000
-21,-19,57,1635111146.0,32.000000
-21,-19,57,1635111146.0,32.000000
-21,-19,57,1635111146.0,32.000000
-21,-19,57,1635111146.0,32.000000
-21,-19,57,1635111146.0,32.000000
-21,-19,57,1635111146.0,32.000000
-21,-19,57,1635111146.0,32.000000
-21,-19,57,1635111146.0,32.000000
-21,-19,57,1635111146.0,32.000000
-21,-19,57,1635111146.0,32.000000
-21,-19,57,1635111146.0,32.000000
-21,-19,57,1635111146.0,32.000000
-21,-19,57,1635111146.0,32.000000
-21,-19,57,1635111146.0,32.000000
-21,-19,57,1635111146.0,32.000000
-21,-19,57,1635111146.0,32.000000
-21,-19,57,1635111146.0,32.000000
-21,-19,57,1635111146.0,32.000000
-21,-19,57,1635111146.0,32.000000
-21,-19,57,1635111146.0,32.000000
-21,-19,57,1635111146.0,32.000000
-21,-19,57,1635111146.0,32.000000
-21,-19,57,1635111146.0,32.000000
-21,-19,57,1635111146.0,32.000000
-21,-19,57,1635111146.0,32.000000
-21,-19,57,1635111146.0,32.000000
-21,-19,57,1635111146.0,32.000000
-21,-19,57,1635111146.0,32.000000
-21,-19,57,1635111146.0,32.000000
-21,-19,57,1635111146.0,32.000000
-21,-19,57,1635111146.0,32.000000
-21,-19,57,1635111146.0,32.000000
-21,-19,57,1635111146.0,32.000000
-21,-19,57,1635111146.0,32.000000
-21,-19,57,1635111146.0,32.000000
-21,-19,57,1635111146.0,32.000000
-21,-19,57,1635111146.0,32.000000
-21,-19,57,1635111146.0,32.000000
-21,-19,57,1635111146.0,32.000000
-21,-19,57,1635111146.0,32.000000
-21,-19,57,1635111146.0,32.000000
-21,-19,57,1635111146.0,32.000000
-21,-19,57,1635111146.0,32.000000
-21,-19,57,1635111146.0,32.000000
-21,-19,57,1635111146.0,32.000000
-21,-19,57,1635111146.0,32.000000
-21,-19,57,1635111146.0,32.000000
-21,-19,57,1635111146.0,32.000000
-21,-19,57,1635111146.0,32.000000
-21,-19,57,1635111146.0,32.000000
-21,-19,57,1635111146.0,32.000000
-21,-19,57,1635111146.0,32.000000
-21,-19,57,1635111146.0,32.000000
-21,-19,57,1635111146.0,32.000000
-21,-19,57,1635111146.0,32.000000
-21,-19,57,1635111146.0,32.000000
-21,-19,57,1635111146.0,32.000000
-21,-19,57,1635111146.0,32.000000
-21,-19,57,1635111146.0,32.000000
-21,-19,57,1635111146.0,32.000000
-21,-19,57,1635111146.0,32.000000
-21,-19,57,1635111146.0,32.000000
-21,-19,57,1635111146.0,32.000000
-21,-19,57,1635111146.0,32.000000
-21,-19,57,1635111146.0,32.000000
-21,-19,57,1635111146.0,32.000000
-20,-19,57,1635111146.0,32.000000
-21,-19,57,1635111146.0,32.000000
-21,-19,57,1635111146.0,32.000000
-21,-19,57,1635111146.0,32.000000
-21,-19,57,1635111146.0,32.000000
-21,-19,57,1635111146.0,32.000000
-21,-19,57,1635111146.0,32.000000
-21,-19,57,1635111146.0,32.000000
-21,-19,57,1635111146.0,32.000000
-21,-19,57,1635111146.0,32.000000
-21,-19,57,1635111146.0,32.000000
-21,-19,57,1635111146.0,32.000000
-21,-19,57,1635111146.0,32.000000
-21,-19,57,1635111146.0,32.000000
-21,-19,57,1635111146.0,32.000000
-21,-19,57,1635111146.0,32.000000
-21,-19,57,1635111146.0,32.000000
-21,-19,57,1635111146.0,32.000000
-21,-19,57,1635111146.0,32.000000
-21,-19,57,1635111146.0,32.000000
-21,-19,57,1635111146.0,32.000000
-21,-19,57,1635111146.0,32.000000
-21,-19,57,1635111146.0,32.000000
-21,-19,57,1635111146.0,32.000000
-21,-19,57,1635111146.0,32.000000
-21,-19,57,1635111146.0,32.000000
-21,-19,57,1635111146.0,32.000000
-21,-19,57,1635111146.0,32.000000
-21,-19,57,1635111146.0,32.000000
-21,-19,57,1635111146.0,32.000000
-21,-19,57,1635111146.0,32.000000
-21,-19,57,1635111146.0,32.000000
-21,-19,57,1635111146.0,32.000000
-21,-19,57,1635111146.0,32.000000
-21,-19,57,1635111146.0,32.000000
-21,-19,57,1635111146.0,32.000000
-21,-19,57,1635111146.0,32.000000
-21,-19,57,1635111146.0,32.000000
-21,-19,57,1635111146.0,32.000000
-21,-19,57,1635111146.0,32.000000
-21,-19,57,1635111146.0,32.000000
-21,-19,57,1635111146.0,32.000000
-21,-19,57,1635111146.0,32.000000
-21,-19,57,1635111146.0,32.000000
-21,-19,57,1635111146.0,32.000000
-21,-19,57,1635111146.0,32.000000
-21,-19,57,1635111146.0,32.000000
-21,-19,57,1635111146.0,32.000000
-21,-19,57,1635111146.0,32.000000
-21,-19,57,1635111146.0,32.000000
-21,-19,57,1635111146.0,32.000000
-21,-19,57,1635111146.0,32.000000
-21,-19,57,1635111146.0,32.000000
-21,-19,57,1635111146.0,32.000000
-21,-19,57,1635111146.0,32.000000
-21,-19,57,1635111146.0,32.000000
-21,-19,57,1635111146.0,32.000000
-21,-19,57,1635111146.0,32.000000
-21,-19,57,1635111146.0,32.000000
-21,-19,57,1635111146.0,32.000000
-21,-19,57,1635111146.0,32.000000
-21,-19,57,1635111146.0,32.000000
-21,-19,57,1635111146.0,32.000000
-21,-19,57,1635111146.0,32.000000
-21,-18,57,1635111146.0,32.000000
-21,-18,57,1635111146.0,32.000000
-21,-19,57,1635111146.0,32.000000
-20,-20,57,1635111146.0,32.000000
-20,-19,57,1635111146.0,32.000000
-21,-19,57,1635111146.0,32.000000
-21,-18,57,1635111146.0,32.000000
-21,-18,57,1635111146.0,32.000000
-21,-19,57,1635111146.0,32.000000
-21,-19,56,1635111146.0,32.000000
-21,-19,57,1635111146.0,32.000000
-21,-19,57,1635111146.0,32.000000
-21,-19,57,1635111146.0,32.000000
-21,-19,57,1635111146.0,32.000000
-21,-19,57,1635111146.0,32.000000
-21,-19,57,1635111146.0,32.000000
-21,-19,57,1635111146.0,32.000000
-21,-19,57,1635111146.0,32.000000
-21,-19,57,1635111146.0,32.000000
-21,-19,57,1635111146.0,32.000000
-20,-19,57,1635111146.0,32.000000
-23,-19,57,1635111146.0,32.000000
-23,-19,59,1635111146.0,32.000000
-26,-22,73,1635111146.0,32.000000
-19,-26,84,1635111146.0,32.000000
-12,-35,87,1635111146.0,32.000000
-16,-44,87,1635111146.0,32.000000
-26,-45,73,1635111146.0,32.000000
-43,-43,56,1635111146.0,32.000000
-44,-45,49,1635111146.0,32.000000
-22,-46,51,1635111146.0,32.000000
-7,-46,52,1635111146.0,32.000000
12,-47,41,1635111146.0,32.000000
6,-45,37,1635111146.0,32.000000
2,-31,43,1635111146.0,32.000000
-5,-26,47,1635111146.0,32.000000
2,-20,53,1635111146.0,32.000000
1,-12,52,1635111146.0,32.000000
-30,-8,52,1635111146.0,32.000000
-33,-8,58,1635111146.0,32.000000
-30,-2,53,1635111146.0,32.000000
-31,-5,47,1635111146.0,32.000000
-28,-4,39,1635111146.0,32.000000
-18,-5,34,1635111146.0,32.000000
-5,-21,33,1635111146.0,32.000000
-1,-26,34,1635111146.0,32.000000
28,-44,23,1635111146.0,32.000000
41,-54,16,1635111146.0,32.000000
37,-58,21,1635111146.0,32.000000
40,-62,21,1635111146.0,32.000000
21,-55,42,1635111146.0,32.000000
3,-54,56,1635111146.0,32.000000
-8,-53,52,1635111146.0,32.000000
-9,-53,42,1635111146.0,32.000000
3,-60,32,1635111146.0,32.000000
13,-60,27,1635111146.0,32.000000
21,-56,6,1635111146.0,32.000000
25,-53,4,1635111146.0,32.000000
28,-51,-2,1635111146.0,32.000000
37,-47,-4,1635111146.0,32.000000
41,-45,-7,1635111146.0,32.000000
45,-45,-5,1635111146.0,32.000000
49,-43,-1,1635111146.0,32.000000
61,-45,5,1635111146.0,32.000000
63,-44,9,1635111146.0,32.000000
59,-46,8,1635111146.0,32.000000
52,-48,7,1635111146.0,32.000000
39,-51,-2,1635111146.0,32.000000
33,-53,-8,1635111146.0,32.000000
25,-51,-17,1635111146.0,32.000000
28,-46,5,1635111146.0,32.000000
59,-36,26,1635111146.0,32.000000
71,-31,23,1635111146.0,32.000000
50,-34,40,1635111146.0,32.000000
36,-42,24,1635111146.0,32.000000
21,-53,-9,1635111146.0,32.000000
24,-51,-7,1635111146.0,32.000000
44,-43,13,1635111146.0,32.000000
55,-42,20,1635111146.0,32.000000
53,-42,29,1635111146.0,32.000000
45,-46,23,1635111146.0,32.000000
28,-51,8,1635111146.0,32.000000
27,-52,7,1635111146.0,32.000000
29,-52,9,1635111146.0,32.000000
40,-49,18,1635111146.0,32.000000
45,-47,22,1635111146.0,32.000000
45,-46,23,1635111146.0,32.000000
41,-46,20,1635111146.0,32.000000
32,-49,13,1635111146.0,32.000000
32,-48,12,1635111146.0,32.000000
32,-47,11,1635111146.0,32.000000
34,-46,11,1635111146.0,32.000000
37,-42,12,1635111146.0,32.000000
38,-40,11,1635111146.0,32.000000
38,-35,17,1635111146.0,32.000000
37,-33,18,1635111146.0,32.000000
37,-30,21,1635111146.0,32.000000
36,-27,23,1635111146.0,32.000000
27,-23,29,1635111146.0,32.000000
19,-24,37,1635111146.0,32.000000
-5,-30,45,1635111146.0,32.000000
-11,-33,44,1635111146.0,32.000000
-25,-30,52,1635111146.0,32.000000
-20,-28,61,1635111146.0,32.000000
-22,-32,76,1635111146.0,32.000000
-31,-33,72,1635111146.0,32.000000
-24,-36,68,1635111146.0,32.000000
-16,-36,60,1635111146.0,32.000000
-14,-38,57,1635111146.0,32.000000
-7,-37,108,1635111146.0,32.000000
11,-24,73,1635111146.0,32.000000
-8,-24,42,1635111146.0,32.000000
-30,-20,66,1635111146.0,32.000000
-14,-20,59,1635111146.0,32.000000
-11,-21,52,1635111146.0,32.000000
-10,-24,60,1635111146.0,32.000000
-12,-24,59,1635111146.0,32.000000
-13,-25,58,1635111146.0,32.000000
-16,-25,57,1635111146.0,32.000000
-18,-24,56,1635111146.0,32.000000
-18,-24,56,1635111146.0,32.000000
-17,-23,57,1635111146.0,32.000000
-16,-23,57,1635111146.0,32.000000
-18,-23,56,1635111146.0,32.000000
-19,-23,56,1635111146.0,32.000000
-19,-23,56,1635111146.0,32.000000
-19,-23,56,1635111146.0,32.000000
-18,-23,56,1635111146.0,32.000000
-18,-23,56,1635111146.0,32.000000
-19,-23,56,1635111146.0,32.000000
-19,-23,56,1635111146.0,32.000000
-19,-23,56,1635111146.0,32.000000
-19,-22,56,1635111146.0,32.000000
-18,-23,60,1635111146.0,32.000000
-12,-27,62,1635111146.0,32.000000
-17,-20,64,1635111146.0,32.000000
-38,-21,73,1635111146.0,32.000000
-10,-26,100,1635111146.0,32.000000
-9,-36,76,1635111146.0,32.000000
-5,-37,64,1635111146.0,32.000000
-8,-47,30,1635111146.0,32.000000
-14,-50,17,1635111146.0,32.000000
2,-40,8,1635111146.0,32.000000
3,-32,13,1635111146.0,32.000000
-6,-20,50,1635111146.0,32.000000
-8,-20,64,1635111146.0,32.000000
-14,-23,62,1635111146.0,32.000000
-13,-26,57,1635111146.0,32.000000
-13,-33,46,1635111146.0,32.000000
-10,-37,43,1635111146.0,32.000000
-2,-40,47,1635111146.0,32.000000
-3,-39,55,1635111146.0,32.000000
-15,-37,71,1635111146.0,32.000000
-19,-37,82,1635111146.0,32.000000
-18,-41,84,1635111146.0,32.000000
-18,-43,80,1635111146.0,32.000000
-24,-48,66,1635111146.0,32.000000
-24,-49,54,1635111146.0,32.000000
-21,-49,36,1635111146.0,32.000000
-17,-49,26,1635111146.0,32.000000
-14,-48,20,1635111146.0,32.000000
-10,-43,13,1635111146.0,32.000000
-5,-41,10,1635111146.0,32.000000
2,-40,3,1635111146.0,32.000000
2,-40,0,1635111146.0,32.000000
11,-42,1,1635111146.0,32.000000
17,-44,-6,1635111146.0,32.000000
23,-44,-2,1635111146.0,32.000000
30,-41,15,1635111146.0,32.000000
65,-38,44,1635111146.0,32.000000
88,-33,51,1635111146.0,32.000000
66,-37,47,1635111146.0,32.000000
41,-41,27,1635111146.0,32.000000
8,-54,-16,1635111146.0,32.000000
9,-53,-12,1635111146.0,32.000000
25,-46,15,1635111146.0,32.000000
44,-44,27,1635111146.0,32.000000
63,-43,45,1635111146.0,32.000000
50,-46,43,1635111146.0,32.000000
19,-56,19,1635111146.0,32.000000
10,-61,10,1635111146.0,32.000000
9,-62,8,1635111146.0,32.000000
17,-60,11,1635111146.0,32.000000
31,-54,21,1635111146.0,32.000000
38,-51,25,1635111146.0,32.000000
41,-50,26,1635111146.0,32.000000
40,-50,23,1635111146.0,32.000000
34,-51,18,1635111146.0,32.000000
29,-52,10,1635111146.0,32.000000
28,-52,9,1635111146.0,32.000000
30,-52,8,1635111146.0,32.000000
31,-51,8,1635111146.0,32.000000
31,-50,7,1635111146.0,32.000000
30,-49,6,1635111146.0,32.000000
29,-46,1,1635111146.0,32.000000
27,-44,0,1635111146.0,32.000000
26,-38,12,1635111146.0,32.000000
27,-37,14,1635111146.0,32.000000
25,-34,22,1635111146.0,32.000000
23,-33,30,1635111146.0,32.000000
18,-36,44,1635111146.0,32.000000
15,-38,44,1635111146.0,32.000000
-1,-40,46,1635111146.0,32.000000
-8,-41,46,1635111146.0,32.000000
-19,-39,52,1635111146.0,32.000000
-18,-41,58,1635111146.0,32.000000
-12,-36,76,1635111146.0,32.000000
-12,-32,72,1635111146.0,32.000000
-16,-29,58,1635111146.0,32.000000
-10,-25,53,1635111146.0,32.000000
-10,-21,86,1635111146.0,32.000000
-17,-26,125,1635111146.0,32.000000
-4,-25,80,1635111146.0,32.000000
-12,-24,49,1635111146.0,32.000000
-28,-23,57,1635111146.0,32.000000
-13,-19,58,1635111146.0,32.000000
-16,-19,58,1635111146.0,32.000000
-15,-19,58,1635111146.0,32.000000
-15,-19,58,1635111146.0,32.000000
-16,-19,58,1635111146.0,32.000000
-17,-20,59,1635111146.0,32.000000
-15,-21,59,1635111146.0,32.000000
-16,-20,59,1635111146.0,32.000000
-16,-19,59,1635111146.0,32.000000
-17,-19,58,1635111146.0,32.000000
-16,-19,58,1635111146.0,32.000000
-17,-20,58,1635111146.0,32.000000
-18,-18,58,1635111146.0,32.000000
-17,-18,57,1635111146.0,32.000000
-15,-20,60,1635111146.0,32.000000
-15,-21,59,1635111146.0,32.000000
-17,-21,58,1635111146.0,32.000000
-18,-21,58,1635111146.0,32.000000
-16,-21,59,1635111146.0,32.000000
-16,-21,59,1635111146.0,32.000000
-17,-21,58,1635111146.0,32.000000
-18,-20,57,1635111146.0,32.000000
-18,-20,57,1635111146.0,32.000000
-21,-19,56,1635111146.0,32.000000
-19,-19,56,1635111146.0,32.000000
-17,-22,58,1635111146.0,32.000000
-16,-23,58,1635111146.0,32.000000
-22,-23,57,1635111146.0,32.000000
-21,-25,54,1635111146.0,32.000000
-22,-21,52,1635111146.0,32.000000
-20,-20,56,1635111146.0,32.000000
-13,-22,55,1635111146.0,32.000000
-19,-22,52,1635111146.0,32.000000
-34,-18,54,1635111146.0,32.000000
-22,-18,56,1635111146.0,32.000000
-21,-21,57,1635111146.0,32.000000
-20,-23,57,1635111146.0,32.000000
-17,-24,57,1635111146.0,32.000000
-17,-24,59,1635111146.0,32.000000
-16,-23,57,1635111146.0,32.000000
-19,-25,56,1635111146.0,32.000000
-32,-25,45,1635111146.0,32.000000
-15,-22,53,1635111146.0,32.000000
-29,-16,57,1635111146.0,32.000000
-25,-19,53,1635111146.0,32.000000
-15,-20,60,1635111146.0,32.000000
-19,-23,60,1635111146.0,32.000000
-20,-23,57,1635111146.0,32.000000
-14,-24,58,1635111146.0,32.000000
-20,-24,61,1635111146.0,32.000000
-20,-24,56,1635111146.0,32.000000
-19,-22,55,1635111146.0,32.000000
-14,-19,59,1635111146.0,32.000000
-21,-20,54,1635111146.0,32.000000
-20,-22,57,1635111146.0,32.000000
-20,-22,57,1635111146.0,32.000000
-14,-22,59,1635111146.0,32.000000
-18,-22,60,1635111146.0,32.000000
-21,-21,53,1635111146.0,32.000000
-18,-21,57,1635111146.0,32.000000
-17,-21,58,1635111146.0,32.000000
-27,-21,52,1635111146.0,32.000000
-18,-21,56,1635111146.0,32.000000
-18,-21,59,1635111146.0,32.000000
-18,-22,56,1635111146.0,32.000000
-20,-22,57,1635111146.0,32.000000
-21,-22,54,1635111146.0,32.000000
-20,-21,58,1635111146.0,32.000000
-20,-20,56,1635111146.0,32.000000
-19,-20,56,1635111146.0,32.000000
-21,-22,56,1635111146.0,32.000000
-21,-22,56,1635111146.0,32.000000
-17,-21,58,1635111146.0,32.000000
-18,-22,57,1635111146.0,32.000000
-19,-22,57,1635111146.0,32.000000
-25,-22,54,1635111146.0,32.000000
-18,-22,56,1635111146.0,32.000000
-17,-22,59,1635111146.0,32.000000
-18,-23,55,1635111146.0,32.000000
-28,-21,51,1635111146.0,32.000000
-15,-20,58,1635111146.0,32.000000
-21,-23,56,1635111146.0,32.000000
-19,-22,57,1635111146.0,32.000000
-15,-21,58,1635111146.0,32.000000
-17,-22,57,1635111146.0,32.000000
-24,-20,59,1635111146.0,32.000000
-22,-23,53,1635111146.0,32.000000
-20,-25,53,1635111146.0,32.000000
-19,-19,59,1635111146.0,32.000000
-21,-20,54,1635111146.0,32.000000
-19,-21,56,1635111146.0,32.000000
-24,-21,56,1635111146.0,32.000000
-22,-22,55,1635111146.0,32.000000
-21,-22,57,1635111146.0,32.000000
-26,-22,56,1635111146.0,32.000000
-19,-24,52,1635111146.0,32.000000
-20,-22,56,1635111146.0,32.000000
-15,-23,56,1635111146.0,32.000000
-22,-22,56,1635111146.0,32.000000
-26,-22,53,1635111146.0,32.000000
-21,-21,55,1635111146.0,32.000000
-23,-22,56,1635111146.0,32.000000
-20,-21,56,1635111146.0,32.000000
-22,-22,56,1635111146.0,32.000000
-20,-23,56,1635111146.0,32.000000
-23,-22,56,1635111146.0,32.000000
-27,-20,56,1635111146.0,32.000000
-25,-21,54,1635111146.0,32.000000
-20,-21,55,1635111146.0,32.000000
-23,-22,57,1635111146.0,32.000000
-18,-22,55,1635111146.0,32.000000
-16,-23,57,1635111146.0,32.000000
-26,-21,61,1635111146.0,32.000000
-23,-24,53,1635111146.0,32.000000
-22,-22,53,1635111146.0,32.000000
-23,-22,57,1635111146.0,32.000000
-14,-24,58,1635111146.0,32.000000
-24,-22,55,1635111146.0,32.000000
-20,-21,56,1635111146.0,32.000000
-19,-21,56,1635111146.0,32.000000
-22,-22,55,1635111146.0,32.000000
-20,-22,56,1635111146.0,32.000000
-22,-22,55,1635111146.0,32.000000
-21,-22,55,1635111146.0,32.000000
-23,-22,54,1635111146.0,32.000000
-24,-22,55,1635111146.0,32.000000
-21,-23,56,1635111146.0,32.000000
-21,-23,56,1635111146.0,32.000000
-22,-23,55,1635111146.0,32.000000
-22,-21,54,1635111146.0,32.000000
-19,-21,57,1635111146.0,32.000000
-22,-22,56,1635111146.0,32.000000
-21,-22,56,1635111146.0,32.000000
-21,-22,57,1635111146.0,32.000000
-23,-23,55,1635111146.0,32.000000
-16,-24,56,1635111146.0,32.000000
-21,-22,56,1635111146.0,32.000000
-27,-22,51,1635111146.0,32.000000
-13,-22,59,1635111146.0,32.000000
-25,-22,55,1635111146.0,32.000000
-19,-22,56,1635111146.0,32.000000
-21,-22,56,1635111146.0,32.000000
-25,-22,54,1635111146.0,32.000000
-22,-23,55,1635111146.0,32.000000
-22,-22,55,1635111146.0,32.000000
-15,-22,56,1635111146.0,32.000000
-22,-20,55,1635111146.0,32.000000
-22,-22,56,1635111146.0,32.000000
-19,-22,57,1635111146.0,32.000000
-22,-22,56,1635111146.0,32.000000
-24,-22,55,1635111146.0,32.000000
-17,-23,56,1635111146.0,32.000000
-22,-22,56,1635111146.0,32.000000
-20,-22,56,1635111146.0,32.000000
-20,-22,56,1635111146.0,32.000000
-21,-22,56,1635111146.0,32.000000
-21,-22,56,1635111146.0,32.000000
-20,-22,56,1635111146.0,32.000000
-20,-22,56,1635111146.0,32.000000
-21,-22,56,1635111146.0,32.000000
-21,-22,56,1635111146.0,32.000000
-20,-22,56,1635111146.0,32.000000
-20,-22,56,1635111146.0,32.000000
-21,-22,56,1635111146.0,32.000000
-21,-22,56,1635111146.0,32.000000
-21,-22,56,1635111146.0,32.000000
-21,-22,56,1635111146.0,32.000000
-21,-22,55,1635111146.0,32.000000
-19,-22,57,1635111146.0,32.000000
-21,-22,56,1635111146.0,32.000000
-20,-22,56,1635111146.0,32.000000
-20,-22,56,1635111146.0,32.000000
-20,-22,56,1635111146.0,32.000000
-20,-22,56,1635111146.0,32.000000
-20,-22,56,1635111146.0,32.000000
-21,-21,56,1635111146.0,32.000000
-20,-22,56,1635111146.0,32.000000
-21,-21,56,1635111146.0,32.000000
-19,-22,57,1635111146.0,32.000000
-21,-22,56,1635111146.0,32.000000
-20,-22,56,1635111146.0,32.000000
-18,-22,56,1635111146.0,32.000000
-18,-22,57,1635111146.0,32.000000
-18,-22,57,1635111146.0,32.000000
-19,-22,56,1635111146.0,32.000000
-18,-22,58,1635111146.0,32.000000
-17,-22,58,1635111146.0,32.000000
-16,-22,57,1635111146.0,32.000000
-19,-22,58,1635111146.0,32.000000
-18,-22,56,1635111146.0,32.000000
-20,-23,56,1635111146.0,32.000000
-17,-23,56,1635111146.0,32.000000
-23,-22,55,1635111146.0,32.000000
-15,-24,55,1635111146.0,32.000000
-20,-22,56,1635111146.0,32.000000
-26,-20,52,1635111146.0,32.000000
-16,-21,57,1635111146.0,32.000000
-21,-22,57,1635111146.0,32.000000
-21,-22,56,1635111146.0,32.000000
-18,-22,57,1635111146.0,32.000000
-18,-22,57,1635111146.0,32.000000
-20,-22,56,1635111146.0,32.000000
-20,-22,56,1635111146.0,32.000000
-19,-22,57,1635111146.0,32.000000
-18,-22,57,1635111146.0,32.000000
-17,-23,58,1635111146.0,32.000000
-20,-22,58,1635111146.0,32.000000
-27,-23,56,1635111146.0,32.000000
-20,-21,53,1635111146.0,32.000000
-21,-19,55,1635111146.0,32.000000
-24,-22,54,1635111146.0,32.000000
-22,-23,56,1635111146.0,32.000000
-20,-22,55,1635111146.0,32.000000
-21,-22,56,1635111146.0,32.000000
-20,-23,55,1635111146.0,32.000000
-22,-23,55,1635111146.0,32.000000
-25,-20,55,1635111146.0,32.000000
-20,-21,55,1635111146.0,32.000000
-20,-21,57,1635111146.0,32.000000
-24,-22,56,1635111146.0,32.000000
-18,-22,57,1635111146.0,32.000000
-18,-22,58,1635111146.0,32.000000
-17,-22,58,1635111146.0,32.000000
-17,-23,57,1635111146.0,32.000000
-18,-23,57,1635111146.0,32.000000
-25,-22,57,1635111146.0,32.000000
-15,-20,52,1635111146.0,32.000000
-18,-20,54,1635111146.0,32.000000
-17,-23,61,1635111146.0,32.000000
-22,-22,54,1635111146.0,32.000000
-21,-22,56,1635111146.0,32.000000
-21,-22,56,1635111146.0,32.000000
-21,-23,56,1635111146.0,32.000000
-21,-23,56,1635111146.0,32.000000
-20,-22,56,1635111146.0,32.000000
-22,-20,56,1635111146.0,32.000000
-23,-22,55,1635111146.0,32.000000
-21,-22,56,1635111146.0,32.000000
-22,-22,56,1635111146.0,32.000000
-20,-22,56,1635111146.0,32.000000
-20,-22,57,1635111146.0,32.000000
-18,-22,56,1635111146.0,32.000000
-19,-22,56,1635111146.0,32.000000
-26,-23,54,1635111146.0,32.000000
-23,-22,56,1635111146.0,32.000000
-22,-20,57,1635111146.0,32.000000
-16,-23,56,1635111146.0,32.000000
-22,-22,55,1635111146.0,32.000000
-22,-23,56,1635111146.0,32.000000
-21,-22,55,1635111146.0,32.000000
-20,-22,56,1635111146.0,32.000000
-20,-22,56,1635111146.0,32.000000
-20,-22,56,1635111146.0,32.000000
-21,-22,56,1635111146.0,32.000000
-20,-22,56,1635111146.0,32.000000
-20,-23,55,1635111146.0,32.000000
-19,-23,55,1635111146.0,32.000000
-21,-23,56,1635111146.0,32.000000
-22,-21,55,1635111146.0,32.000000
-20,-20,57,1635111146.0,32.000000
-20,-21,56,1635111146.0,32.000000
-21,-22,56,1635111146.0,32.000000
-18,-22,58,1635111146.0,32.000000
-18,-22,58,1635111146.0,32.000000
-21,-22,57,1635111146.0,32.000000
-28,-22,53,1635111146.0,32.000000
-12,-22,57,1635111146.0,32.000000
-22,-22,57,1635111146.0,32.000000
-22,-23,54,1635111146.0,32.000000
-21,-22,55,1635111146.0,32.000000
-20,-22,56,1635111146.0,32.000000
-21,-22,55,1635111146.0,32.000000
-20,-22,56,1635111146.0,32.000000
-21,-22,56,1635111146.0,32.000000
-21,-22,56,1635111146.0,32.000000
-21,-22,56,1635111146.0,32.000000
-21,-22,56,1635111146.0,32.000000
-20,-22,56,1635111146.0,32.000000
-20,-22,56,1635111146.0,32.000000
-20,-22,56,1635111146.0,32.000000
-21,-22,56,1635111146.0,32.000000
-21,-22,56,1635111146.0,32.000000
-20,-22,56,1635111146.0,32.000000
-21,-22,56,1635111146.0,32.000000
-20,-22,56,1635111146.0,32.000000
-20,-22,56,1635111146.0,32.000000
-20,-22,56,1635111146.0,32.000000
-20,-22,56,1635111146.0,32.000000
-20,-22,56,1635111146.0,32.000000
-20,-22,56,1635111146.0,32.000000
-21,-22,56,1635111146.0,32.000000
-20,-22,56,1635111146.0,32.000000
-20,-22,56,1635111146.0,32.000000
-20,-22,56,1635111146.0,32.000000
-21,-22,56,1635111146.0,32.000000
-20,-22,56,1635111146.0,32.000000
-21,-22,55,1635111146.0,32.000000
-21,-21,55,1635111146.0,32.000000
-21,-20,55,1635111146.0,32.000000
-21,-20,55,1635111146.0,32.000000
-20,-21,57,1635111146.0,32.000000
-21,-22,56,1635111146.0,32.000000
-21,-22,56,1635111146.0,32.000000
-20,-21,57,1635111146.0,32.000000
-20,-22,57,1635111146.0,32.000000
-20,-22,57,1635111146.0,32.000000
-18,-21,57,1635111146.0,32.000000
-18,-22,57,1635111146.0,32.000000
-19,-22,57,1635111146.0,32.000000
-19,-22,57,1635111146.0,32.000000
-19,-22,57,1635111146.0,32.000000
-19,-22,57,1635111146.0,32.000000
-19,-22,57,1635111146.0,32.000000
-19,-22,58,1635111146.0,32.000000
-18,-22,58,1635111146.0,32.000000
-17,-22,59,1635111146.0,32.000000
-20,-23,57,1635111146.0,32.000000
-27,-22,53,1635111146.0,32.000000
-21,-18,54,1635111146.0,32.000000
-16,-21,56,1635111146.0,32.000000
-23,-22,55,1635111146.0,32.000000
-22,-23,55,1635111146.0,32.000000
-21,-22,56,1635111146.0,32.000000
-21,-23,56,1635111146.0,32.000000
-21,-22,56,1635111146.0,32.000000
-21,-22,56,1635111146.0,32.000000
-21,-22,56,1635111146.0,32.000000
-21,-22,56,1635111146.0,32.000000
-21,-22,55,1635111146.0,32.000000
-21,-22,55,1635111146.0,32.000000
-21,-22,55,1635111146.0,32.000000
-21,-23,56,1635111146.0,32.000000
-21,-22,56,1635111146.0,32.000000
-20,-22,56,1635111146.0,32.000000
-21,-22,56,1635111146.0,32.000000
-21,-22,56,1635111146.0,32.000000
-21,-22,56,1635111146.0,32.000000
-20,-22,56,1635111146.0,32.000000
-20,-22,56,1635111146.0,32.000000
-20,-22,56,1635111146.0,32.000000
-20,-22,56,1635111146.0,32.000000
-20,-22,56,1635111146.0,32.000000
-20,-22,56,1635111146.0,32.000000
-20,-22,56,1635111146.0,32.000000
-20,-22,56,1635111146.0,32.000000
-20,-22,56,1635111146.0,32.000000
-20,-22,56,1635111146.0,32.000000
-21,-22,56,1635111146.0,32.000000
-20,-22,56,1635111146.0,32.000000
-21,-22,56,1635111146.0,32.000000
-21,-22,56,1635111146.0,32.000000
-21,-22,56,1635111146.0,32.000000
-21,-22,56,1635111146.0,32.000000
-21,-22,56,1635111146.0,32.000000
-20,-22,56,1635111146.0,32.000000
-20,-22,56,1635111146.0,32.000000
-20,-22,56,1635111146.0,32.000000
-20,-22,56,1635111146.0,32.000000
-22,-22,56,1635111146.0,32.000000
-21,-22,55,1635111146.0,32.000000
-20,-22,57,1635111146.0,32.000000
-19,-22,56,1635111146.0,32.000000
-20,-22,56,1635111146.0,32.000000
-20,-22,56,1635111146.0,32.000000
-20,-22,55,1635111146.0,32.000000
-22,-22,56,1635111146.0,32.000000
-20,-22,56,1635111146.0,32.000000
-20,-22,56,1635111146.0,32.000000
-20,-22,56,1635111146.0,32.000000
-20,-22,56,1635111146.0,32.000000
-21,-22,55,1635111146.0,32.000000
-21,-22,56,1635111146.0,32.000000
-20,-22,56,1635111146.0,32.000000
-20,-22,56,1635111146.0,32.000000
-20,-21,56,1635111146.0,32.000000
-20,-22,56,1635111146.0,32.000000
-21,-23,56,1635111146.0,32.000000
-22,-22,55,1635111146.0,32.000000
-20,-21,56,1635111146.0,32.000000
-20,-22,57,1635111146.0,32.000000
-19,-22,57,1635111146.0,32.000000
-21,-22,56,1635111146.0,32.000000
-21,-22,56,1635111146.0,32.000000
-21,-22,56,1635111146.0,32.000000
-21,-22,56,1635111146.0,32.000000
-20,-21,56,1635111146.0,32.000000
-20,-21,56,1635111146.0,32.000000
-21,-22,56,1635111146.0,32.000000
-21,-22,56,1635111146.0,32.000000
-21,-22,56,1635111146.0,32.000000
-20,-22,56,1635111146.0,32.000000
-20,-22,56,1635111146.0,32.000000
-20,-22,56,1635111146.0,32.000000
-21,-22,56,1635111146.0,32.000000
-21,-22,56,1635111146.0,32.000000
-20,-22,56,1635111146.0,32.000000
-21,-22,56,1635111146.0,32.000000
-20,-22,56,1635111146.0,32.000000
-20,-22,56,1635111146.0,32.000000
-21,-22,56,1635111146.0,32.000000
-21,-22,56,1635111146.0,32.000000
-20,-22,56,1635111146.0,32.000000
-20,-22,56,1635111146.0,32.000000
-20,-22,56,1635111146.0,32.000000
-21,-22,56,1635111146.0,32.000000
-21,-22,56,1635111146.0,32.000000
-21,-22,56,1635111146.0,32.000000
-21,-22,56,1635111146.0,32.000000
-20,-22,56,1635111146.0,32.000000
-20,-22,56,1635111146.0,32.000000
-21,-22,56,1635111146.0,32.000000
-21,-22,56,1635111146.0,32.000000
-21,-22,56,1635111146.0,32.000000
-20,-22,56,1635111146.0,32.000000
-20,-22,56,1635111146.0,32.000000
-20,-22,56,1635111146.0,32.000000
-20,-22,56,1635111146.0,32.000000
-20,-22,56,1635111146.0,32.000000
-20,-22,56,1635111146.0,32.000000
-20,-22,56,1635111146.0,32.000000
-20,-22,56,1635111146.0,32.000000
-20,-22,56,1635111146.0,32.000000
-20,-22,56,1635111146.0,32.000000
-20,-22,56,1635111146.0,32.000000
-20,-22,56,1635111146.0,32.000000
-20,-22,56,1635111146.0,32.000000
-20,-22,56,1635111146.0,32.000000
-21,-22,56,1635111146.0,32.000000
-21,-22,56,1635111146.0,32.000000
-21,-22,56,1635111146.0,32.000000
-21,-22,56,1635111146.0,32.000000
-21,-22,56,1635111146.0,32.000000
-21,-22,56,1635111146.0,32.000000
-21,-22,56,1635111146.0,32.000000
-21,-22,56,1635111146.0,32.000000
-21,-22,56,1635111146.0,32.000000
-21,-22,56,1635111146.0,32.000000
-21,-22,56,1635111146.0,32.000000
-21,-22,56,1635111146.0,32.000000
-21,-22,56,1635111146.0,32.000000
-21,-22,56,1635111146.0,32.000000
-21,-22,56,1635111146.0,32.000000
-21,-22,56,1635111146.0,32.000000
-21,-22,56,1635111146.0,32.000000
-21,-22,56,1635111146.0,32.000000
-21,-22,56,1635111146.0,32.000000
-21,-22,56,1635111146.0,32.000000
-21,-22,56,1635111146.0,32.000000
-21,-22,56,1635111146.0,32.000000
-21,-22,56,1635111146.0,32.000000
-21,-22,56,1635111146.0,32.000000
-21,-22,56,1635111146.0,32.000000
-21,-22,56,1635111146.0,32.000000
-21,-22,56,1635111146.0,32.000000
-21,-22,56,1635111146.0,32.000000
-21,-22,56,1635111146.0,32.000000
-21,-22,56,1635111146.0,32.000000
-21,-22,56,1635111146.0,32.000000
-21,-22,56,1635111146.0,32.000000
-21,-22,56,1635111146.0,32.000000
-21,-22,56,1635111146.0,32.000000
-21,-22,56,1635111146.0,32.000000
-21,-22,56,1635111146.0,32.000000
-21,-22,56,1635111146.0,32.000000
-21,-22,56,1635111146.0,32.000000
-21,-22,56,1635111146.0,32.000000
-21,-22,56,1635111146.0,32.000000
-21,-22,56,1635111146.0,32.000000
-21,-22,56,1635111146.0,32.000000
-21,-22,56,1635111146.0,32.000000
-21,-22,56,1635111146.0,32.000000
-21,-22,56,1635111146.0,32.000000
-21,-22,56,1635111146.0,32.000000
-21,-22,56,1635111146.0,32.000000
-21,-22,56,1635111146.0,32.000000
-21,-23,56,1635111146.0,32.000000
-21,-22,56,1635111146.0,32.000000
-22,-22,56,1635111146.0,32.000000
-21,-22,56,1635111146.0,32.000000
-21,-22,56,1635111146.0,32.000000
-21,-22,56,1635111146.0,32.000000
-21,-22,56,1635111146.0,32.000000
-21,-22,56,1635111146.0,32.000000
-23,-24,55,1635111146.0,32.000000
-23,-21,54,1635111146.0,32.000000
-26,-21,53,1635111146.0,32.000000
-23,-21,54,1635111146.0,32.000000
-23,-21,56,1635111146.0,32.000000
-24,-22,56,1635111146.0,32.000000
-26,-21,54,1635111146.0,32.000000
-25,-21,54,1635111146.0,32.000000
-26,-22,54,1635111146.0,32.000000
-27,-21,53,1635111146.0,32.000000
-26,-20,53,1635111146.0,32.000000
-26,-21,53,1635111146.0,32.000000
-26,-22,54,1635111146.0,32.000000
-26,-22,54,1635111146.0,32.000000
-27,-21,54,1635111146.0,32.000000
-28,-22,53,1635111146.0,32.000000
-26,-22,54,1635111146.0,32.000000
-27,-22,54,1635111146.0,32.000000
-29,-22,53,1635111146.0,32.000000
-29,-22,53,1635111146.0,32.000000
-30,-20,53,1635111146.0,32.000000
-31,-20,53,1635111146.0,32.000000
-30,-21,54,1635111146.0,32.000000
-30,-20,55,1635111146.0,32.000000
-32,-18,53,1635111146.0,32.000000
-33,-16,53,1635111146.0,32.000000
-33,-16,55,1635111146.0,32.000000
-34,-15,55,1635111146.0,32.000000
-34,-13,53,1635111146.0,32.000000
-39,-6,50,1635111146.0,32.000000
-37,0,50,1635111146.0,32.000000
-35,2,51,1635111146.0,32.000000
-34,4,51,1635111146.0,32.000000
-33,10,51,1635111146.0,32.000000
-32,12,49,1635111146.0,32.000000
-33,17,51,1635111146.0,32.000000
-31,19,52,1635111146.0,32.000000
-29,17,52,1635111146.0,32.000000
-29,16,52,1635111146.0,32.000000
-30,13,53,1635111146.0,32.000000
-32,11,53,1635111146.0,32.000000
-33,6,54,1635111146.0,32.000000
-34,3,54,1635111146.0,32.000000
-33,-3,57,1635111146.0,32.000000
-32,-4,58,1635111146.0,32.000000
-30,-3,58,1635111146.0,32.000000
-30,-3,58,1635111146.0,32.000000
-26,-3,58,1635111146.0,32.000000
-21,-6,58,1635111146.0,32.000000
-27,-8,57,1635111146.0,32.000000
-27,-9,58,1635111146.0,32.000000
-27,-9,57,1635111146.0,32.000000
-28,-7,58,1635111146.0,32.000000
-26,-8,58,1635111146.0,32.000000
-24,-9,58,1635111146.0,32.000000
-24,-9,59,1635111146.0,32.000000
-25,-10,57,1635111146.0,32.000000
-26,-11,58,1635111146.0,32.000000
-25,-8,58,1635111146.0,32.000000
-25,-9,58,1635111146.0,32.000000
-25,-10,58,1635111146.0,32.000000
-24,-8,59,1635111146.0,32.000000
-23,-6,58,1635111146.0,32.000000
-23,-6,59,1635111146.0,32.000000
-24,-5,59,1635111146.0,32.000000
-23,-6,60,1635111146.0,32.000000
-22,-5,59,1635111146.0,32.000000
-23,-4,59,1635111146.0,32.000000
-24,-2,58,1635111146.0,32.000000
-24,-3,58,1635111146.0,32.000000
-29,-4,57,1635111146.0,32.000000
-27,-3,57,1635111146.0,32.000000
-23,-2,59,1635111146.0,32.000000
-25,-2,59,1635111146.0,32.000000
-26,-4,57,1635111146.0,32.000000
-26,-3,58,1635111146.0,32.000000
-26,-2,58,1635111146.0,32.000000
-28,-3,57,1635111146.0,32.000000
-26,-4,57,1635111146.0,32.000000
-28,-3,58,1635111146.0,32.000000
-27,-3,57,1635111146.0,32.000000
-28,-4,57,1635111146.0,32.000000
-30,-4,56,1635111146.0,32.000000
-26,-6,57,1635111146.0,32.000000
-25,-5,58,1635111146.0,32.000000
-28,-7,58,1635111146.0,32.000000
-29,-9,57,1635111146.0,32.000000
-31,-8,57,1635111146.0,32.000000
-32,-6,55,1635111146.0,32.000000
-31,-9,55,1635111146.0,32.000000
-33,-8,54,1635111146.0,32.000000
-31,-8,54,1635111146.0,32.000000
-28,-8,58,1635111146.0,32.000000
-30,-10,55,1635111146.0,32.000000
-34,-11,54,1635111146.0,32.000000
-30,-11,56,1635111146.0,32.000000
-27,-11,59,1635111146.0,32.000000
-28,-9,57,1635111146.0,32.000000
-29,-8,56,1635111146.0,32.000000
-31,-7,54,1635111146.0,32.000000
-30,-6,53,1635111146.0,32.000000
-29,-7,55,1635111146.0,32.000000
-28,-9,56,1635111146.0,32.000000
-27,-10,57,1635111146.0,32.000000
-26,-10,59,1635111146.0,32.000000
-27,-9,58,1635111146.0,32.000000
-24,-9,56,1635111146.0,32.000000
-25,-10,58,1635111146.0,32.000000
-32,-10,52,1635111146.0,32.000000
-34,-12,52,1635111146.0,32.000000
-30,-12,54,1635111146.0,32.000000
-30,-15,53,1635111146.0,32.000000
-28,-13,58,1635111146.0,32.000000
-28,-14,55,1635111146.0,32.000000
-31,-13,55,1635111146.0,32.000000
-30,-15,53,1635111146.0,32.000000
-30,-17,55,1635111146.0,32.000000
-28,-16,56,1635111146.0,32.000000
-29,-17,55,1635111146.0,32.000000
-34,-16,53,1635111146.0,32.000000
-32,-14,51,1635111146.0,32.000000
-32,-15,54,1635111146.0,32.000000
-33,-15,52,1635111146.0,32.000000
-34,-14,52,1635111146.0,32.000000
-33,-13,53,1635111146.0,32.000000
-32,-12,54,1635111146.0,32.000000
-32,-12,54,1635111146.0,32.000000
-33,-11,54,1635111146.0,32.000000
-32,-11,53,1635111146.0,32.000000
-34,-11,52,1635111146.0,32.000000
-34,-12,52,1635111146.0,32.000000
-34,-11,53,1635111146.0,32.000000
-33,-11,53,1635111146.0,32.000000
-32,-12,55,1635111146.0,32.000000
-34,-11,55,1635111146.0,32.000000
-34,-10,53,1635111146.0,32.000000
-33,-10,55,1635111146.0,32.000000
-31,-9,54,1635111146.0,32.000000
-33,-8,54,1635111146.0,32.000000
-34,-8,53,1635111146.0,32.000000
-35,-7,53,1635111146.0,32.000000
-35,-7,52,1635111146.0,32.000000
-35,-7,53,1635111146.0,32.000000
-34,-8,53,1635111146.0,32.000000
-35,-8,54,1635111146.0,32.000000
-35,-6,52,1635111146.0,32.000000
-35,-5,52,1635111146.0,32.000000
-33,-4,53,1635111146.0,32.000000
-33,-3,53,1635111146.0,32.000000
-30,-1,52,1635111146.0,32.000000
-25,-2,57,1635111146.0,32.000000
-27,-8,59,1635111146.0,32.000000
-30,-9,54,1635111146.0,32.000000
-31,-12,55,1635111146.0,32.000000
-33,-12,55,1635111146.0,32.000000
-36,-12,54,1635111146.0,32.000000
-36,-16,56,1635111146.0,32.000000
-36,-15,58,1635111146.0,32.000000
-32,-13,52,1635111146.0,32.000000
-31,-14,51,1635111146.0,32.000000
-34,-11,54,1635111146.0,32.000000
-36,-10,53,1635111146.0,32.000000
-35,-10,51,1635111146.0,32.000000
-34,-11,50,1635111146.0,32.000000
-34,-15,51,1635111146.0,32.000000
-36,-15,50,1635111146.0,32.000000
-33,-16,54,1635111146.0,32.000000
-30,-18,53,1635111146.0,32.000000
-31,-19,51,1635111146.0,32.000000
-34,-19,51,1635111146.0,32.000000
-34,-18,48,1635111146.0,32.000000
-34,-24,46,1635111146.0,32.000000
-33,-22,65,1635111146.0,32.000000
-32,-20,56,1635111146.0,32.000000
-34,-22,47,1635111146.0,32.000000
-35,-22,47,1635111146.0,32.000000
-39,-23,49,1635111146.0,32.000000
-39,-25,45,1635111146.0,32.000000
-36,-24,42,1635111146.0,32.000000
-34,-23,44,1635111146.0,32.000000
-30,-20,50,1635111146.0,32.000000
-29,-21,49,1635111146.0,32.000000
-25,-22,49,1635111146.0,32.000000
-25,-21,48,1635111146.0,32.000000
-22,-22,47,1635111146.0,32.000000
-46,-19,46,1635111146.0,32.000000
-46,-19,59,1635111146.0,32.000000
-16,-18,68,1635111146.0,32.000000
-31,-21,52,1635111146.0,32.000000
-40,-20,43,1635111146.0,32.000000
-37,-20,41,1635111146.0,32.000000
-25,-21,57,1635111146.0,32.000000
-17,-23,65,1635111146.0,32.000000
-21,-20,54,1635111146.0,32.000000
-19,-18,52,1635111146.0,32.000000
-26,-18,52,1635111146.0,32.000000
-32,-24,51,1635111146.0,32.000000
-36,-24,52,1635111146.0,32.000000
-29,-20,53,1635111146.0,32.000000
-29,-20,54,1635111146.0,32.000000
-27,-21,55,1635111146.0,32.000000
-30,-18,51,1635111146.0,32.000000
-24,-16,52,1635111146.0,32.000000
-35,-23,52,1635111146.0,32.000000
-32,-25,52,1635111146.0,32.000000
-25,-22,54,1635111146.0,32.000000
-30,-22,50,1635111146.0,32.000000
-33,-23,51,1635111146.0,32.000000
-32,-22,50,1635111146.0,32.000000
-32,-23,53,1635111146.0,32.000000
-25,-19,51,1635111146.0,32.000000
-29,-21,52,1635111146.0,32.000000
-26,-21,55,1635111146.0,32.000000
-29,-21,52,1635111146.0,32.000000
-31,-21,51,1635111146.0,32.000000
-30,-21,52,1635111146.0,32.000000
-29,-23,52,1635111146.0,32.000000
-29,-22,53,1635111146.0,32.000000
-31,-22,51,1635111146.0,32.000000
-32,-23,50,1635111146.0,32.000000
-32,-22,50,1635111146.0,32.000000
-32,-22,50,1635111146.0,32.000000
-33,-24,54,1635111146.0,32.000000
-32,-26,55,1635111146.0,32.000000
-30,-23,52,1635111146.0,32.000000
-31,-22,52,1635111146.0,32.000000
-34,-26,51,1635111146.0,32.000000
-33,-27,53,1635111146.0,32.000000
-34,-31,55,1635111146.0,32.000000
-32,-31,48,1635111146.0,32.000000
-25,-27,45,1635111146.0,32.000000
-28,-26,44,1635111146.0,32.000000
-29,-24,44,1635111146.0,32.000000
-28,-22,45,1635111146.0,32.000000
-27,-22,47,1635111146.0,32.000000
-32,-20,41,1635111146.0,32.000000
-33,-20,36,1635111146.0,32.000000
-30,-23,37,1635111146.0,32.000000
-25,-29,43,1635111146.0,32.000000
-68,-20,70,1635111146.0,32.000000
-57,-20,86,1635111146.0,32.000000
-21,-18,43,1635111146.0,32.000000
-32,-19,55,1635111146.0,32.000000
-27,-24,50,1635111146.0,32.000000
-30,-24,52,1635111146.0,32.000000
-32,-24,51,1635111146.0,32.000000
-32,-24,50,1635111146.0,32.000000
-32,-23,50,1635111146.0,32.000000
-30,-22,50,1635111146.0,32.000000
-31,-23,50,1635111146.0,32.000000
-32,-22,49,1635111146.0,32.000000
-30,-22,51,1635111146.0,32.000000
-31,-22,51,1635111146.0,32.000000
-30,-23,51,1635111146.0,32.000000
-31,-22,50,1635111146.0,32.000000
-32,-23,46,1635111146.0,32.000000
-26,-21,53,1635111146.0,32.000000
-29,-22,53,1635111146.0,32.000000
-40,-19,49,1635111146.0,32.000000
-32,-20,50,1635111146.0,32.000000
-20,-23,59,1635111146.0,32.000000
-26,-22,55,1635111146.0,32.000000
-28,-24,52,1635111146.0,32.000000
-28,-25,52,1635111146.0,32.000000
-30,-22,49,1635111146.0,32.000000
-21,-21,55,1635111146.0,32.000000
-26,-21,53,1635111146.0,32.000000
-29,-22,53,1635111146.0,32.000000
-29,-22,53,1635111146.0,32.000000
-29,-22,53,1635111146.0,32.000000
-30,-22,53,1635111146.0,32.000000
-28,-22,52,1635111146.0,32.000000
-28,-22,53,1635111146.0,32.000000
-29,-22,53,1635111146.0,32.000000
-29,-22,52,1635111146.0,32.000000
-29,-22,52,1635111146.0,32.000000
-29,-22,52,1635111146.0,32.000000
-30,-22,52,1635111146.0,32.000000
-29,-21,52,1635111146.0,32.000000
-29,-21,52,1635111146.0,32.000000
-30,-21,52,1635111146.0,32.000000
-30,-22,52,1635111146.0,32.000000
-30,-21,52,1635111146.0,32.000000
-30,-21,52,1635111146.0,32.000000
-30,-21,52,1635111146.0,32.000000
-30,-21,52,1635111146.0,32.000000
-30,-21,52,1635111146.0,32.000000
-30,-22,52,1635111146.0,32.000000
-30,-21,52,1635111146.0,32.000000
-30,-21,52,1635111146.0,32.000000
-30,-22,52,1635111146.0,32.000000
-30,-22,52,1635111146.0,32.000000
-30,-22,52,1635111146.0,32.000000
-30,-21,52,1635111146.0,32.000000
-30,-21,52,1635111146.0,32.000000
-30,-21,52,1635111146.0,32.000000
-30,-21,52,1635111146.0,32.000000
-30,-22,52,1635111146.0,32.000000
-30,-22,52,1635111146.0,32.000000
-30,-21,52,1635111146.0,32.000000
-30,-21,52,1635111146.0,32.000000
-30,-21,52,1635111146.0,32.000000
-30,-21,52,1635111146.0,32.000000
-30,-22,52,1635111146.0,32.000000
-30,-22,52,1635111146.0,32.000000
-30,-22,52,1635111146.0,32.000000
-30,-22,52,1635111146.0,32.000000
-30,-21,52,1635111146.0,32.000000
-30,-22,52,1635111146.0,32.000000
-31,-21,52,1635111146.0,32.000000
-31,-21,51,1635111146.0,32.000000
-30,-22,52,1635111146.0,32.000000
-30,-22,52,1635111146.0,32.000000
-30,-22,52,1635111146.0,32.000000
-30,-22,52,1635111146.0,32.000000
-30,-21,52,1635111146.0,32.000000
-30,-21,52,1635111146.0,32.000000
-30,-21,52,1635111146.0,32.000000
-30,-21,52,1635111146.0,32.000000
-30,-21,52,1635111146.0,32.000000
-30,-22,52,1635111146.0,32.000000
-30,-22,52,1635111146.0,32.000000
-30,-21,52,1635111146.0,32.000000
-30,-21,52,1635111146.0,32.000000
-30,-21,52,1635111146.0,32.000000
-30,-21,52,1635111146.0,32.000000
-30,-22,52,1635111146.0,32.000000
-30,-22,52,1635111146.0,32.000000
-30,-22,52,1635111146.0,32.000000
-30,-21,52,1635111146.0,32.000000
-30,-21,52,1635111146.0,32.000000
-30,-21,52,1635111146.0,32.000000
-30,-22,52,1635111146.0,32.000000
-30,-22,52,1635111146.0,32.000000
-30,-22,51,1635111146.0,32.000000
-30,-22,52,1635111146.0,32.000000
-30,-21,52,1635111146.0,32.000000
-30,-21,52,1635111146.0,32.000000
-30,-21,51,1635111146.0,32.000000
-30,-22,51,1635111146.0,32.000000
-30,-22,52,1635111146.0,32.000000
-30,-22,52,1635111146.0,32.000000
-30,-21,52,1635111146.0,32.000000
-30,-21,52,1635111146.0,32.000000
-31,-21,52,1635111146.0,32.000000
-30,-21,52,1635111146.0,32.000000
-30,-21,52,1635111146.0,32.000000
-30,-22,52,1635111146.0,32.000000
-30,-21,52,1635111146.0,32.000000
-30,-21,52,1635111146.0,32.000000
-30,-21,52,1635111146.0,32.000000
-30,-21,52,1635111146.0,32.000000
-30,-21,52,1635111146.0,32.000000
-30,-22,52,1635111146.0,32.000000
-30,-21,52,1635111146.0,32.000000
-30,-22,52,1635111146.0,32.000000
-30,-21,52,1635111146.0,32.000000
-30,-21,52,1635111146.0,32.000000
-30,-21,52,1635111146.0,32.000000
-30,-21,52,1635111146.0,32.000000
-30,-21,52,1635111146.0,32.000000
-30,-22,52,1635111146.0,32.000000
-30,-22,52,1635111146.0,32.000000
-30,-21,52,1635111146.0,32.000000
-30,-21,52,1635111146.0,32.000000
-30,-21,52,1635111146.0,32.000000
-30,-21,52,1635111146.0,32.000000
-30,-21,52,1635111146.0,32.000000
-30,-22,52,1635111146.0,32.000000
-30,-21,52,1635111146.0,32.000000
-30,-21,52,1635111146.0,32.000000
-30,-22,52,1635111146.0,32.000000
-30,-21,52,1635111146.0,32.000000
-30,-21,52,1635111146.0,32.000000
-30,-21,52,1635111146.0,32.000000
-30,-21,52,1635111146.0,32.000000
-30,-21,52,1635111146.0,32.000000
-30,-22,52,1635111146.0,32.000000
-30,-21,52,1635111146.0,32.000000
-30,-21,52,1635111146.0,32.000000
-30,-21,52,1635111146.0,32.000000
-30,-21,51,1635111146.0,32.000000
-31,-22,51,1635111146.0,32.000000
-30,-22,52,1635111146.0,32.000000
-30,-21,52,1635111146.0,32.000000
-30,-21,52,1635111146.0,32.000000
-30,-22,52,1635111146.0,32.000000
-31,-21,52,1635111146.0,32.000000
-31,-21,52,1635111146.0,32.000000
-30,-21,52,1635111146.0,32.000000
-30,-22,52,1635111146.0,32.000000
-30,-21,52,1635111146.0,32.000000
-30,-21,52,1635111146.0,32.000000
-31,-21,52,1635111146.0,32.000000
-31,-21,52,1635111146.0,32.000000
-31,-21,51,1635111146.0,32.000000
-30,-21,52,1635111146.0,32.000000
-30,-21,51,1635111146.0,32.000000
-30,-21,52,1635111146.0,32.000000
-30,-21,52,1635111146.0,32.000000
-30,-21,52,1635111146.0,32.000000
-30,-21,52,1635111146.0,32.000000
-31,-21,52,1635111146.0,32.000000
-31,-22,52,1635111146.0,32.000000
-31,-21,52,1635111146.0,32.000000
-30,-21,52,1635111146.0,32.000000
-30,-21,52,1635111146.0,32.000000
-30,-21,52,1635111146.0,32.000000
-30,-21,52,1635111146.0,32.000000
-31,-21,52,1635111146.0,32.000000
-30,-21,52,1635111146.0,32.000000
-30,-21,52,1635111146.0,32.000000
-30,-21,51,1635111146.0,32.000000
-31,-21,52,1635111146.0,32.000000
-30,-21,52,1635111146.0,32.000000
-30,-21,51,1635111146.0,32.000000
-31,-21,52,1635111146.0,32.000000
-30,-21,51,1635111146.0,32.000000
-31,-21,51,1635111146.0,32.000000
-31,-21,51,1635111146.0,32.000000
-30,-21,52,1635111146.0,32.000000
-31,-21,52,1635111146.0,32.000000
-30,-21,51,1635111146.0,32.000000
-31,-21,52,1635111146.0,32.000000
-30,-21,52,1635111146.0,32.000000
-30,-22,52,1635111146.0,32.000000
-30,-21,52,1635111146.0,32.000000
-30,-21,52,1635111146.0,32.000000
-30,-21,52,1635111146.0,32.000000
-31,-21,52,1635111146.0,32.000000
-30,-21,52,1635111146.0,32.000000
-30,-21,52,1635111146.0,32.000000
-30,-21,52,1635111146.0,32.000000
-30,-21,52,1635111146.0,32.000000
-30,-21,52,1635111146.0,32.000000
-30,-21,52,1635111146.0,32.000000
-30,-21,52,1635111146.0,32.000000
-30,-21,52,1635111146.0,32.000000
-31,-21,51,1635111146.0,32.000000
-30,-21,52,1635111146.0,32.000000
-30,-21,51,1635111146.0,32.000000
-30,-21,52,1635111146.0,32.000000
-30,-21,51,1635111146.0,32.000000
-30,-21,52,1635111146.0,32.000000
-30,-21,52,1635111146.0,32.000000
-30,-21,52,1635111146.0,32.000000
-30,-21,51,1635111146.0,32.000000
-31,-22,51,1635111146.0,32.000000
-30,-21,52,1635111146.0,32.000000
-30,-21,51,1635111146.0,32.000000
-30,-22,52,1635111146.0,32.000000
-30,-21,52,1635111146.0,32.000000
-31,-21,51,1635111146.0,32.000000
-30,-21,52,1635111146.0,32.000000
-30,-21,52,1635111146.0,32.000000
-30,-21,52,1635111146.0,32.000000
-30,-21,51,1635111146.0,32.000000
-30,-21,52,1635111146.0,32.000000
-30,-21,52,1635111146.0,32.000000
-30,-21,52,1635111146.0,32.000000
-30,-22,52,1635111146.0,32.000000
-30,-21,51,1635111146.0,32.000000
-30,-21,52,1635111146.0,32.000000
-30,-21,51,1635111146.0,32.000000
-30,-22,52,1635111146.0,32.000000
-30,-21,51,1635111146.0,32.000000
-30,-21,52,1635111146.0,32.000000
-30,-21,52,1635111146.0,32.000000
-31,-21,51,1635111146.0,32.000000
-30,-22,52,1635111146.0,32.000000
-30,-21,52,1635111146.0,32.000000
-30,-21,52,1635111146.0,32.000000
-31,-21,52,1635111146.0,32.000000
-30,-21,52,1635111146.0,32.000000
-30,-21,52,1635111146.0,32.000000
-30,-21,52,1635111146.0,32.000000
-30,-21,52,1635111146.0,32.000000
-30,-21,52,1635111146.0,32.000000
-30,-21,52,1635111146.0,32.000000
-30,-21,52,1635111146.0,32.000000
-30,-21,52,1635111146.0,32.000000
-30,-21,52,1635111146.0,32.000000
-30,-21,52,1635111146.0,32.000000
-31,-21,52,1635111146.0,32.000000
-30,-21,52,1635111146.0,32.000000
-30,-21,52,1635111146.0,32.000000
-31,-21,52,1635111146.0,32.000000
-30,-21,51,1635111146.0,32.000000
-30,-21,52,1635111146.0,32.000000
-30,-21,52,1635111146.0,32.000000
-30,-21,52,1635111146.0,32.000000
-30,-21,52,1635111146.0,32.000000
-30,-21,52,1635111146.0,32.000000
-31,-21,52,1635111146.0,32.000000
-30,-21,52,1635111146.0,32.000000
-31,-21,52,1635111146.0,32.000000
-31,-21,51,1635111146.0,32.000000
-30,-21,52,1635111146.0,32.000000
-30,-21,52,1635111146.0,32.000000
-31,-21,52,1635111146.0,32.000000
-31,-21,52,1635111146.0,32.000000
-30,-21,52,1635111146.0,32.000000
-30,-21,51,1635111146.0,32.000000
-30,-21,52,1635111146.0,32.000000
-30,-21,51,1635111146.0,32.000000
-30,-21,52,1635111146.0,32.000000
-30,-21,52,1635111146.0,32.000000
-30,-21,51,1635111146.0,32.000000
-30,-21,52,1635111146.0,32.000000
-30,-21,52,1635111146.0,32.000000
-31,-21,51,1635111146.0,32.000000
-31,-21,51,1635111146.0,32.000000
-31,-21,52,1635111146.0,32.000000
-30,-21,52,1635111146.0,32.000000
-30,-21,52,1635111146.0,32.000000
-30,-21,52,1635111146.0,32.000000
-30,-22,51,1635111146.0,32.000000
-30,-21,52,1635111146.0,32.000000
-30,-21,52,1635111146.0,32.000000
-31,-21,52,1635111146.0,32.000000
-30,-21,52,1635111146.0,32.000000
-30,-21,51,1635111146.0,32.000000
-30,-21,52,1635111146.0,32.000000
-30,-21,52,1635111146.0,32.000000
-30,-21,52,1635111146.0,32.000000
-30,-21,52,1635111146.0,32.000000
-30,-21,52,1635111146.0,32.000000
-30,-21,52,1635111146.0,32.000000
-31,-21,52,1635111146.0,32.000000
-31,-21,51,1635111146.0,32.000000
-30,-21,51,1635111146.0,32.000000
-30,-21,51,1635111146.0,32.000000
-30,-21,52,1635111146.0,32.000000
-30,-21,52,1635111146.0,32.000000
-31,-21,51,1635111146.0,32.000000
-31,-21,51,1635111146.0,32.000000
-30,-21,51,1635111146.0,32.000000
-30,-21,52,1635111146.0,32.000000
-30,-21,52,1635111146.0,32.000000
-30,-22,52,1635111146.0,32.000000
-30,-21,52,1635111146.0,32.000000
-30,-22,52,1635111146.0,32.000000
-30,-21,51,1635111146.0,32.000000
-30,-21,51,1635111146.0,32.000000
-31,-21,52,1635111146.0,32.000000
-31,-22,52,1635111146.0,32.000000
-30,-21,52,1635111146.0,32.000000
-30,-21,52,1635111146.0,32.000000
-30,-21,52,1635111146.0,32.000000
-30,-21,52,1635111146.0,32.000000
-31,-21,52,1635111146.0,32.000000
-30,-22,51,1635111146.0,32.000000
-31,-21,52,1635111146.0,32.000000
-31,-21,52,1635111146.0,32.000000
-30,-22,53,1635111146.0,32.000000
-31,-21,52,1635111146.0,32.000000
-31,-22,51,1635111146.0,32.000000
-31,-21,52,1635111146.0,32.000000
-30,-22,51,1635111146.0,32.000000
-31,-22,52,1635111146.0,32.000000
-30,-21,52,1635111146.0,32.000000
-31,-21,51,1635111146.0,32.000000
-31,-21,52,1635111146.0,32.000000
-30,-22,51,1635111146.0,32.000000
-30,-21,52,1635111146.0,32.000000
-30,-21,52,1635111146.0,32.000000
-31,-22,52,1635111146.0,32.000000
-31,-22,51,1635111146.0,32.000000
-31,-21,51,1635111146.0,32.000000
-31,-21,51,1635111146.0,32.000000
-30,-21,52,1635111146.0,32.000000
-29,-21,52,1635111146.0,32.000000
-31,-21,52,1635111146.0,32.000000
-32,-21,51,1635111146.0,32.000000
-31,-22,51,1635111146.0,32.000000
-31,-21,51,1635111146.0,32.000000
-30,-21,52,1635111146.0,32.000000
-30,-21,52,1635111146.0,32.000000
-31,-22,51,1635111146.0,32.000000
-31,-21,51,1635111146.0,32.000000
-30,-22,51,1635111146.0,32.000000
-30,-22,52,1635111146.0,32.000000
-30,-21,52,1635111146.0,32.000000
-31,-21,52,1635111146.0,32.000000
-31,-22,51,1635111146.0,32.000000
-31,-21,51,1635111146.0,32.000000
-30,-22,52,1635111146.0,32.000000
-30,-21,52,1635111146.0,32.000000
-30,-21,52,1635111146.0,32.000000
-31,-21,51,1635111146.0,32.000000
-31,-22,51,1635111146.0,32.000000
-31,-22,51,1635111146.0,32.000000
-31,-22,51,1635111146.0,32.000000
-30,-21,52,1635111146.0,32.000000
-30,-21,52,1635111146.0,32.000000
-31,-21,51,1635111146.0,32.000000
-31,-21,52,1635111146.0,32.000000
-31,-21,52,1635111146.0,32.000000
-30,-22,52,1635111146.0,32.000000
-30,-21,51,1635111146.0,32.000000
-30,-21,51,1635111146.0,32.000000
-30,-22,52,1635111146.0,32.000000
-30,-22,52,1635111146.0,32.000000
-31,-21,52,1635111146.0,32.000000
-30,-21,52,1635111146.0,32.000000
-31,-21,51,1635111146.0,32.000000
-31,-22,51,1635111146.0,32.000000
-30,-20,51,1635111146.0,32.000000
-25,-22,54,1635111146.0,32.000000
-31,-21,51,1635111146.0,32.000000
-29,-21,52,1635111146.0,32.000000
-29,-22,53,1635111146.0,32.000000
-29,-22,53,1635111146.0,32.000000
-29,-21,52,1635111146.0,32.000000
-29,-22,52,1635111146.0,32.000000
-28,-22,53,1635111146.0,32.000000
-30,-22,54,1635111146.0,32.000000
-30,-21,52,1635111146.0,32.000000
-35,-22,48,1635111146.0,32.000000
-28,-21,54,1635111146.0,32.000000
-31,-19,51,1635111146.0,32.000000
-26,-21,54,1635111146.0,32.000000
-32,-22,52,1635111146.0,32.000000
-28,-22,53,1635111146.0,32.000000
-31,-22,53,1635111146.0,32.000000
-31,-22,51,1635111146.0,32.000000
-34,-21,48,1635111146.0,32.000000
-29,-19,54,1635111146.0,32.000000
-26,-21,53,1635111146.0,32.000000
-33,-21,51,1635111146.0,32.000000
-30,-22,53,1635111146.0,32.000000
-29,-23,52,1635111146.0,32.000000
-31,-22,52,1635111146.0,32.000000
-29,-21,52,1635111146.0,32.000000
-28,-21,53,1635111146.0,32.000000
-30,-20,52,1635111146.0,32.000000
-33,-20,50,1635111146.0,32.000000
-28,-21,53,1635111146.0,32.000000
-30,-21,52,1635111146.0,32.000000
-29,-22,53,1635111146.0,32.000000
-33,-21,50,1635111146.0,32.000000
-26,-21,55,1635111146.0,32.000000
-36,-20,55,1635111146.0,32.000000
-33,-20,50,1635111146.0,32.000000
-31,-20,52,1635111146.0,32.000000
-29,-21,51,1635111146.0,32.000000
-31,-21,52,1635111146.0,32.000000
-30,-21,53,1635111146.0,32.000000
-30,-21,53,1635111146.0,32.000000
-30,-22,52,1635111146.0,32.000000
-30,-21,52,1635111146.0,32.000000
-28,-21,53,1635111146.0,32.000000
-29,-20,52,1635111146.0,32.000000
-29,-21,53,1635111146.0,32.000000
-30,-21,52,1635111146.0,32.000000
-29,-22,53,1635111146.0,32.000000
-30,-21,52,1635111146.0,32.000000
-30,-22,52,1635111146.0,32.000000
-29,-21,53,1635111146.0,32.000000
-27,-21,53,1635111146.0,32.000000
-30,-19,52,1635111146.0,32.000000
-29,-21,53,1635111146.0,32.000000
-30,-21,52,1635111146.0,32.000000
-30,-21,52,1635111146.0,32.000000
-31,-21,53,1635111146.0,32.000000
-26,-20,55,1635111146.0,32.000000
-36,-19,48,1635111146.0,32.000000
-33,-20,50,1635111146.0,32.000000
-31,-21,51,1635111146.0,32.000000
-28,-21,54,1635111146.0,32.000000
-31,-21,52,1635111146.0,32.000000
-30,-21,52,1635111146.0,32.000000
-26,-21,56,1635111146.0,32.000000
-33,-22,49,1635111146.0,32.000000
-31,-20,51,1635111146.0,32.000000
-27,-21,53,1635111146.0,32.000000
-34,-21,49,1635111146.0,32.000000
-29,-21,53,1635111146.0,32.000000
-30,-21,52,1635111146.0,32.000000
-30,-21,52,1635111146.0,32.000000
-29,-21,52,1635111146.0,32.000000
-31,-21,51,1635111146.0,32.000000
-27,-21,54,1635111146.0,32.000000
-31,-20,52,1635111146.0,32.000000
-30,-21,52,1635111146.0,32.000000
-27,-21,53,1635111146.0,32.000000
-30,-21,52,1635111146.0,32.000000
-30,-20,52,1635111146.0,32.000000
-27,-21,54,1635111146.0,32.000000
-33,-21,50,1635111146.0,32.000000
-29,-21,52,1635111146.0,32.000000
-30,-21,52,1635111146.0,32.000000
-30,-21,52,1635111146.0,32.000000
-30,-21,52,1635111146.0,32.000000
-31,-21,52,1635111146.0,32.000000
-31,-21,52,1635111146.0,32.000000
-31,-22,51,1635111146.0,32.000000
-30,-21,51,1635111146.0,32.000000
-31,-21,51,1635111146.0,32.000000
-30,-21,52,1635111146.0,32.000000
-30,-22,52,1635111146.0,32.000000
-31,-21,51,1635111146.0,32.000000
-31,-21,51,1635111146.0,32.000000
-31,-22,52,1635111146.0,32.000000
-31,-22,51,1635111146.0,32.000000
-30,-20,51,1635111146.0,32.000000
-29,-19,53,1635111146.0,32.000000
-33,-21,50,1635111146.0,32.000000
-30,-21,52,1635111146.0,32.000000
-30,-21,52,1635111146.0,32.000000
-29,-21,52,1635111146.0,32.000000
-29,-21,53,1635111146.0,32.000000
-29,-22,53,1635111146.0,32.000000
-33,-21,50,1635111146.0,32.000000
-29,-21,51,1635111146.0,32.000000
-32,-21,50,1635111146.0,32.000000
-32,-20,51,1635111146.0,32.000000
-32,-20,51,1635111146.0,32.000000
-30,-21,52,1635111146.0,32.000000
-30,-20,52,1635111146.0,32.000000
-29,-21,53,1635111146.0,32.000000
-30,-21,52,1635111146.0,32.000000
-29,-21,53,1635111146.0,32.000000
-33,-20,52,1635111146.0,32.000000
-30,-22,51,1635111146.0,32.000000
-29,-21,53,1635111146.0,32.000000
-31,-21,51,1635111146.0,32.000000
-29,-21,53,1635111146.0,32.000000
-30,-21,52,1635111146.0,32.000000
-30,-21,51,1635111146.0,32.000000
-31,-21,52,1635111146.0,32.000000
-30,-21,51,1635111146.0,32.000000
-30,-21,52,1635111146.0,32.000000
-30,-21,52,1635111146.0,32.000000
-30,-21,51,1635111146.0,32.000000
-30,-21,52,1635111146.0,32.000000
-30,-21,52,1635111146.0,32.000000
-30,-21,52,1635111146.0,32.000000
-31,-21,52,1635111146.0,32.000000
-31,-21,52,1635111146.0,32.000000
-30,-21,53,1635111146.0,32.000000
-30,-21,52,1635111146.0,32.000000
-31,-21,51,1635111146.0,32.000000
-32,-21,51,1635111146.0,32.000000
-31,-21,51,1635111146.0,32.000000
-31,-21,51,1635111146.0,32.000000
-32,-20,51,1635111146.0,32.000000
-32,-20,51,1635111146.0,32.000000
-32,-20,51,1635111146.0,32.000000
-31,-20,51,1635111146.0,32.000000
-31,-21,51,1635111146.0,32.000000
-31,-20,51,1635111146.0,32.000000
-31,-20,52,1635111146.0,32.000000
-31,-20,51,1635111146.0,32.000000
-31,-20,52,1635111146.0,32.000000
-31,-20,52,1635111146.0,32.000000
-31,-20,52,1635111146.0,32.000000
-31,-20,51,1635111146.0,32.000000
-31,-20,52,1635111146.0,32.000000
-31,-20,52,1635111146.0,32.000000
-31,-20,52,1635111146.0,32.000000
-31,-21,52,1635111146.0,32.000000
-31,-21,52,1635111146.0,32.000000
-31,-21,52,1635111146.0,32.000000
-31,-21,52,1635111146.0,32.000000
-31,-21,52,1635111146.0,32.000000
-31,-21,51,1635111146.0,32.000000
-31,-21,52,1635111146.0,32.000000
-31,-21,51,1635111146.0,32.000000
-31,-21,51,1635111146.0,32.000000
-31,-21,51,1635111146.0,32.000000
-31,-21,52,1635111146.0,32.000000
-31,-21,52,1635111146.0,32.000000
-31,-21,51,1635111146.0,32.000000
-31,-21,52,1635111146.0,32.000000
-31,-21,51,1635111146.0,32.000000
-31,-21,52,1635111146.0,32.000000
-31,-21,51,1635111146.0,32.000000
-31,-21,51,1635111146.0,32.000000
-31,-21,51,1635111146.0,32.000000
-31,-20,52,1635111146.0,32.000000
-31,-20,51,1635111146.0,32.000000
-31,-21,52,1635111146.0,32.000000
-31,-21,51,1635111146.0,32.000000
-31,-21,51,1635111146.0,32.000000
-31,-21,52,1635111146.0,32.000000
-31,-21,52,1635111146.0,32.000000
-31,-21,51,1635111146.0,32.000000
-31,-21,51,1635111146.0,32.000000
-31,-21,51,1635111146.0,32.000000
-31,-21,51,1635111146.0,32.000000
-31,-21,52,1635111146.0,32.000000
-31,-21,52,1635111146.0,32.000000
-31,-21,51,1635111146.0,32.000000
-31,-20,52,1635111146.0,32.000000
-31,-20,51,1635111146.0,32.000000
-31,-21,51,1635111146.0,32.000000
-31,-21,52,1635111146.0,32.000000
-31,-21,52,1635111146.0,32.000000
-31,-21,52,1635111146.0,32.000000
-31,-21,52,1635111146.0,32.000000
-31,-21,52,1635111146.0,32.000000
-31,-20,51,1635111146.0,32.000000
-31,-21,52,1635111146.0,32.000000
-31,-21,52,1635111146.0,32.000000
-31,-21,52,1635111146.0,32.000000
-31,-21,52,1635111146.0,32.000000
-31,-20,51,1635111146.0,32.000000
-31,-20,51,1635111146.0,32.000000
-31,-21,52,1635111146.0,32.000000
-31,-21,52,1635111146.0,32.000000
-31,-21,52,1635111146.0,32.000000
-31,-21,52,1635111146.0,32.000000
-31,-20,51,1635111146.0,32.000000
-31,-20,51,1635111146.0,32.000000
-31,-21,52,1635111146.0,32.000000
-31,-21,51,1635111146.0,32.000000
-31,-21,51,1635111146.0,32.000000
-31,-21,51,1635111146.0,32.000000
-31,-21,51,1635111146.0,32.000000
-31,-20,51,1635111146.0,32.000000
-31,-20,51,1635111146.0,32.000000
-31,-21,51,1635111146.0,32.000000
-31,-21,52,1635111146.0,32.000000
-31,-21,52,1635111146.0,32.000000
-31,-21,52,1635111146.0,32.000000
-31,-20,52,1635111146.0,32.000000
-31,-20,51,1635111146.0,32.000000
-31,-21,51,1635111146.0,32.000000
-31,-21,51,1635111146.0,32.000000
-31,-21,51,1635111146.0,32.000000
-31,-21,52,1635111146.0,32.000000
-31,-21,52,1635111146.0,32.000000
-31,-20,51,1635111146.0,32.000000
-31,-21,51,1635111146.0,32.000000
-31,-20,51,1635111146.0,32.000000
-31,-21,52,1635111146.0,32.000000
-31,-21,51,1635111146.0,32.000000
-31,-21,51,1635111146.0,32.000000
-31,-21,52,1635111146.0,32.000000
-31,-21,51,1635111146.0,32.000000
-31,-21,51,1635111146.0,32.000000
-31,-21,51,1635111146.0,32.000000
-31,-21,51,1635111146.0,32.000000
-31,-21,51,1635111146.0,32.000000
-31,-21,51,1635111146.0,32.000000
-31,-21,51,1635111146.0,32.000000
-31,-21,52,1635111146.0,32.000000
-31,-21,51,1635111146.0,32.000000
-31,-21,51,1635111146.0,32.000000
-31,-21,51,1635111146.0,32.000000
-31,-21,52,1635111146.0,32.000000
-31,-21,51,1635111146.0,32.000000
-31,-21,51,1635111146.0,32.000000
-31,-21,51,1635111146.0,32.000000
-31,-21,51,1635111146.0,32.000000
-31,-21,51,1635111146.0,32.000000
-31,-21,51,1635111146.0,32.000000
-31,-21,52,1635111146.0,32.000000
-31,-21,51,1635111146.0,32.000000
-31,-21,51,1635111146.0,32.000000
-31,-21,51,1635111146.0,32.000000
-31,-21,52,1635111146.0,32.000000
-31,-21,52,1635111146.0,32.000000
-31,-21,51,1635111146.0,32.000000
-31,-21,52,1635111146.0,32.000000
-31,-21,51,1635111146.0,32.000000
-31,-21,51,1635111146.0,32.000000
-31,-21,51,1635111146.0,32.000000
-31,-21,51,1635111146.0,32.000000
-31,-21,51,1635111146.0,32.000000
-31,-21,51,1635111146.0,32.000000
-31,-21,51,1635111146.0,32.000000
-31,-21,51,1635111146.0,32.000000
-31,-20,51,1635111146.0,32.000000
-31,-21,51,1635111146.0,32.000000
-31,-21,52,1635111146.0,32.000000
-31,-21,51,1635111146.0,32.000000
-31,-21,51,1635111146.0,32.000000
-31,-21,52,1635111146.0,32.000000
-31,-21,51,1635111146.0,32.000000
-31,-21,51,1635111146.0,32.000000
-31,-21,51,1635111146.0,32.000000
-31,-21,51,1635111146.0,32.000000
-31,-21,51,1635111146.0,32.000000
-31,-21,51,1635111146.0,32.000000
-31,-21,51,1635111146.0,32.000000
-31,-21,52,1635111146.0,32.000000
-31,-21,51,1635111146.0,32.000000
-31,-21,51,1635111146.0,32.000000
-31,-21,51,1635111146.0,32.000000
-31,-21,51,1635111146.0,32.000000
-31,-21,51,1635111146.0,32.000000
-31,-21,51,1635111146.0,32.000000
-31,-21,51,1635111146.0,32.000000
-31,-21,51,1635111146.0,32.000000
-31,-21,52,1635111146.0,32.000000
-31,-21,52,1635111146.0,32.000000
-31,-21,52,1635111146.0,32.000000
-31,-21,51,1635111146.0,32.000000
-31,-21,52,1635111146.0,32.000000
-31,-21,51,1635111146.0,32.000000
-31,-21,52,1635111146.0,32.000000
-31,-21,51,1635111146.0,32.000000
-31,-21,51,1635111146.0,32.000000
-31,-21,51,1635111146.0,32.000000
-31,-21,51,1635111146.0,32.000000
-31,-21,51,1635111146.0,32.000000
-31,-21,52,1635111146.0,32.000000
-31,-21,52,1635111146.0,32.000000
-31,-21,52,1635111146.0,32.000000
-31,-21,51,1635111146.0,32.000000
-31,-21,51,1635111146.0,32.000000
-31,-21,51,1635111146.0,32.000000
-31,-21,51,1635111146.0,32.000000
-31,-21,52,1635111146.0,32.000000
-31,-21,52,1635111146.0,32.000000
-31,-21,51,1635111146.0,32.000000
-31,-21,51,1635111146.0,32.000000
-31,-21,51,1635111146.0,32.000000
-31,-21,51,1635111146.0,32.000000
-31,-21,51,1635111146.0,32.000000
-31,-21,51,1635111146.0,32.000000
-31,-21,51,1635111146.0,32.000000
-31,-21,51,1635111146.0,32.000000
-31,-21,52,1635111146.0,32.000000
-31,-21,51,1635111146.0,32.000000
-31,-21,52,1635111146.0,32.000000
-31,-21,52,1635111146.0,32.000000
-31,-21,51,1635111146.0,32.000000
-31,-21,51,1635111146.0,32.000000
-31,-21,51,1635111146.0,32.000000
-31,-21,51,1635111146.0,32.000000
-31,-21,52,1635111146.0,32.000000
-31,-21,51,1635111146.0,32.000000
-31,-21,51,1635111146.0,32.000000
-31,-20,52,1635111146.0,32.000000
-31,-20,51,1635111146.0,32.000000
-31,-21,51,1635111146.0,32.000000
-31,-21,52,1635111146.0,32.000000
-31,-21,52,1635111146.0,32.000000
-31,-21,52,1635111146.0,32.000000
-31,-21,51,1635111146.0,32.000000
-31,-21,52,1635111146.0,32.000000
-31,-20,51,1635111146.0,32.000000
-31,-21,51,1635111146.0,32.000000
-31,-21,51,1635111146.0,32.000000
-31,-21,51,1635111146.0,32.000000
-31,-21,51,1635111146.0,32.000000
-31,-21,52,1635111146.0,32.000000
-31,-20,51,1635111146.0,32.000000
-31,-20,52,1635111146.0,32.000000
-31,-20,51,1635111146.0,32.000000
-32,-21,51,1635111146.0,32.000000
-31,-21,51,1635111146.0,32.000000
-31,-21,51,1635111146.0,32.000000
-31,-21,51,1635111146.0,32.000000
-31,-21,51,1635111146.0,32.000000
-31,-21,51,1635111146.0,32.000000
-31,-21,51,1635111146.0,32.000000
-31,-21,51,1635111146.0,32.000000
-31,-21,52,1635111146.0,32.000000
-31,-21,52,1635111146.0,32.000000
-31,-21,51,1635111146.0,32.000000
-31,-21,52,1635111146.0,32.000000
-31,-21,52,1635111146.0,32.000000
-31,-21,52,1635111146.0,32.000000
-31,-21,51,1635111146.0,32.000000
-31,-21,52,1635111146.0,32.000000
-31,-21,52,1635111146.0,32.000000
-31,-21,51,1635111146.0,32.000000
-31,-21,51,1635111146.0,32.000000
-31,-21,51,1635111146.0,32.000000
-31,-21,51,1635111146.0,32.000000
-31,-21,51,1635111146.0,32.000000
-31,-21,51,1635111146.0,32.000000
-31,-21,51,1635111146.0,32.000000
-31,-21,52,1635111146.0,32.000000
-31,-21,51,1635111146.0,32.000000
-31,-21,51,1635111146.0,32.000000
-31,-21,51,1635111146.0,32.000000
-31,-21,51,1635111146.0,32.000000
-31,-21,51,1635111146.0,32.000000
-31,-21,52,1635111146.0,32.000000
-31,-21,51,1635111146.0,32.000000
-31,-21,51,1635111146.0,32.000000
-31,-21,51,1635111146.0,32.000000
-31,-21,51,1635111146.0,32.000000
-31,-21,51,1635111146.0,32.000000
-31,-21,52,1635111146.0,32.000000
-31,-21,51,1635111146.0,32.000000
-31,-21,51,1635111146.0,32.000000
-31,-21,51,1635111146.0,32.000000
-31,-21,51,1635111146.0,32.000000
-31,-21,51,1635111146.0,32.000000
-31,-21,52,1635111146.0,32.000000
-31,-21,51,1635111146.0,32.000000
-31,-21,51,1635111146.0,32.000000
-31,-21,51,1635111146.0,32.000000
-31,-21,51,1635111146.0,32.000000
-31,-21,52,1635111146.0,32.000000
-31,-20,51,1635111146.0,32.000000
-31,-21,51,1635111146.0,32.000000
-31,-21,51,1635111146.0,32.000000
-31,-21,51,1635111146.0,32.000000
-31,-21,51,1635111146.0,32.000000
-31,-21,51,1635111146.0,32.000000
-31,-21,52,1635111146.0,32.000000
-31,-21,51,1635111146.0,32.000000
-31,-21,51,1635111146.0,32.000000
-31,-21,51,1635111146.0,32.000000
-31,-21,51,1635111146.0,32.000000
-31,-21,51,1635111146.0,32.000000
-31,-21,52,1635111146.0,32.000000
-31,-21,51,1635111146.0,32.000000
-31,-21,52,1635111146.0,32.000000
-31,-21,51,1635111146.0,32.000000
-31,-21,51,1635111146.0,32.000000
-31,-21,51,1635111146.0,32.000000
-31,-21,51,1635111146.0,32.000000
-31,-21,52,1635111146.0,32.000000
-31,-21,51,1635111146.0,32.000000
-31,-21,51,1635111146.0,32.000000
-31,-21,51,1635111146.0,32.000000
-31,-21,51,1635111146.0,32.000000
-31,-21,51,1635111146.0,32.000000
-31,-21,51,1635111146.0,32.000000
-31,-21,51,1635111146.0,32.000000
-31,-21,52,1635111146.0,32.000000
-31,-21,51,1635111146.0,32.000000
-31,-21,51,1635111146.0,32.000000
-31,-21,52,1635111146.0,32.000000
-31,-21,52,1635111146.0,32.000000
-31,-20,51,1635111146.0,32.000000
-31,-21,51,1635111146.0,32.000000
-31,-21,51,1635111146.0,32.000000
-31,-21,51,1635111146.0,32.000000
-31,-20,51,1635111146.0,32.000000
-31,-21,52,1635111146.0,32.000000
-31,-21,52,1635111146.0,32.000000
-31,-21,51,1635111146.0,32.000000
-31,-21,52,1635111146.0,32.000000
-31,-21,51,1635111146.0,32.000000
-31,-21,52,1635111146.0,32.000000
-31,-21,51,1635111146.0,32.000000
-31,-21,51,1635111146.0,32.000000
-31,-21,51,1635111146.0,32.000000
-31,-21,52,1635111146.0,32.000000
-31,-21,51,1635111146.0,32.000000
-31,-21,52,1635111146.0,32.000000
-31,-21,51,1635111146.0,32.000000
-31,-21,51,1635111146.0,32.000000
-31,-21,51,1635111146.0,32.000000
-31,-21,51,1635111146.0,32.000000
-31,-21,51,1635111146.0,32.000000
-31,-21,51,1635111146.0,32.000000
-31,-21,51,1635111146.0,32.000000
-31,-21,52,1635111146.0,32.000000
-31,-21,52,1635111146.0,32.000000
-31,-21,51,1635111146.0,32.000000
-31,-21,51,1635111146.0,32.000000
-31,-21,51,1635111146.0,32.000000
-31,-21,51,1635111146.0,32.000000
-31,-21,52,1635111146.0,32.000000
-31,-21,51,1635111146.0,32.000000
-31,-21,51,1635111146.0,32.000000
-31,-21,51,1635111146.0,32.000000
-31,-21,51,1635111146.0,32.000000
-31,-21,52,1635111146.0,32.000000
-31,-21,52,1635111146.0,32.000000
-31,-21,52,1635111146.0,32.000000
-31,-21,51,1635111146.0,32.000000
-31,-21,51,1635111146.0,32.000000
-31,-21,52,1635111146.0,32.000000
-31,-21,51,1635111146.0,32.000000
-31,-21,52,1635111146.0,32.000000
-31,-21,51,1635111146.0,32.000000
-31,-21,52,1635111146.0,32.000000
-31,-21,52,1635111146.0,32.000000
-32,-22,53,1635111146.0,32.000000
-33,-23,51,1635111146.0,32.000000
-37,-20,48,1635111146.0,32.000000
-23,-18,58,1635111146.0,32.000000
-32,-24,46,1635111146.0,32.000000
-22,-21,62,1635111146.0,32.000000
-21,-25,60,1635111146.0,32.000000
-27,-35,56,1635111146.0,32.000000
-26,-31,57,1635111146.0,32.000000
-23,-32,59,1635111146.0,32.000000
-23,-31,57,1635111146.0,32.000000
-19,-28,53,1635111146.0,32.000000
-20,-27,51,1635111146.0,32.000000
-17,-25,49,1635111146.0,32.000000
-16,-24,47,1635111146.0,32.000000
-15,-20,49,1635111146.0,32.000000
-14,-18,51,1635111146.0,32.000000
-10,-14,52,1635111146.0,32.000000
-7,-12,53,1635111146.0,32.000000
-9,-8,60,1635111146.0,32.000000
-12,-6,60,1635111146.0,32.000000
-8,-3,63,1635111146.0,32.000000
-10,-2,61,1635111146.0,32.000000
-12,0,72,1635111146.0,32.000000
-9,0,73,1635111146.0,32.000000
-8,-3,70,1635111146.0,32.000000
-8,-5,67,1635111146.0,32.000000
-7,-6,63,1635111146.0,32.000000
-7,-7,62,1635111146.0,32.000000
-7,-7,61,1635111146.0,32.000000
-4,-6,61,1635111146.0,32.000000
-3,-7,63,1635111146.0,32.000000
-3,-8,64,1635111146.0,32.000000
-6,-8,63,1635111146.0,32.000000
-8,-8,64,1635111146.0,32.000000
-9,-10,63,1635111146.0,32.000000
-16,-9,57,1635111146.0,32.000000
-22,-9,56,1635111146.0,32.000000
-26,-7,59,1635111146.0,32.000000
-25,-7,59,1635111146.0,32.000000
-35,-3,53,1635111146.0,32.000000
-37,-2,55,1635111146.0,32.000000
-43,0,55,1635111146.0,32.000000
-41,1,55,1635111146.0,32.000000
-29,-3,57,1635111146.0,32.000000
-24,-4,59,1635111146.0,32.000000
-25,0,59,1635111146.0,32.000000
-24,2,61,1635111146.0,32.000000
-26,0,61,1635111146.0,32.000000
-26,-1,59,1635111146.0,32.000000
-28,-4,58,1635111146.0,32.000000
-26,-5,58,1635111146.0,32.000000
-25,-6,59,1635111146.0,32.000000
-23,-6,56,1635111146.0,32.000000
-31,-7,54,1635111146.0,32.000000
-20,-4,57,1635111146.0,32.000000
-25,-4,60,1635111146.0,32.000000
-27,4,57,1635111146.0,32.000000
-28,5,56,1635111146.0,32.000000
-16,7,65,1635111146.0,32.000000
-18,4,59,1635111146.0,32.000000
-40,-2,54,1635111146.0,32.000000
-41,-1,52,1635111146.0,32.000000
-27,2,61,1635111146.0,32.000000
-33,1,54,1635111146.0,32.000000
-35,3,54,1635111146.0,32.000000
-38,3,52,1635111146.0,32.000000
-43,-2,47,1635111146.0,32.000000
-40,-3,49,1635111146.0,32.000000
-40,-2,52,1635111146.0,32.000000
-44,-3,47,1635111146.0,32.000000
-43,1,47,1635111146.0,32.000000
-39,2,52,1635111146.0,32.000000
-41,-4,46,1635111146.0,32.000000
-43,-5,46,1635111146.0,32.000000
-40,-1,52,1635111146.0,32.000000
-38,-1,55,1635111146.0,32.000000
-41,-2,49,1635111146.0,32.000000
-40,1,50,1635111146.0,32.000000
-28,1,60,1635111146.0,32.000000
-29,0,57,1635111146.0,32.000000
-33,-1,54,1635111146.0,32.000000
-32,-2,54,1635111146.0,32.000000
-29,-5,57,1635111146.0,32.000000
-31,-5,55,1635111146.0,32.000000
-29,-3,57,1635111146.0,32.000000
-30,2,56,1635111146.0,32.000000
-33,5,55,1635111146.0,32.000000
-31,9,55,1635111146.0,32.000000
-33,8,54,1635111146.0,32.000000
-32,0,56,1635111146.0,32.000000
-33,0,56,1635111146.0,32.000000
-34,-1,55,1635111146.0,32.000000
-34,-1,55,1635111146.0,32.000000
-33,-1,55,1635111146.0,32.000000
-34,-2,54,1635111146.0,32.000000
-35,-2,52,1635111146.0,32.000000
-35,-2,53,1635111146.0,32.000000
-39,-1,51,1635111146.0,32.000000
-40,-2,49,1635111146.0,32.000000
-45,-4,46,1635111146.0,32.000000
-46,-4,46,1635111146.0,32.000000
-42,-3,48,1635111146.0,32.000000
-45,-2,45,1635111146.0,32.000000
-47,-2,45,1635111146.0,32.000000
-41,0,52,1635111146.0,32.000000
-41,-1,50,1635111146.0,32.000000
-41,-1,52,1635111146.0,32.000000
-36,-3,53,1635111146.0,32.000000
-36,-8,51,1635111146.0,32.000000
-31,-8,50,1635111146.0,32.000000
-33,-3,56,1635111146.0,32.000000
-33,-2,54,1635111146.0,32.000000
-34,-2,53,1635111146.0,32.000000
-38,-2,52,1635111146.0,32.000000
-39,-2,49,1635111146.0,32.000000
-48,-3,47,1635111146.0,32.000000
-45,-2,47,1635111146.0,32.000000
-56,0,41,1635111146.0,32.000000
-40,-1,49,1635111146.0,32.000000
-39,-1,50,1635111146.0,32.000000
-42,-1,49,1635111146.0,32.000000
-45,0,49,1635111146.0,32.000000
-46,-2,47,1635111146.0,32.000000
-45,-1,46,1635111146.0,32.000000
-39,5,51,1635111146.0,32.000000
-36,5,52,1635111146.0,32.000000
-36,4,53,1635111146.0,32.000000
-39,2,51,1635111146.0,32.000000
-41,0,50,1635111146.0,32.000000
-41,0,50,1635111146.0,32.000000
-40,0,50,1635111146.0,32.000000
-41,0,49,1635111146.0,32.000000
-40,-1,49,1635111146.0,32.000000
-40,-1,50,1635111146.0,32.000000
-41,-2,49,1635111146.0,32.000000
-43,-3,48,1635111146.0,32.000000
-43,-3,47,1635111146.0,32.000000
-42,-4,48,1635111146.0,32.000000
-42,-4,48,1635111146.0,32.000000
-42,-3,48,1635111146.0,32.000000
-43,-3,48,1635111146.0,32.000000
-42,-3,48,1635111146.0,32.000000
-42,-3,48,1635111146.0,32.000000
-42,-3,48,1635111146.0,32.000000
-42,-3,48,1635111146.0,32.000000
-42,-3,48,1635111146.0,32.000000
-42,-3,47,1635111146.0,32.000000
-42,-3,48,1635111146.0,32.000000
-42,-3,49,1635111146.0,32.000000
-42,-2,48,1635111146.0,32.000000
-42,-3,48,1635111146.0,32.000000
-42,-3,48,1635111146.0,32.000000
-42,-2,48,1635111146.0,32.000000
-42,-2,49,1635111146.0,32.000000
-42,-2,49,1635111146.0,32.000000
-41,-2,49,1635111146.0,32.000000
-42,-2,48,1635111146.0,32.000000
-42,-2,49,1635111146.0,32.000000
-41,-2,49,1635111146.0,32.000000
-41,-2,49,1635111146.0,32.000000
-41,-2,49,1635111146.0,32.000000
-41,-2,49,1635111146.0,32.000000
-41,-2,49,1635111146.0,32.000000
-41,-2,49,1635111146.0,32.000000
-41,-2,49,1635111146.0,32.000000
-41,-2,49,1635111146.0,32.000000
-41,-2,49,1635111146.0,32.000000
-41,-2,49,1635111146.0,32.000000
-41,-2,49,1635111146.0,32.000000
-41,-2,49,1635111146.0,32.000000
-41,-2,49,1635111146.0,32.000000
-41,-2,49,1635111146.0,32.000000
-41,-2,49,1635111146.0,32.000000
-41,-2,49,1635111146.0,32.000000
-41,-3,49,1635111146.0,32.000000
-41,-3,49,1635111146.0,32.000000
-41,-2,49,1635111146.0,32.000000
-41,-2,49,1635111146.0,32.000000
-41,-2,49,1635111146.0,32.000000
-41,-2,49,1635111146.0,32.000000
-41,-2,49,1635111146.0,32.000000
-41,-2,49,1635111146.0,32.000000
-41,-2,49,1635111146.0,32.000000
-41,-2,49,1635111146.0,32.000000
-41,-2,49,1635111146.0,32.000000
-41,-2,49,1635111146.0,32.000000
-41,-2,50,1635111146.0,32.000000
-41,-2,49,1635111146.0,32.000000
-41,-2,49,1635111146.0,32.000000
-41,-2,49,1635111146.0,32.000000
-41,-2,49,1635111146.0,32.000000
-41,-2,49,1635111146.0,32.000000
-41,-2,49,1635111146.0,32.000000
-41,-3,49,1635111146.0,32.000000
-41,-3,49,1635111146.0,32.000000
-41,-2,49,1635111146.0,32.000000
-41,-2,49,1635111146.0,32.000000
-41,-3,49,1635111146.0,32.000000
-41,-3,48,1635111146.0,32.000000
-41,-2,49,1635111146.0,32.000000
-41,-3,49,1635111146.0,32.000000
-41,-3,49,1635111146.0,32.000000
-41,-2,49,1635111146.0,32.000000
-41,-3,49,1635111146.0,32.000000
-41,-2,49,1635111146.0,32.000000
-41,-3,49,1635111146.0,32.000000
-41,-2,49,1635111146.0,32.000000
-41,-2,49,1635111146.0,32.000000
-41,-2,49,1635111146.0,32.000000
-41,-2,49,1635111146.0,32.000000
-41,-2,49,1635111146.0,32.000000
-41,-2,49,1635111146.0,32.000000
-41,-3,49,1635111146.0,32.000000
-41,-2,49,1635111146.0,32.000000
-41,-3,49,1635111146.0,32.000000
-41,-3,49,1635111146.0,32.000000
-41,-3,49,1635111146.0,32.000000
-41,-3,49,1635111146.0,32.000000
-41,-2,49,1635111146.0,32.000000
-41,-3,49,1635111146.0,32.000000
-41,-3,49,1635111146.0,32.000000
-41,-3,49,1635111146.0,32.000000
-41,-3,49,1635111146.0,32.000000
-41,-2,49,1635111146.0,32.000000
-41,-3,49,1635111146.0,32.000000
-41,-3,49,1635111146.0,32.000000
-41,-2,49,1635111146.0,32.000000
-41,-3,49,1635111146.0,32.000000
-41,-3,49,1635111146.0,32.000000
-41,-2,49,1635111146.0,32.000000
-41,-3,49,1635111146.0,32.000000
-41,-3,49,1635111146.0,32.000000
-41,-3,49,1635111146.0,32.000000
-41,-3,49,1635111146.0,32.000000
-41,-2,49,1635111146.0,32.000000
-41,-3,49,1635111146.0,32.000000
-41,-3,49,1635111146.0,32.000000
-42,-3,49,1635111146.0,32.000000
-41,-3,49,1635111146.0,32.000000
-41,-2,49,1635111146.0,32.000000
-41,-3,49,1635111146.0,32.000000
-42,-3,48,1635111146.0,32.000000
-42,-3,49,1635111146.0,32.000000
-42,-3,48,1635111146.0,32.000000
-42,-3,49,1635111146.0,32.000000
-41,-3,49,1635111146.0,32.000000
-42,-3,48,1635111146.0,32.000000
-41,-2,49,1635111146.0,32.000000
-41,-2,49,1635111146.0,32.000000
-41,-3,49,1635111146.0,32.000000
-42,-2,49,1635111146.0,32.000000
-41,-2,49,1635111146.0,32.000000
-41,-2,49,1635111146.0,32.000000
-41,-3,49,1635111146.0,32.000000
-42,-3,49,1635111146.0,32.000000
-41,-3,49,1635111146.0,32.000000
-41,-2,49,1635111146.0,32.000000
-41,-3,49,1635111146.0,32.000000
-41,-2,49,1635111146.0,32.000000
-41,-3,49,1635111146.0,32.000000
-41,-3,49,1635111146.0,32.000000
-41,-3,49,1635111146.0,32.000000
-41,-3,49,1635111146.0,32.000000
-41,-3,49,1635111146.0,32.000000
-41,-3,49,1635111146.0,32.000000
-41,-2,48,1635111146.0,32.000000
-41,-2,49,1635111146.0,32.000000
-42,-3,49,1635111146.0,32.000000
-41,-2,49,1635111146.0,32.000000
-41,-3,48,1635111146.0,32.000000
-41,-3,49,1635111146.0,32.000000
-41,-2,49,1635111146.0,32.000000
-41,-2,49,1635111146.0,32.000000
-41,-2,49,1635111146.0,32.000000
-41,-3,49,1635111146.0,32.000000
-41,-2,49,1635111146.0,32.000000
-41,-3,49,1635111146.0,32.000000
-41,-2,49,1635111146.0,32.000000
-41,-3,49,1635111146.0,32.000000
-41,-3,49,1635111146.0,32.000000
-41,-3,49,1635111146.0,32.000000
-41,-2,49,1635111146.0,32.000000
-41,-3,48,1635111146.0,32.000000
-42,-3,49,1635111146.0,32.000000
-42,-3,49,1635111146.0,32.000000
-41,-3,49,1635111146.0,32.000000
-41,-3,49,1635111146.0,32.000000
-41,-2,49,1635111146.0,32.000000
-41,-2,49,1635111146.0,32.000000
-41,-3,49,1635111146.0,32.000000
-41,-2,49,1635111146.0,32.000000
-41,-3,49,1635111146.0,32.000000
-41,-3,49,1635111146.0,32.000000
-41,-3,49,1635111146.0,32.000000
-41,-3,49,1635111146.0,32.000000
-41,-2,49,1635111146.0,32.000000
-41,-2,49,1635111146.0,32.000000
-41,-3,49,1635111146.0,32.000000
-42,-3,49,1635111146.0,32.000000
-41,-3,48,1635111146.0,32.000000
-42,-2,49,1635111146.0,32.000000
-41,-2,49,1635111146.0,32.000000
-41,-2,49,1635111146.0,32.000000
-41,-3,49,1635111146.0,32.000000
-42,-2,49,1635111146.0,32.000000
-40,-3,48,1635111146.0,32.000000
-42,-2,49,1635111146.0,32.000000
-41,-2,49,1635111146.0,32.000000
-41,-2,50,1635111146.0,32.000000
-41,-3,49,1635111146.0,32.000000
-42,-3,49,1635111146.0,32.000000
-40,-3,48,1635111146.0,32.000000
-42,-2,49,1635111146.0,32.000000
-41,-2,49,1635111146.0,32.000000
-42,-3,49,1635111146.0,32.000000
-42,-3,49,1635111146.0,32.000000
-42,-3,48,1635111146.0,32.000000
-42,-3,49,1635111146.0,32.000000
-41,-2,49,1635111146.0,32.000000
-42,-3,48,1635111146.0,32.000000
-42,-3,49,1635111146.0,32.000000
-42,-3,48,1635111146.0,32.000000
-42,-3,48,1635111146.0,32.000000
-42,-3,48,1635111146.0,32.000000
-42,-3,48,1635111146.0,32.000000
-42,-3,48,1635111146.0,32.000000
-41,-2,49,1635111146.0,32.000000
-42,-2,49,1635111146.0,32.000000
-42,-2,49,1635111146.0,32.000000
-41,-2,49,1635111146.0,32.000000
-41,-2,50,1635111146.0,32.000000
-41,-2,49,1635111146.0,32.000000
-41,-2,49,1635111146.0,32.000000
-41,-2,49,1635111146.0,32.000000
-41,-2,49,1635111146.0,32.000000
-41,-2,49,1635111146.0,32.000000
-41,-2,49,1635111146.0,32.000000
-42,-2,49,1635111146.0,32.000000
-41,-2,49,1635111146.0,32.000000
-41,-3,49,1635111146.0,32.000000
-41,-3,49,1635111146.0,32.000000
-41,-2,49,1635111146.0,32.000000
-41,-3,49,1635111146.0,32.000000
-41,-2,49,1635111146.0,32.000000
-41,-3,49,1635111146.0,32.000000
-41,-3,49,1635111146.0,32.000000
-41,-3,49,1635111146.0,32.000000
-42,-3,49,1635111146.0,32.000000
-41,-3,49,1635111146.0,32.000000
-41,-3,49,1635111146.0,32.000000
-41,-3,49,1635111146.0,32.000000
-41,-3,49,1635111146.0,32.000000
-41,-3,48,1635111146.0,32.000000
-41,-3,49,1635111146.0,32.000000
-41,-3,49,1635111146.0,32.000000
-41,-3,49,1635111146.0,32.000000
-41,-3,49,1635111146.0,32.000000
-41,-3,49,1635111146.0,32.000000
-41,-3,49,1635111146.0,32.000000
-42,-2,49,1635111146.0,32.000000
-42,-2,49,1635111146.0,32.000000
-41,-3,48,1635111146.0,32.000000
-41,-3,48,1635111146.0,32.000000
-42,-2,49,1635111146.0,32.000000
-42,-2,49,1635111146.0,32.000000
-41,-2,49,1635111146.0,32.000000
-41,-3,49,1635111146.0,32.000000
-41,-2,49,1635111146.0,32.000000
-41,-2,49,1635111146.0,32.000000
-41,-2,49,1635111146.0,32.000000
-41,-2,49,1635111146.0,32.000000
-41,-2,49,1635111146.0,32.000000
-41,-2,49,1635111146.0,32.000000
-41,-2,49,1635111146.0,32.000000
-41,-2,49,1635111146.0,32.000000
-41,-2,49,1635111146.0,32.000000
-42,-2,49,1635111146.0,32.000000
-41,-2,49,1635111146.0,32.000000
-42,-2,49,1635111146.0,32.000000
-41,-2,49,1635111146.0,32.000000
-41,-3,49,1635111146.0,32.000000
-41,-2,49,1635111146.0,32.000000
-41,-2,49,1635111146.0,32.000000
-41,-2,49,1635111146.0,32.000000
-41,-2,49,1635111146.0,32.000000
-42,-3,49,1635111146.0,32.000000
-41,-2,49,1635111146.0,32.000000
-41,-2,49,1635111146.0,32.000000
-41,-2,49,1635111146.0,32.000000
-41,-3,49,1635111146.0,32.000000
-41,-3,49,1635111146.0,32.000000
-41,-2,49,1635111146.0,32.000000
-41,-2,49,1635111146.0,32.000000
-41,-3,49,1635111146.0,32.000000
-41,-2,49,1635111146.0,32.000000
-41,-3,49,1635111146.0,32.000000
-41,-2,49,1635111146.0,32.000000
-41,-2,49,1635111146.0,32.000000
-41,-3,49,1635111146.0,32.000000
-41,-2,49,1635111146.0,32.000000
-41,-3,49,1635111146.0,32.000000
-41,-2,49,1635111146.0,32.000000
-41,-2,49,1635111146.0,32.000000
-41,-2,49,1635111146.0,32.000000
-41,-3,49,1635111146.0,32.000000
-41,-2,49,1635111146.0,32.000000
-41,-2,49,1635111146.0,32.000000
-41,-2,49,1635111146.0,32.000000
-41,-2,49,1635111146.0,32.000000
-41,-2,49,1635111146.0,32.000000
-41,-3,49,1635111146.0,32.000000
-41,-3,49,1635111146.0,32.000000
-41,-3,49,1635111146.0,32.000000
-41,-2,49,1635111146.0,32.000000
-41,-2,49,1635111146.0,32.000000
-41,-3,49,1635111146.0,32.000000
-41,-3,49,1635111146.0,32.000000
-41,-2,49,1635111146.0,32.000000
-41,-2,49,1635111146.0,32.000000
-41,-2,49,1635111146.0,32.000000
-41,-2,49,1635111146.0,32.000000
-41,-2,49,1635111146.0,32.000000
-41,-3,49,1635111146.0,32.000000
-41,-2,49,1635111146.0,32.000000
-41,-2,49,1635111146.0,32.000000
-41,-2,49,1635111146.0,32.000000
-41,-2,49,1635111146.0,32.000000
-41,-2,49,1635111146.0,32.000000
-41,-2,49,1635111146.0,32.000000
-41,-2,49,1635111146.0,32.000000
-41,-3,49,1635111146.0,32.000000
-41,-2,49,1635111146.0,32.000000
-41,-2,49,1635111146.0,32.000000
-42,-2,49,1635111146.0,32.000000
-41,-2,49,1635111146.0,32.000000
-41,-2,49,1635111146.0,32.000000
-41,-2,49,1635111146.0,32.000000
-41,-2,49,1635111146.0,32.000000
-41,-2,49,1635111146.0,32.000000
-41,-2,49,1635111146.0,32.000000
-41,-2,49,1635111146.0,32.000000
-41,-2,49,1635111146.0,32.000000
-41,-3,49,1635111146.0,32.000000
-41,-2,49,1635111146.0,32.000000
-41,-2,49,1635111146.0,32.000000
-41,-3,49,1635111146.0,32.000000
-41,-2,49,1635111146.0,32.000000
-41,-2,49,1635111146.0,32.000000
-41,-2,49,1635111146.0,32.000000
-41,-2,49,1635111146.0,32.000000
-41,-2,49,1635111146.0,32.000000
-41,-2,49,1635111146.0,32.000000
-41,-3,49,1635111146.0,32.000000
-41,-2,49,1635111146.0,32.000000
-41,-2,49,1635111146.0,32.000000
-41,-2,49,1635111146.0,32.000000
-41,-2,49,1635111146.0,32.000000
-41,-2,49,1635111146.0,32.000000
-41,-2,49,1635111146.0,32.000000
-41,-2,49,1635111146.0,32.000000
-41,-2,49,1635111146.0,32.000000
-41,-2,49,1635111146.0,32.000000
-41,-2,49,1635111146.0,32.000000
-41,-2,49,1635111146.0,32.000000
-41,-2,49,1635111146.0,32.000000
-41,-3,49,1635111146.0,32.000000
-41,-2,49,1635111146.0,32.000000
-41,-2,49,1635111146.0,32.000000
-41,-2,49,1635111146.0,32.000000
-41,-3,49,1635111146.0,32.000000
-41,-2,49,1635111146.0,32.000000
-41,-2,49,1635111146.0,32.000000
-41,-2,49,1635111146.0,32.000000
-41,-2,49,1635111146.0,32.000000
-41,-2,49,1635111146.0,32.000000
-41,-2,49,1635111146.0,32.000000
-41,-2,49,1635111146.0,32.000000
-41,-2,49,1635111146.0,32.000000
-41,-3,49,1635111146.0,32.000000
-41,-2,49,1635111146.0,32.000000
-41,-2,49,1635111146.0,32.000000
-41,-2,49,1635111146.0,32.000000
-41,-3,49,1635111146.0,32.000000
-41,-2,49,1635111146.0,32.000000
-41,-2,49,1635111146.0,32.000000
-41,-2,49,1635111146.0,32.000000
-41,-2,49,1635111146.0,32.000000
-41,-2,49,1635111146.0,32.000000
-41,-2,49,1635111146.0,32.000000
-41,-2,49,1635111146.0,32.000000
-41,-2,49,1635111146.0,32.000000
-41,-2,49,1635111146.0,32.000000
-41,-2,49,1635111146.0,32.000000
-41,-2,49,1635111146.0,32.000000
-41,-2,49,1635111146.0,32.000000
-41,-3,49,1635111146.0,32.000000
-41,-2,49,1635111146.0,32.000000
-41,-2,49,1635111146.0,32.000000
-41,-2,49,1635111146.0,32.000000
-41,-2,49,1635111146.0,32.000000
-41,-2,49,1635111146.0,32.000000
-41,-2,49,1635111146.0,32.000000
-41,-2,49,1635111146.0,32.000000
-41,-2,49,1635111146.0,32.000000
-41,-2,49,1635111146.0,32.000000
-41,-2,49,1635111146.0,32.000000
-41,-2,49,1635111146.0,32.000000
-41,-2,49,1635111146.0,32.000000
-41,-2,49,1635111146.0,32.000000
-41,-2,49,1635111146.0,32.000000
-41,-2,49,1635111146.0,32.000000
-41,-2,49,1635111146.0,32.000000
-41,-2,49,1635111146.0,32.000000
-41,-2,49,1635111146.0,32.000000
-41,-2,49,1635111146.0,32.000000
-41,-2,49,1635111146.0,32.000000
-41,-2,49,1635111146.0,32.000000
-41,-2,49,1635111146.0,32.000000
-41,-2,49,1635111146.0,32.000000
-41,-2,49,1635111146.0,32.000000
-41,-2,49,1635111146.0,32.000000
-41,-2,49,1635111146.0,32.000000
-41,-2,49,1635111146.0,32.000000
-41,-2,49,1635111146.0,32.000000
-41,-2,49,1635111146.0,32.000000
-41,-2,49,1635111146.0,32.000000
-41,-2,49,1635111146.0,32.000000
-41,-2,49,1635111146.0,32.000000
-41,-2,49,1635111146.0,32.000000
-41,-2,49,1635111146.0,32.000000
-41,-2,49,1635111146.0,32.000000
-41,-2,49,1635111146.0,32.000000
-41,-2,49,1635111146.0,32.000000
-41,-2,49,1635111146.0,32.000000
-41,-2,49,1635111146.0,32.000000
-41,-2,49,1635111146.0,32.000000
-41,-2,49,1635111146.0,32.000000
-41,-2,49,1635111146.0,32.000000
-41,-2,49,1635111146.0,32.000000
-41,-2,49,1635111146.0,32.000000
-41,-2,49,1635111146.0,32.000000
-41,-2,49,1635111146.0,32.000000
-41,-2,49,1635111146.0,32.000000
-41,-2,49,1635111146.0,32.000000
-41,-2,49,1635111146.0,32.000000
-41,-2,49,1635111146.0,32.000000
-41,-3,49,1635111146.0,32.000000
-41,-2,49,1635111146.0,32.000000
-41,-2,49,1635111146.0,32.000000
-41,-2,49,1635111146.0,32.000000
-41,-2,49,1635111146.0,32.000000
-41,-2,49,1635111146.0,32.000000
-41,-2,49,1635111146.0,32.000000
-41,-2,49,1635111146.0,32.000000
-41,-2,49,1635111146.0,32.000000
-41,-2,49,1635111146.0,32.000000
-41,-2,49,1635111146.0,32.000000
-41,-3,49,1635111146.0,32.000000
-41,-2,49,1635111146.0,32.000000
-41,-2,49,1635111146.0,32.000000
-41,-2,49,1635111146.0,32.000000
-41,-3,49,1635111146.0,32.000000
-41,-2,49,1635111146.0,32.000000
-41,-2,49,1635111146.0,32.000000
-41,-2,49,1635111146.0,32.000000
-41,-2,49,1635111146.0,32.000000
-41,-2,49,1635111146.0,32.000000
-41,-2,49,1635111146.0,32.000000
-41,-2,49,1635111146.0,32.000000
-41,-2,49,1635111146.0,32.000000
-41,-2,49,1635111146.0,32.000000
-41,-2,49,1635111146.0,32.000000
-41,-2,49,1635111146.0,32.000000
-41,-2,49,1635111146.0,32.000000
-41,-2,49,1635111146.0,32.000000
-41,-2,49,1635111146.0,32.000000
-41,-2,49,1635111146.0,32.000000
-41,-2,49,1635111146.0,32.000000
-41,-2,49,1635111146.0,32.000000
-41,-2,49,1635111146.0,32.000000
-41,-2,49,1635111146.0,32.000000
-41,-2,49,1635111146.0,32.000000
-41,-2,49,1635111146.0,32.000000
-41,-2,49,1635111146.0,32.000000
-41,-2,49,1635111146.0,32.000000
-41,-2,49,1635111146.0,32.000000
-41,-2,49,1635111146.0,32.000000
-41,-2,49,1635111146.0,32.000000
-41,-2,49,1635111146.0,32.000000
-41,-2,49,1635111146.0,32.000000
-41,-2,49,1635111146.0,32.000000
-41,-2,49,1635111146.0,32.000000
-41,-2,49,1635111146.0,32.000000
-41,-2,49,1635111146.0,32.000000
-41,-2,49,1635111146.0,32.000000
-41,-2,49,1635111146.0,32.000000
-41,-2,49,1635111146.0,32.000000
-41,-2,49,1635111146.0,32.000000
-41,-2,49,1635111146.0,32.000000
-41,-2,49,1635111146.0,32.000000
-41,-2,49,1635111146.0,32.000000
-41,-2,49,1635111146.0,32.000000
-41,-2,49,1635111146.0,32.000000
-41,-2,49,1635111146.0,32.000000
-41,-2,49,1635111146.0,32.000000
-41,-2,49,1635111146.0,32.000000
-41,-2,50,1635111146.0,32.000000
-41,-2,49,1635111146.0,32.000000
-41,-2,49,1635111146.0,32.000000
-41,-2,49,1635111146.0,32.000000
-41,-2,50,1635111146.0,32.000000
-41,-2,49,1635111146.0,32.000000
-41,-2,49,1635111146.0,32.000000
-41,-2,49,1635111146.0,32.000000
-41,-2,49,1635111146.0,32.000000
-41,-2,49,1635111146.0,32.000000
-41,-2,49,1635111146.0,32.000000
-41,-2,49,1635111146.0,32.000000
-41,-2,49,1635111146.0,32.000000
-41,-2,49,1635111146.0,32.000000
-41,-2,49,1635111146.0,32.000000
-41,-2,49,1635111146.0,32.000000
-41,-2,49,1635111146.0,32.000000
-41,-2,49,1635111146.0,32.000000
-41,-2,49,1635111146.0,32.000000
-41,-2,49,1635111146.0,32.000000
-41,-2,49,1635111146.0,32.000000
-41,-2,49,1635111146.0,32.000000
-41,-2,49,1635111146.0,32.000000
-40,-2,49,1635111146.0,32.000000
-41,-1,50,1635111146.0,32.000000
-40,-2,49,1635111146.0,32.000000
-40,-2,50,1635111146.0,32.000000
-40,-2,49,1635111146.0,32.000000
-41,-2,50,1635111146.0,32.000000
-40,-2,50,1635111146.0,32.000000
-41,-2,49,1635111146.0,32.000000
-41,-2,49,1635111146.0,32.000000
-41,-3,49,1635111146.0,32.000000
-41,-2,49,1635111146.0,32.000000
-41,-2,49,1635111146.0,32.000000
-41,-2,49,1635111146.0,32.000000
-41,-2,49,1635111146.0,32.000000
-41,-2,49,1635111146.0,32.000000
-41,-2,49,1635111146.0,32.000000
-41,-2,49,1635111146.0,32.000000
-41,-2,49,1635111146.0,32.000000
-41,-2,49,1635111146.0,32.000000
-41,-2,49,1635111146.0,32.000000
-41,-2,49,1635111146.0,32.000000
-41,-2,49,1635111146.0,32.000000
-41,-2,49,1635111146.0,32.000000
-41,-2,49,1635111146.0,32.000000
-41,-2,49,1635111146.0,32.000000
-41,-2,49,1635111146.0,32.000000
-41,-2,49,1635111146.0,32.000000
-41,-2,49,1635111146.0,32.000000
-41,-2,49,1635111146.0,32.000000
-41,-2,49,1635111146.0,32.000000
-41,-2,49,1635111146.0,32.000000
-41,-2,49,1635111146.0,32.000000
-41,-2,49,1635111146.0,32.000000
-41,-2,49,1635111146.0,32.000000
-41,-2,49,1635111146.0,32.000000
-41,-2,49,1635111146.0,32.000000
-41,-2,49,1635111146.0,32.000000
-41,-2,49,1635111146.0,32.000000
-41,-2,49,1635111146.0,32.000000
-41,-2,49,1635111146.0,32.000000
-41,-2,50,1635111146.0,32.000000
-41,-2,49,1635111146.0,32.000000
-41,-2,49,1635111146.0,32.000000
-41,-2,49,1635111146.0,32.000000
-41,-2,49,1635111146.0,32.000000
-41,-2,49,1635111146.0,32.000000
-41,-2,49,1635111146.0,32.000000
-41,-2,49,1635111146.0,32.000000
-41,-2,49,1635111146.0,32.000000
-41,-2,49,1635111146.0,32.000000
-41,-2,49,1635111146.0,32.000000
-40,-2,49,1635111146.0,32.000000
-41,-2,49,1635111146.0,32.000000
-40,-2,49,1635111146.0,32.000000
-41,-2,49,1635111146.0,32.000000
-41,-2,49,1635111146.0,32.000000
-41,-2,49,1635111146.0,32.000000
-41,-2,50,1635111146.0,32.000000
-40,-2,49,1635111146.0,32.000000
-41,-2,49,1635111146.0,32.000000
-41,-2,49,1635111146.0,32.000000
-41,-2,49,1635111146.0,32.000000
-41,-2,49,1635111146.0,32.000000
-41,-2,49,1635111146.0,32.000000
-42,-2,49,1635111146.0,32.000000
-41,-2,49,1635111146.0,32.000000
-41,-2,49,1635111146.0,32.000000
-41,-2,49,1635111146.0,32.000000
-41,-1,50,1635111146.0,32.000000
-40,-2,50,1635111146.0,32.000000
-42,-2,49,1635111146.0,32.000000
-41,-2,49,1635111146.0,32.000000
-40,-2,50,1635111146.0,32.000000
-41,-2,49,1635111146.0,32.000000
-41,-2,49,1635111146.0,32.000000
-41,-2,49,1635111146.0,32.000000
-41,-2,49,1635111146.0,32.000000
-41,-2,50,1635111146.0,32.000000
-41,-2,49,1635111146.0,32.000000
-41,-2,49,1635111146.0,32.000000
-41,-2,49,1635111146.0,32.000000
-41,-2,49,1635111146.0,32.000000
-41,-2,49,1635111146.0,32.000000
-41,-2,49,1635111146.0,32.000000
-41,-2,49,1635111146.0,32.000000
-41,-2,49,1635111146.0,32.000000
-41,-2,49,1635111146.0,32.000000
-41,-2,49,1635111146.0,32.000000
-41,-2,50,1635111146.0,32.000000
-41,-2,49,1635111146.0,32.000000
-41,-2,49,1635111146.0,32.000000
-41,-2,49,1635111146.0,32.000000
-41,-2,49,1635111146.0,32.000000
-41,-2,49,1635111146.0,32.000000
-41,-2,49,1635111146.0,32.000000
-41,-2,49,1635111146.0,32.000000
-41,-2,49,1635111146.0,32.000000
-41,-2,49,1635111146.0,32.000000
-41,-2,49,1635111146.0,32.000000
-41,-2,49,1635111146.0,32.000000
-41,-2,49,1635111146.0,32.000000
-41,-2,49,1635111146.0,32.000000
-41,-2,49,1635111146.0,32.000000
-41,-2,49,1635111146.0,32.000000
-41,-2,49,1635111146.0,32.000000
-41,-2,49,1635111146.0,32.000000
-41,-2,49,1635111146.0,32.000000
-41,-2,49,1635111146.0,32.000000
-41,-2,49,1635111146.0,32.000000
-41,-2,49,1635111146.0,32.000000
-41,-2,49,1635111146.0,32.000000
-41,-2,49,1635111146.0,32.000000
-41,-2,49,1635111146.0,32.000000
-41,-2,49,1635111146.0,32.000000
-41,-2,49,1635111146.0,32.000000
-41,-2,49,1635111146.0,32.000000
-41,-2,49,1635111146.0,32.000000
-41,-2,49,1635111146.0,32.000000
-41,-2,49,1635111146.0,32.000000
-41,-2,49,1635111146.0,32.000000
-41,-2,49,1635111146.0,32.000000
-41,-2,49,1635111146.0,32.000000
-41,-2,49,1635111146.0,32.000000
-41,-2,49,1635111146.0,32.000000
-41,-2,49,1635111146.0,32.000000
-41,-2,49,1635111146.0,32.000000
-41,-2,49,1635111146.0,32.000000
-41,-2,49,1635111146.0,32.000000
-41,-2,49,1635111146.0,32.000000
-41,-2,49,1635111146.0,32.000000
-41,-2,49,1635111146.0,32.000000
-42,-2,49,1635111146.0,32.000000
-41,-2,49,1635111146.0,32.000000
-41,-2,49,1635111146.0,32.000000
-41,-2,49,1635111146.0,32.000000
-41,-2,49,1635111146.0,32.000000
-42,-2,49,1635111146.0,32.000000
-41,-2,49,1635111146.0,32.000000
-41,-2,49,1635111146.0,32.000000
-41,-2,49,1635111146.0,32.000000
-41,-2,50,1635111146.0,32.000000
-41,-2,49,1635111146.0,32.000000
-41,-2,49,1635111146.0,32.000000
-41,-2,49,1635111146.0,32.000000
-41,-2,49,1635111146.0,32.000000
-41,-2,49,1635111146.0,32.000000
-41,-2,49,1635111146.0,32.000000
-41,-2,49,1635111146.0,32.000000
-42,-2,49,1635111146.0,32.000000
-41,-2,49,1635111146.0,32.000000
-41,-2,49,1635111146.0,32.000000
-41,-2,49,1635111146.0,32.000000
-41,-2,49,1635111146.0,32.000000
-41,-2,49,1635111146.0,32.000000
-41,-2,49,1635111146.0,32.000000
-41,-2,49,1635111146.0,32.000000
-41,-2,49,1635111146.0,32.000000
-41,-2,49,1635111146.0,32.000000
-41,-2,49,1635111146.0,32.000000
-41,-2,49,1635111146.0,32.000000
-41,-2,49,1635111146.0,32.000000
-41,-2,49,1635111146.0,32.000000
-41,-2,49,1635111146.0,32.000000
-41,-2,49,1635111146.0,32.000000
-41,-2,49,1635111146.0,32.000000
-41,-2,49,1635111146.0,32.000000
-41,-2,49,1635111146.0,32.000000
-41,-2,49,1635111146.0,32.000000
-41,-2,49,1635111146.0,32.000000
-41,-2,49,1635111146.0,32.000000
-41,-2,49,1635111146.0,32.000000
-41,-2,49,1635111146.0,32.000000
-41,-2,49,1635111146.0,32.000000
-41,-2,49,1635111146.0,32.000000
-41,-2,49,1635111146.0,32.000000
-41,-2,49,1635111146.0,32.000000
-41,-2,49,1635111146.0,32.000000
-41,-2,49,1635111146.0,32.000000
-41,-2,49,1635111146.0,32.000000
-41,-2,49,1635111146.0,32.000000
-41,-2,49,1635111146.0,32.000000
-41,-2,49,1635111146.0,32.000000
-41,-2,49,1635111146.0,32.000000
-41,-2,49,1635111146.0,32.000000
-41,-2,49,1635111146.0,32.000000
-41,-2,49,1635111146.0,32.000000
-41,-2,49,1635111146.0,32.000000
-40,-2,49,1635111146.0,32.000000
-39,-2,50,1635111146.0,32.000000
-41,-1,50,1635111146.0,32.000000
-40,-1,50,1635111146.0,32.000000
-40,-1,50,1635111146.0,32.000000
-40,-2,50,1635111146.0,32.000000
-40,-2,50,1635111146.0,32.000000
-41,-2,50,1635111146.0,32.000000
-40,-2,50,1635111146.0,32.000000
-41,-2,49,1635111146.0,32.000000
-40,-2,49,1635111146.0,32.000000
-41,-2,49,1635111146.0,32.000000
-40,-2,49,1635111146.0,32.000000
-41,-2,49,1635111146.0,32.000000
-41,-2,49,1635111146.0,32.000000
-41,-2,49,1635111146.0,32.000000
-41,-2,49,1635111146.0,32.000000
-41,-2,49,1635111146.0,32.000000
-41,-2,49,1635111146.0,32.000000
-41,-2,49,1635111146.0,32.000000
-41,-2,49,1635111146.0,32.000000
-41,-2,49,1635111146.0,32.000000
-41,-2,49,1635111146.0,32.000000
-41,-2,49,1635111146.0,32.000000
-41,-2,49,1635111146.0,32.000000
-41,-2,49,1635111146.0,32.000000
-41,-2,49,1635111146.0,32.000000
-41,-2,49,1635111146.0,32.000000
-41,-2,49,1635111146.0,32.000000
-41,-2,49,1635111146.0,32.000000
-41,-2,49,1635111146.0,32.000000
-41,-2,49,1635111146.0,32.000000
-41,-2,49,1635111146.0,32.000000
-41,-2,49,1635111146.0,32.000000
-41,-2,49,1635111146.0,32.000000
-41,-2,49,1635111146.0,32.000000
-41,-2,49,1635111146.0,32.000000
-41,-2,49,1635111146.0,32.000000
-41,-2,49,1635111146.0,32.000000
-41,-2,49,1635111146.0,32.000000
-41,-2,49,1635111146.0,32.000000
-41,-2,49,1635111146.0,32.000000
-41,-2,49,1635111146.0,32.000000
-41,-2,49,1635111146.0,32.000000
-41,-2,49,1635111146.0,32.000000
-41,-2,49,1635111146.0,32.000000
-41,-2,49,1635111146.0,32.000000
-41,-2,49,1635111146.0,32.000000
-41,-2,49,1635111146.0,32.000000
-41,-2,49,1635111146.0,32.000000
-41,-2,49,1635111146.0,32.000000
-41,-2,49,1635111146.0,32.000000
-41,-2,49,1635111146.0,32.000000
-41,-2,49,1635111146.0,32.000000
-41,-2,49,1635111146.0,32.000000
-41,-2,49,1635111146.0,32.000000
-41,-2,49,1635111146.0,32.000000
-41,-2,49,1635111146.0,32.000000
-41,-2,49,1635111146.0,32.000000
-41,-2,49,1635111146.0,32.000000
-41,-2,49,1635111146.0,32.000000
-41,-2,49,1635111146.0,32.000000
-41,-2,49,1635111146.0,32.000000
-41,-2,49,1635111146.0,32.000000
-41,-2,49,1635111146.0,32.000000
-41,-2,49,1635111146.0,32.000000
-41,-2,49,1635111146.0,32.000000
-41,-2,49,1635111146.0,32.000000
-41,-2,50,1635111146.0,32.000000
-41,-2,50,1635111146.0,32.000000
-41,-2,49,1635111146.0,32.000000
-41,-2,49,1635111146.0,32.000000
-41,-2,49,1635111146.0,32.000000
-41,-2,49,1635111146.0,32.000000
-41,-2,49,1635111146.0,32.000000
-41,-2,49,1635111146.0,32.000000
-41,-2,49,1635111146.0,32.000000
-41,-2,49,1635111146.0,32.000000
-41,-2,49,1635111146.0,32.000000
-41,-2,49,1635111146.0,32.000000
-41,-2,49,1635111146.0,32.000000
-41,-2,49,1635111146.0,32.000000
-41,-2,49,1635111146.0,32.000000
-41,-2,49,1635111146.0,32.000000
-41,-2,49,1635111146.0,32.000000
-41,-2,49,1635111146.0,32.000000
-41,-2,49,1635111146.0,32.000000
-41,-2,49,1635111146.0,32.000000
-41,-2,49,1635111146.0,32.000000
-41,-2,49,1635111146.0,32.000000
-41,-2,49,1635111146.0,32.000000
-41,-2,50,1635111146.0,32.000000
-41,-2,49,1635111146.0,32.000000
-41,-2,49,1635111146.0,32.000000
-41,-2,49,1635111146.0,32.000000
-41,-2,49,1635111146.0,32.000000
-41,-2,49,1635111146.0,32.000000
-41,-2,49,1635111146.0,32.000000
-41,-2,50,1635111146.0,32.000000
-41,-2,49,1635111146.0,32.000000
-41,-2,49,1635111146.0,32.000000
-41,-2,49,1635111146.0,32.000000
-41,-2,49,1635111146.0,32.000000
-41,-2,49,1635111146.0,32.000000
-41,-2,49,1635111146.0,32.000000
-41,-2,49,1635111146.0,32.000000
-41,-2,50,1635111146.0,32.000000
-41,-2,49,1635111146.0,32.000000
-41,-2,49,1635111146.0,32.000000
-41,-2,49,1635111146.0,32.000000
-41,-2,49,1635111146.0,32.000000
-41,-2,49,1635111146.0,32.000000
-41,-2,49,1635111146.0,32.000000
-41,-2,49,1635111146.0,32.000000
-41,-2,49,1635111146.0,32.000000
-41,-2,49,1635111146.0,32.000000
-41,-2,49,1635111146.0,32.000000
-41,-2,49,1635111146.0,32.000000
-41,-2,49,1635111146.0,32.000000
-41,-2,49,1635111146.0,32.000000
-41,-2,49,1635111146.0,32.000000
-41,-2,49,1635111146.0,32.000000
-41,-2,49,1635111146.0,32.000000
-41,-2,49,1635111146.0,32.000000
-41,-2,49,1635111146.0,32.000000
-41,-2,49,1635111146.0,32.000000
-40,-2,49,1635111146.0,32.000000
-41,-2,49,1635111146.0,32.000000
-40,-2,49,1635111146.0,32.000000
-41,-2,49,1635111146.0,32.000000
-41,-2,49,1635111146.0,32.000000
-41,-2,49,1635111146.0,32.000000
-41,-2,49,1635111146.0,32.000000
-41,-2,49,1635111146.0,32.000000
-41,-2,50,1635111146.0,32.000000
-40,-2,49,1635111146.0,32.000000
-41,-2,49,1635111146.0,32.000000
-41,-2,49,1635111146.0,32.000000
-40,-2,49,1635111146.0,32.000000
-40,-2,50,1635111146.0,32.000000
-41,-2,49,1635111146.0,32.000000
-41,-2,49,1635111146.0,32.000000
-41,-2,49,1635111146.0,32.000000
-41,-2,49,1635111146.0,32.000000
-41,-2,49,1635111146.0,32.000000
-41,-2,49,1635111146.0,32.000000
-41,-2,49,1635111146.0,32.000000
-41,-2,49,1635111146.0,32.000000
-41,-2,49,1635111146.0,32.000000
-41,-2,49,1635111146.0,32.000000
-41,-2,49,1635111146.0,32.000000
-41,-2,49,1635111146.0,32.000000
-41,-2,49,1635111146.0,32.000000
-41,-2,49,1635111146.0,32.000000
-41,-2,49,1635111146.0,32.000000
-41,-2,49,1635111146.0,32.000000
-41,-2,49,1635111146.0,32.000000
-41,-2,49,1635111146.0,32.000000
-41,-2,49,1635111146.0,32.000000
-41,-2,49,1635111146.0,32.000000
-41,-2,49,1635111146.0,32.000000
-41,-2,50,1635111146.0,32.000000
-40,-2,49,1635111146.0,32.000000
-41,-2,49,1635111146.0,32.000000
-41,-2,49,1635111146.0,32.000000
-41,-2,49,1635111146.0,32.000000
-41,-2,49,1635111146.0,32.000000
-41,-2,49,1635111146.0,32.000000
-41,-2,49,1635111146.0,32.000000
-41,-2,49,1635111146.0,32.000000
-41,-2,50,1635111146.0,32.000000
-41,-2,49,1635111146.0,32.000000
-41,-2,49,1635111146.0,32.000000
-41,-2,50,1635111146.0,32.000000
-41,-2,49,1635111146.0,32.000000
-40,-2,49,1635111146.0,32.000000
-41,-2,49,1635111146.0,32.000000
-41,-2,49,1635111146.0,32.000000
-41,-2,49,1635111146.0,32.000000
-41,-2,49,1635111146.0,32.000000
-41,-2,49,1635111146.0,32.000000
-41,-2,49,1635111146.0,32.000000
-41,-2,49,1635111146.0,32.000000
-41,-2,49,1635111146.0,32.000000
-41,-2,49,1635111146.0,32.000000
-41,-2,49,1635111146.0,32.000000
-41,-2,49,1635111146.0,32.000000
-41,-2,49,1635111146.0,32.000000
-41,-2,49,1635111146.0,32.000000
-40,-2,49,1635111146.0,32.000000
-41,-2,49,1635111146.0,32.000000
-40,-2,50,1635111146.0,32.000000
-40,-2,50,1635111146.0,32.000000
-40,-2,50,1635111146.0,32.000000
-40,-2,50,1635111146.0,32.000000
-41,-2,49,1635111146.0,32.000000
-40,-1,50,1635111146.0,32.000000
-40,-2,50,1635111146.0,32.000000
-41,-2,49,1635111146.0,32.000000
-40,-2,49,1635111146.0,32.000000
-41,-2,50,1635111146.0,32.000000
-41,-2,50,1635111146.0,32.000000
-41,-2,49,1635111146.0,32.000000
-41,-2,49,1635111146.0,32.000000
-41,-2,49,1635111146.0,32.000000
-41,-2,49,1635111146.0,32.000000
-41,-2,49,1635111146.0,32.000000
-41,-2,49,1635111146.0,32.000000
-41,-2,49,1635111146.0,32.000000
-41,-2,49,1635111146.0,32.000000
-41,-2,49,1635111146.0,32.000000
-41,-2,49,1635111146.0,32.000000
-41,-2,49,1635111146.0,32.000000
-41,-2,49,1635111146.0,32.000000
-41,-2,49,1635111146.0,32.000000
-41,-2,49,1635111146.0,32.000000
-41,-2,49,1635111146.0,32.000000
-41,-2,49,1635111146.0,32.000000
-41,-2,49,1635111146.0,32.000000
-41,-2,49,1635111146.0,32.000000
-41,-2,49,1635111146.0,32.000000
-41,-2,49,1635111146.0,32.000000
-41,-2,49,1635111146.0,32.000000
-41,-2,49,1635111146.0,32.000000
-41,-2,49,1635111146.0,32.000000
-41,-2,49,1635111146.0,32.000000
-41,-2,49,1635111146.0,32.000000
-41,-2,49,1635111146.0,32.000000
-41,-2,49,1635111146.0,32.000000
-41,-2,49,1635111146.0,32.000000
-41,-2,49,1635111146.0,32.000000
-41,-2,49,1635111146.0,32.000000
-41,-2,49,1635111146.0,32.000000
-41,-2,49,1635111146.0,32.000000
-41,-2,49,1635111146.0,32.000000
-41,-2,49,1635111146.0,32.000000
-41,-2,49,1635111146.0,32.000000
-41,-2,49,1635111146.0,32.000000
-41,-2,49,1635111146.0,32.000000
-41,-2,49,1635111146.0,32.000000
-41,-2,49,1635111146.0,32.000000
-41,-2,49,1635111146.0,32.000000
-41,-2,49,1635111146.0,32.000000
-41,-2,49,1635111146.0,32.000000
-41,-2,49,1635111146.0,32.000000
-41,-2,49,1635111146.0,32.000000
-41,-2,49,1635111146.0,32.000000
-41,-2,49,1635111146.0,32.000000
-41,-2,49,1635111146.0,32.000000
-41,-2,49,1635111146.0,32.000000
-41,-2,49,1635111146.0,32.000000
-41,-2,49,1635111146.0,32.000000
-41,-2,49,1635111146.0,32.000000
-41,-2,50,1635111146.0,32.000000
-40,-2,49,1635111146.0,32.000000
-41,-2,50,1635111146.0,32.000000
-40,-2,49,1635111146.0,32.000000
-40,-2,50,1635111146.0,32.000000
-41,-2,49,1635111146.0,32.000000
-41,-2,49,1635111146.0,32.000000
-41,-2,49,1635111146.0,32.000000
-41,-2,49,1635111146.0,32.000000
-41,-2,49,1635111146.0,32.000000
-41,-2,49,1635111146.0,32.000000
-41,-2,49,1635111146.0,32.000000
-41,-2,49,1635111146.0,32.000000
-41,-2,49,1635111146.0,32.000000
-41,-2,49,1635111146.0,32.000000
-41,-2,49,1635111146.0,32.000000
-41,-2,49,1635111146.0,32.000000
-41,-2,49,1635111146.0,32.000000
-41,-2,49,1635111146.0,32.000000
-41,-2,49,1635111146.0,32.000000
-41,-2,49,1635111146.0,32.000000
-40,-2,49,1635111146.0,32.000000
-41,-2,49,1635111146.0,32.000000
-41,-2,49,1635111146.0,32.000000
-41,-2,49,1635111146.0,32.000000
-41,-2,49,1635111146.0,32.000000
-41,-2,49,1635111146.0,32.000000
-41,-2,50,1635111146.0,32.000000
-41,-2,49,1635111146.0,32.000000
-40,-2,50,1635111146.0,32.000000
-40,-1,50,1635111146.0,32.000000
-41,-2,49,1635111146.0,32.000000
-41,-2,49,1635111146.0,32.000000
-43,-4,48,1635111146.0,32.000000
-42,-4,47,1635111146.0,32.000000
-41,-2,49,1635111146.0,32.000000
-41,-2,49,1635111146.0,32.000000
-37,-2,54,1635111146.0,32.000000
-43,-5,46,1635111146.0,32.000000
-41,-4,43,1635111146.0,32.000000
-44,-3,43,1635111146.0,32.000000
-42,-2,46,1635111146.0,32.000000
-41,1,51,1635111146.0,32.000000
-42,0,50,1635111146.0,32.000000
-43,0,47,1635111146.0,32.000000
-43,0,48,1635111146.0,32.000000
-43,0,47,1635111146.0,32.000000
-47,-1,45,1635111146.0,32.000000
-44,-1,46,1635111146.0,32.000000
-44,-1,46,1635111146.0,32.000000
-44,-1,47,1635111146.0,32.000000
-45,-1,46,1635111146.0,32.000000
-46,-2,45,1635111146.0,32.000000
-45,-2,46,1635111146.0,32.000000
-48,-1,45,1635111146.0,32.000000
-46,-2,44,1635111146.0,32.000000
-46,0,45,1635111146.0,32.000000
-46,0,44,1635111146.0,32.000000
-46,2,45,1635111146.0,32.000000
-46,3,45,1635111146.0,32.000000
-46,1,45,1635111146.0,32.000000
-46,1,45,1635111146.0,32.000000
-46,0,46,1635111146.0,32.000000
-47,0,45,1635111146.0,32.000000
-49,0,45,1635111146.0,32.000000
-49,0,46,1635111146.0,32.000000
-47,-2,41,1635111146.0,32.000000
-47,1,42,1635111146.0,32.000000
-46,2,43,1635111146.0,32.000000
-46,-1,43,1635111146.0,32.000000
-48,0,42,1635111146.0,32.000000
-49,0,44,1635111146.0,32.000000
-49,0,44,1635111146.0,32.000000
-47,-1,43,1635111146.0,32.000000
-50,-1,42,1635111146.0,32.000000
-48,0,43,1635111146.0,32.000000
-48,0,43,1635111146.0,32.000000
-48,-1,42,1635111146.0,32.000000
-47,0,44,1635111146.0,32.000000
-48,-1,42,1635111146.0,32.000000
-49,-1,43,1635111146.0,32.000000
-48,0,43,1635111146.0,32.000000
-47,-1,43,1635111146.0,32.000000
-48,0,43,1635111146.0,32.000000
-48,0,43,1635111146.0,32.000000
-47,0,43,1635111146.0,32.000000
-47,-1,43,1635111146.0,32.000000
-47,-1,43,1635111146.0,32.000000
-48,0,43,1635111146.0,32.000000
-47,-1,43,1635111146.0,32.000000
-48,-1,44,1635111146.0,32.000000
-47,0,44,1635111146.0,32.000000
-47,0,44,1635111146.0,32.000000
-47,0,44,1635111146.0,32.000000
-47,0,44,1635111146.0,32.000000
-47,0,44,1635111146.0,32.000000
-47,-1,44,1635111146.0,32.000000
-47,-1,44,1635111146.0,32.000000
-47,0,44,1635111146.0,32.000000
-47,-1,44,1635111146.0,32.000000
-47,0,44,1635111146.0,32.000000
-47,0,44,1635111146.0,32.000000
-47,0,44,1635111146.0,32.000000
-47,0,44,1635111146.0,32.000000
-47,0,44,1635111146.0,32.000000
-47,-1,44,1635111146.0,32.000000
-47,0,44,1635111146.0,32.000000
-48,-1,44,1635111146.0,32.000000
-47,-1,44,1635111146.0,32.000000
-47,0,44,1635111146.0,32.000000
-47,-1,44,1635111146.0,32.000000
-47,0,44,1635111146.0,32.000000
-47,0,44,1635111146.0,32.000000
-47,0,44,1635111146.0,32.000000
-47,0,44,1635111146.0,32.000000
-47,0,44,1635111146.0,32.000000
-47,0,44,1635111146.0,32.000000
-47,0,44,1635111146.0,32.000000
-47,0,44,1635111146.0,32.000000
-47,0,44,1635111146.0,32.000000
-47,0,44,1635111146.0,32.000000
-47,0,44,1635111146.0,32.000000
-47,0,44,1635111146.0,32.000000
-46,0,45,1635111146.0,32.000000
-47,0,45,1635111146.0,32.000000
-48,0,44,1635111146.0,32.000000
-48,0,45,1635111146.0,32.000000
-47,0,41,1635111146.0,32.000000
-47,0,42,1635111146.0,32.000000
-47,0,43,1635111146.0,32.000000
-47,-1,43,1635111146.0,32.000000
-47,-1,43,1635111146.0,32.000000
-48,-1,42,1635111146.0,32.000000
-50,-1,42,1635111146.0,32.000000
-49,-1,42,1635111146.0,32.000000
-47,0,43,1635111146.0,32.000000
-50,-1,41,1635111146.0,32.000000
-48,0,42,1635111146.0,32.000000
-49,0,43,1635111146.0,32.000000
-49,-1,42,1635111146.0,32.000000
-48,-1,42,1635111146.0,32.000000
-48,0,43,1635111146.0,32.000000
-48,0,43,1635111146.0,32.000000
-48,-1,42,1635111146.0,32.000000
-48,0,43,1635111146.0,32.000000
-48,0,43,1635111146.0,32.000000
-48,0,43,1635111146.0,32.000000
-48,0,43,1635111146.0,32.000000
-48,0,43,1635111146.0,32.000000
-48,0,43,1635111146.0,32.000000
-48,0,43,1635111146.0,32.000000
-48,0,43,1635111146.0,32.000000
-48,0,43,1635111146.0,32.000000
-47,0,43,1635111146.0,32.000000
-47,0,44,1635111146.0,32.000000
-47,0,43,1635111146.0,32.000000
-47,0,44,1635111146.0,32.000000
-47,0,43,1635111146.0,32.000000
-48,0,43,1635111146.0,32.000000
-48,0,43,1635111146.0,32.000000
-47,0,44,1635111146.0,32.000000
-47,0,44,1635111146.0,32.000000
-47,0,43,1635111146.0,32.000000
-48,0,43,1635111146.0,32.000000
-47,0,43,1635111146.0,32.000000
-47,-1,44,1635111146.0,32.000000
-47,0,43,1635111146.0,32.000000
-47,0,43,1635111146.0,32.000000
-47,0,43,1635111146.0,32.000000
-47,0,43,1635111146.0,32.000000
-48,0,43,1635111146.0,32.000000
-48,0,43,1635111146.0,32.000000
-48,0,43,1635111146.0,32.000000
-47,0,43,1635111146.0,32.000000
-47,0,43,1635111146.0,32.000000
-47,0,44,1635111146.0,32.000000
-47,0,44,1635111146.0,32.000000
-47,0,43,1635111146.0,32.000000
-47,0,44,1635111146.0,32.000000
-47,0,43,1635111146.0,32.000000
-47,0,43,1635111146.0,32.000000
-48,0,43,1635111146.0,32.000000
-48,0,43,1635111146.0,32.000000
-48,0,43,1635111146.0,32.000000
-48,0,44,1635111146.0,32.000000
-47,0,43,1635111146.0,32.000000
-47,0,44,1635111146.0,32.000000
-49,0,44,1635111146.0,32.000000
-47,-1,43,1635111146.0,32.000000
-47,0,43,1635111146.0,32.000000
-47,-1,43,1635111146.0,32.000000
-47,0,43,1635111146.0,32.000000
-47,-1,43,1635111146.0,32.000000
-47,-1,43,1635111146.0,32.000000
-47,-1,43,1635111146.0,32.000000
-48,-1,43,1635111146.0,32.000000
-48,0,43,1635111146.0,32.000000
-49,0,44,1635111146.0,32.000000
-49,0,44,1635111146.0,32.000000
-47,-1,43,1635111146.0,32.000000
-48,0,43,1635111146.0,32.000000
-48,-1,43,1635111146.0,32.000000
-48,0,43,1635111146.0,32.000000
-48,0,43,1635111146.0,32.000000
-47,0,43,1635111146.0,32.000000
-48,0,43,1635111146.0,32.000000
-47,-1,43,1635111146.0,32.000000
-48,0,43,1635111146.0,32.000000
-48,0,43,1635111146.0,32.000000
-48,-1,43,1635111146.0,32.000000
-48,-1,43,1635111146.0,32.000000
-48,0,43,1635111146.0,32.000000
-47,0,43,1635111146.0,32.000000
-48,0,43,1635111146.0,32.000000
-47,0,43,1635111146.0,32.000000
-48,-1,43,1635111146.0,32.000000
-47,0,43,1635111146.0,32.000000
-47,0,43,1635111146.0,32.000000
-47,0,43,1635111146.0,32.000000
-47,0,43,1635111146.0,32.000000
-48,0,43,1635111146.0,32.000000
-47,0,43,1635111146.0,32.000000
-47,0,44,1635111146.0,32.000000
-47,-1,43,1635111146.0,32.000000
-47,0,44,1635111146.0,32.000000
-48,0,43,1635111146.0,32.000000
-47,0,44,1635111146.0,32.000000
-48,0,43,1635111146.0,32.000000
-47,0,44,1635111146.0,32.000000
-47,0,43,1635111146.0,32.000000
-47,0,43,1635111146.0,32.000000
-47,0,44,1635111146.0,32.000000
-47,0,43,1635111146.0,32.000000
-47,0,43,1635111146.0,32.000000
-47,0,43,1635111146.0,32.000000
-47,0,43,1635111146.0,32.000000
-47,0,44,1635111146.0,32.000000
-47,0,44,1635111146.0,32.000000
-48,-1,43,1635111146.0,32.000000
-48,0,44,1635111146.0,32.000000
-48,0,43,1635111146.0,32.000000
-47,0,44,1635111146.0,32.000000
-47,0,44,1635111146.0,32.000000
-47,0,44,1635111146.0,32.000000
-47,0,44,1635111146.0,32.000000
-48,0,43,1635111146.0,32.000000
-47,0,43,1635111146.0,32.000000
-47,0,44,1635111146.0,32.000000
-47,0,44,1635111146.0,32.000000
-48,0,44,1635111146.0,32.000000
-48,0,44,1635111146.0,32.000000
-47,0,43,1635111146.0,32.000000
-48,0,44,1635111146.0,32.000000
-48,0,44,1635111146.0,32.000000
-48,0,45,1635111146.0,32.000000
-46,0,43,1635111146.0,32.000000
-46,0,44,1635111146.0,32.000000
-46,0,43,1635111146.0,32.000000
-47,-1,44,1635111146.0,32.000000
-47,0,43,1635111146.0,32.000000
-48,-1,43,1635111146.0,32.000000
-48,-1,42,1635111146.0,32.000000
-48,0,43,1635111146.0,32.000000
-48,0,44,1635111146.0,32.000000
-49,-1,43,1635111146.0,32.000000
-46,-1,42,1635111146.0,32.000000
-47,-1,43,1635111146.0,32.000000
-48,0,43,1635111146.0,32.000000
-48,0,43,1635111146.0,32.000000
-48,0,43,1635111146.0,32.000000
-48,0,43,1635111146.0,32.000000
-48,0,43,1635111146.0,32.000000
-48,0,43,1635111146.0,32.000000
-48,0,43,1635111146.0,32.000000
-48,-1,43,1635111146.0,32.000000
-48,0,43,1635111146.0,32.000000
-48,0,43,1635111146.0,32.000000
-48,0,43,1635111146.0,32.000000
-48,0,43,1635111146.0,32.000000
-48,0,43,1635111146.0,32.000000
-48,0,43,1635111146.0,32.000000
-48,0,43,1635111146.0,32.000000
-48,-1,43,1635111146.0,32.000000
-48,0,43,1635111146.0,32.000000
-48,0,43,1635111146.0,32.000000
-48,0,43,1635111146.0,32.000000
-48,0,43,1635111146.0,32.000000
-48,0,43,1635111146.0,32.000000
-47,0,43,1635111146.0,32.000000
-48,0,43,1635111146.0,32.000000
-48,0,43,1635111146.0,32.000000
-48,0,43,1635111146.0,32.000000
-48,0,43,1635111146.0,32.000000
-48,0,43,1635111146.0,32.000000
-48,0,43,1635111146.0,32.000000
-48,0,43,1635111146.0,32.000000
-48,0,43,1635111146.0,32.000000
-48,0,43,1635111146.0,32.000000
-48,-1,43,1635111146.0,32.000000
-48,0,43,1635111146.0,32.000000
-48,0,43,1635111146.0,32.000000
-48,0,43,1635111146.0,32.000000
-47,0,43,1635111146.0,32.000000
-48,0,43,1635111146.0,32.000000
-48,0,43,1635111146.0,32.000000
-48,0,43,1635111146.0,32.000000
-48,0,43,1635111146.0,32.000000
-48,0,43,1635111146.0,32.000000
-47,0,43,1635111146.0,32.000000
-48,0,43,1635111146.0,32.000000
-48,0,43,1635111146.0,32.000000
-48,0,43,1635111146.0,32.000000
-48,-1,43,1635111146.0,32.000000
-48,0,43,1635111146.0,32.000000
-48,0,43,1635111146.0,32.000000
-47,0,43,1635111146.0,32.000000
-48,0,43,1635111146.0,32.000000
-48,-1,43,1635111146.0,32.000000
-48,0,43,1635111146.0,32.000000
-48,0,43,1635111146.0,32.000000
-48,0,44,1635111146.0,32.000000
-48,0,43,1635111146.0,32.000000
-48,0,43,1635111146.0,32.000000
-48,0,43,1635111146.0,32.000000
-48,0,44,1635111146.0,32.000000
-47,0,43,1635111146.0,32.000000
-47,0,43,1635111146.0,32.000000
-48,0,43,1635111146.0,32.000000
-48,0,43,1635111146.0,32.000000
-47,-1,43,1635111146.0,32.000000
-47,0,44,1635111146.0,32.000000
-48,0,43,1635111146.0,32.000000
-48,0,43,1635111146.0,32.000000
-48,-1,43,1635111146.0,32.000000
-47,0,43,1635111146.0,32.000000
-48,0,43,1635111146.0,32.000000
-48,0,43,1635111146.0,32.000000
