ACC_X,ACC_Y,ACC_Z,start_time_unix,sampling_rate
-11,15,55,1635111146.0,32.000000
-14,16,60,1635111146.0,32.000000
-14,14,63,1635111146.0,32.000000
-14,14,62,1635111146.0,32.000000
-13,14,61,1635111146.0,32.000000
-13,13,60,1635111146.0,32.000000
-13,13,61,1635111146.0,32.000000
-12,15,64,1635111146.0,32.000000
-12,16,65,1635111146.0,32.000000
-14,17,60,1635111146.0,32.000000
-18,15,60,1635111146.0,32.000000
-12,13,61,1635111146.0,32.000000
-14,15,60,1635111146.0,32.000000
-14,14,61,1635111146.0,32.000000
-14,16,60,1635111146.0,32.000000
-15,16,57,1635111146.0,32.000000
-14,16,59,1635111146.0,32.000000
-15,15,60,1635111146.0,32.000000
-15,14,61,1635111146.0,32.000000
-13,13,61,1635111146.0,32.000000
-14,13,62,1635111146.0,32.000000
-15,13,62,1635111146.0,32.000000
-15,14,59,1635111146.0,32.000000
-14,14,61,1635111146.0,32.000000
-14,13,61,1635111146.0,32.000000
-14,13,62,1635111146.0,32.000000
-14,13,62,1635111146.0,32.000000
-15,13,61,1635111146.0,32.000000
-14,12,64,1635111146.0,32.000000
-12,14,64,1635111146.0,32.000000
-15,15,58,1635111146.0,32.000000
-19,14,58,1635111146.0,32.000000
-14,14,63,1635111146.0,32.000000
-13,14,62,1635111146.0,32.000000
-17,14,54,1635111146.0,32.000000
-15,12,60,1635111146.0,32.000000
-13,14,61,1635111146.0,32.000000
-14,14,61,1635111146.0,32.000000
-15,13,59,1635111146.0,32.000000
-16,14,62,1635111146.0,32.000000
-17,13,62,1635111146.0,32.000000
-16,13,61,1635111146.0,32.000000
-16,13,61,1635111146.0,32.000000
-16,13,61,1635111146.0,32.000000
-16,13,61,1635111146.0,32.000000
-16,12,62,1635111146.0,32.000000
-15,13,62,1635111146.0,32.000000
-15,12,61,1635111146.0,32.000000
-15,12,62,1635111146.0,32.000000
-15,13,64,1635111146.0,32.000000
-17,13,57,1635111146.0,32.000000
-19,15,59,1635111146.0,32.000000
-15,13,62,1635111146.0,32.000000
-16,13,60,1635111146.0,32.000000
-16,13,59,1635111146.0,32.000000
-14,13,61,1635111146.0,32.000000
-15,14,59,1635111146.0,32.000000
-15,14,60,1635111146.0,32.000000
-16,13,59,1635111146.0,32.000000
-16,13,60,1635111146.0,32.000000
-15,13,62,1635111146.0,32.000000
-16,12,61,1635111146.0,32.000000
-16,13,62,1635111146.0,32.000000
-15,12,61,1635111146.0,32.000000
-16,12,61,1635111146.0,32.000000
-16,12,61,1635111146.0,32.000000
-16,12,62,1635111146.0,32.000000
-16,12,61,1635111146.0,32.000000
-16,12,61,1635111146.0,32.000000
-16,12,61,1635111146.0,32.000000
-15,12,62,1635111146.0,32.000000
-15,12,62,1635111146.0,32.000000
-17,13,59,1635111146.0,32.000000
-18,15,59,1635111146.0,32.000000
-15,13,61,1635111146.0,32.000000
-16,12,60,1635111146.0,32.000000
-15,14,61,1635111146.0,32.000000
-14,14,57,1635111146.0,32.000000
-16,14,56,1635111146.0,32.000000
-15,13,65,1635111146.0,32.000000
-17,12,58,1635111146.0,32.000000
-17,12,59,1635111146.0,32.000000
-16,12,63,1635111146.0,32.000000
-16,11,62,1635111146.0,32.000000
-15,12,61,1635111146.0,32.000000
-15,12,62,1635111146.0,32.000000
-16,12,62,1635111146.0,32.000000
-18,13,60,1635111146.0,32.000000
-14,14,60,1635111146.0,32.000000
-15,12,60,1635111146.0,32.000000
-16,13,59,1635111146.0,32.000000
-14,13,61,1635111146.0,32.000000
-15,13,59,1635111146.0,32.000000
-16,14,59,1635111146.0,32.000000
-16,13,61,1635111146.0,32.000000
-16,12,62,1635111146.0,32.000000
-16,12,62,1635111146.0,32.000000
-15,12,60,1635111146.0,32.000000
-16,13,62,1635111146.0,32.000000
-16,12,62,1635111146.0,32.000000
-16,12,62,1635111146.0,32.000000
-16,12,61,1635111146.0,32.000000
-16,12,62,1635111146.0,32.000000
-16,14,60,1635111146.0,32.000000
-16,13,60,1635111146.0,32.000000
-16,13,61,1635111146.0,32.000000
-16,13,60,1635111146.0,32.000000
-15,12,60,1635111146.0,32.000000
-16,13,60,1635111146.0,32.000000
-16,13,60,1635111146.0,32.000000
-16,13,61,1635111146.0,32.000000
-16,13,61,1635111146.0,32.000000
-16,12,61,1635111146.0,32.000000
-16,12,61,1635111146.0,32.000000
-16,12,61,1635111146.0,32.000000
-16,13,60,1635111146.0,32.000000
-16,13,61,1635111146.0,32.000000
-16,13,61,1635111146.0,32.000000
-16,13,61,1635111146.0,32.000000
-16,13,61,1635111146.0,32.000000
-16,13,60,1635111146.0,32.000000
-16,13,60,1635111146.0,32.000000
-16,13,61,1635111146.0,32.000000
-16,12,61,1635111146.0,32.000000
-16,13,61,1635111146.0,32.000000
-16,13,61,1635111146.0,32.000000
-16,13,60,1635111146.0,32.000000
-16,13,60,1635111146.0,32.000000
-16,13,60,1635111146.0,32.000000
-16,13,61,1635111146.0,32.000000
-16,12,62,1635111146.0,32.000000
-17,12,61,1635111146.0,32.000000
-16,11,61,1635111146.0,32.000000
-16,11,62,1635111146.0,32.000000
-16,12,61,1635111146.0,32.000000
-17,14,60,1635111146.0,32.000000
-17,13,60,1635111146.0,32.000000
-16,13,59,1635111146.0,32.000000
-16,12,62,1635111146.0,32.000000
-17,13,60,1635111146.0,32.000000
-17,13,60,1635111146.0,32.000000
-17,13,61,1635111146.0,32.000000
-16,13,60,1635111146.0,32.000000
-16,13,61,1635111146.0,32.000000
-16,12,61,1635111146.0,32.000000
-16,13,61,1635111146.0,32.000000
-16,13,61,1635111146.0,32.000000
-16,12,60,1635111146.0,32.000000
-16,13,61,1635111146.0,32.000000
-16,13,61,1635111146.0,32.000000
-16,13,61,1635111146.0,32.000000
-16,13,61,1635111146.0,32.000000
-16,13,61,1635111146.0,32.000000
-17,12,61,1635111146.0,32.000000
-17,12,61,1635111146.0,32.000000
-16,13,61,1635111146.0,32.000000
-17,13,60,1635111146.0,32.000000
-17,13,61,1635111146.0,32.000000
-16,13,60,1635111146.0,32.000000
-16,13,60,1635111146.0,32.000000
-17,13,60,1635111146.0,32.000000
-16,13,61,1635111146.0,32.000000
-16,13,61,1635111146.0,32.000000
-16,13,60,1635111146.0,32.000000
-17,13,61,1635111146.0,32.000000
-16,13,60,1635111146.0,32.000000
-17,13,60,1635111146.0,32.000000
-16,13,60,1635111146.0,32.000000
-16,14,60,1635111146.0,32.000000
-17,14,60,1635111146.0,32.000000
-16,15,60,1635111146.0,32.000000
-17,15,60,1635111146.0,32.000000
-18,14,60,1635111146.0,32.000000
-19,13,61,1635111146.0,32.000000
-19,12,61,1635111146.0,32.000000
-18,11,61,1635111146.0,32.000000
-17,11,61,1635111146.0,32.000000
-16,12,61,1635111146.0,32.000000
-17,12,59,1635111146.0,32.000000
-18,13,60,1635111146.0,32.000000
-17,12,61,1635111146.0,32.000000
-17,12,61,1635111146.0,32.000000
-17,12,60,1635111146.0,32.000000
-17,11,61,1635111146.0,32.000000
-17,12,61,1635111146.0,32.000000
-18,13,61,1635111146.0,32.000000
-17,12,60,1635111146.0,32.000000
-17,12,61,1635111146.0,32.000000
-18,12,61,1635111146.0,32.000000
-18,12,61,1635111146.0,32.000000
-17,12,61,1635111146.0,32.000000
-18,13,60,1635111146.0,32.000000
-18,13,60,1635111146.0,32.000000
-18,13,60,1635111146.0,32.000000
-18,13,60,1635111146.0,32.000000
-18,14,60,1635111146.0,32.000000
-18,14,60,1635111146.0,32.000000
-18,14,61,1635111146.0,32.000000
-18,13,60,1635111146.0,32.000000
-18,13,60,1635111146.0,32.000000
-17,14,60,1635111146.0,32.000000
-17,14,60,1635111146.0,32.000000
-17,14,60,1635111146.0,32.000000
-18,14,60,1635111146.0,32.000000
-18,13,60,1635111146.0,32.000000
-18,13,60,1635111146.0,32.000000
-18,14,60,1635111146.0,32.000000
-18,14,60,1635111146.0,32.000000
-18,13,60,1635111146.0,32.000000
-18,13,60,1635111146.0,32.000000
-18,12,61,1635111146.0,32.000000
-18,12,60,1635111146.0,32.000000
-18,12,61,1635111146.0,32.000000
-18,13,60,1635111146.0,32.000000
-18,13,60,1635111146.0,32.000000
-18,13,60,1635111146.0,32.000000
-18,13,60,1635111146.0,32.000000
-18,13,60,1635111146.0,32.000000
-17,13,60,1635111146.0,32.000000
-18,12,60,1635111146.0,32.000000
-18,12,60,1635111146.0,32.000000
-18,13,60,1635111146.0,32.000000
-18,13,61,1635111146.0,32.000000
-18,13,61,1635111146.0,32.000000
-18,13,60,1635111146.0,32.000000
-18,13,60,1635111146.0,32.000000
-17,13,60,1635111146.0,32.000000
-18,13,60,1635111146.0,32.000000
-18,14,60,1635111146.0,32.000000
-18,14,60,1635111146.0,32.000000
-18,14,60,1635111146.0,32.000000
-18,13,60,1635111146.0,32.000000
-18,13,60,1635111146.0,32.000000
-18,13,61,1635111146.0,32.000000
-18,13,60,1635111146.0,32.000000
-18,13,61,1635111146.0,32.000000
-18,13,60,1635111146.0,32.000000
-18,13,60,1635111146.0,32.000000
-18,13,61,1635111146.0,32.000000
-18,13,60,1635111146.0,32.000000
-18,13,60,1635111146.0,32.000000
-18,13,60,1635111146.0,32.000000
-18,13,60,1635111146.0,32.000000
-18,13,60,1635111146.0,32.000000
-18,13,60,1635111146.0,32.000000
-18,13,60,1635111146.0,32.000000
-18,13,60,1635111146.0,32.000000
-18,13,60,1635111146.0,32.000000
-18,13,60,1635111146.0,32.000000
-18,13,60,1635111146.0,32.000000
-18,13,60,1635111146.0,32.000000
-18,13,60,1635111146.0,32.000000
-18,13,60,1635111146.0,32.000000
-18,13,60,1635111146.0,32.000000
-18,13,60,1635111146.0,32.000000
-18,13,60,1635111146.0,32.000000
-18,13,60,1635111146.0,32.000000
-18,13,60,1635111146.0,32.000000
-18,13,60,1635111146.0,32.000000
-18,13,60,1635111146.0,32.000000
-18,13,60,1635111146.0,32.000000
-18,13,60,1635111146.0,32.000000
-18,13,60,1635111146.0,32.000000
-18,13,60,1635111146.0,32.000000
-18,13,60,1635111146.0,32.000000
-18,13,60,1635111146.0,32.000000
-18,13,60,1635111146.0,32.000000
-18,13,60,1635111146.0,32.000000
-18,13,60,1635111146.0,32.000000
-18,13,60,1635111146.0,32.000000
-18,13,60,1635111146.0,32.000000
-18,13,60,1635111146.0,32.000000
-18,13,60,1635111146.0,32.000000
-18,13,60,1635111146.0,32.000000
-18,13,60,1635111146.0,32.000000
-18,13,60,1635111146.0,32.000000
-18,13,60,1635111146.0,32.000000
-18,13,60,1635111146.0,32.000000
-18,13,60,1635111146.0,32.000000
-18,13,60,1635111146.0,32.000000
-18,13,60,1635111146.0,32.000000
-18,13,60,1635111146.0,32.000000
-18,13,60,1635111146.0,32.000000
-18,13,60,1635111146.0,32.000000
-18,13,60,1635111146.0,32.000000
-18,13,60,1635111146.0,32.000000
-18,13,60,1635111146.0,32.000000
-18,13,60,1635111146.0,32.000000
-18,13,61,1635111146.0,32.000000
-18,13,60,1635111146.0,32.000000
-18,13,60,1635111146.0,32.000000
-18,13,60,1635111146.0,32.000000
-18,13,60,1635111146.0,32.000000
-18,13,60,1635111146.0,32.000000
-18,13,60,1635111146.0,32.000000
-18,13,60,1635111146.0,32.000000
-18,13,60,1635111146.0,32.000000
-18,13,60,1635111146.0,32.000000
-18,13,60,1635111146.0,32.000000
-18,13,60,1635111146.0,32.000000
-18,13,60,1635111146.0,32.000000
-18,13,60,1635111146.0,32.000000
-18,13,61,1635111146.0,32.000000
-18,13,60,1635111146.0,32.000000
-18,13,61,1635111146.0,32.000000
-18,13,60,1635111146.0,32.000000
-18,13,60,1635111146.0,32.000000
-18,13,60,1635111146.0,32.000000
-18,13,60,1635111146.0,32.000000
-18,13,60,1635111146.0,32.000000
-18,13,60,1635111146.0,32.000000
-18,13,60,1635111146.0,32.000000
-18,13,60,1635111146.0,32.000000
-18,13,60,1635111146.0,32.000000
-18,13,60,1635111146.0,32.000000
-18,13,60,1635111146.0,32.000000
-18,13,60,1635111146.0,32.000000
-18,13,60,1635111146.0,32.000000
-18,13,60,1635111146.0,32.000000
-18,13,60,1635111146.0,32.000000
-18,13,60,1635111146.0,32.000000
-18,13,60,1635111146.0,32.000000
-18,13,60,1635111146.0,32.000000
-18,13,60,1635111146.0,32.000000
-18,13,60,1635111146.0,32.000000
-18,13,60,1635111146.0,32.000000
-18,13,60,1635111146.0,32.000000
-18,13,61,1635111146.0,32.000000
-18,13,60,1635111146.0,32.000000
-18,13,60,1635111146.0,32.000000
-18,13,60,1635111146.0,32.000000
-18,13,60,1635111146.0,32.000000
-18,13,60,1635111146.0,32.000000
-18,13,60,1635111146.0,32.000000
-18,13,60,1635111146.0,32.000000
-18,13,60,1635111146.0,32.000000
-18,13,60,1635111146.0,32.000000
-18,13,60,1635111146.0,32.000000
-18,13,60,1635111146.0,32.000000
-18,13,60,1635111146.0,32.000000
-18,13,60,1635111146.0,32.000000
-18,13,60,1635111146.0,32.000000
-18,13,60,1635111146.0,32.000000
-18,13,61,1635111146.0,32.000000
-18,13,60,1635111146.0,32.000000
-18,13,60,1635111146.0,32.000000
-18,13,60,1635111146.0,32.000000
-18,13,60,1635111146.0,32.000000
-18,13,60,1635111146.0,32.000000
-18,13,60,1635111146.0,32.000000
-18,13,61,1635111146.0,32.000000
-17,13,61,1635111146.0,32.000000
-18,13,60,1635111146.0,32.000000
-18,13,60,1635111146.0,32.000000
-18,13,60,1635111146.0,32.000000
-18,13,60,1635111146.0,32.000000
-18,13,60,1635111146.0,32.000000
-18,13,60,1635111146.0,32.000000
-18,13,60,1635111146.0,32.000000
-18,13,60,1635111146.0,32.000000
-18,13,60,1635111146.0,32.000000
-18,13,60,1635111146.0,32.000000
-18,13,60,1635111146.0,32.000000
-18,13,60,1635111146.0,32.000000
-18,13,60,1635111146.0,32.000000
-18,13,60,1635111146.0,32.000000
-18,13,60,1635111146.0,32.000000
-18,13,60,1635111146.0,32.000000
-18,13,60,1635111146.0,32.000000
-18,13,60,1635111146.0,32.000000
-18,13,60,1635111146.0,32.000000
-18,13,60,1635111146.0,32.000000
-18,13,60,1635111146.0,32.000000
-18,13,60,1635111146.0,32.000000
-18,13,60,1635111146.0,32.000000
-18,13,60,1635111146.0,32.000000
-18,13,60,1635111146.0,32.000000
-18,13,60,1635111146.0,32.000000
-18,13,60,1635111146.0,32.000000
-18,13,60,1635111146.0,32.000000
-18,13,60,1635111146.0,32.000000
-18,13,60,1635111146.0,32.000000
-18,13,60,1635111146.0,32.000000
-18,13,60,1635111146.0,32.000000
-18,13,60,1635111146.0,32.000000
-18,13,60,1635111146.0,32.000000
-18,13,60,1635111146.0,32.000000
-18,13,60,1635111146.0,32.000000
-18,13,60,1635111146.0,32.000000
-18,13,60,1635111146.0,32.000000
-18,13,60,1635111146.0,32.000000
-18,13,60,1635111146.0,32.000000
-18,13,60,1635111146.0,32.000000
-18,13,60,1635111146.0,32.000000
-18,13,60,1635111146.0,32.000000
-18,13,60,1635111146.0,32.000000
-18,13,60,1635111146.0,32.000000
-18,13,60,1635111146.0,32.000000
-18,13,60,1635111146.0,32.000000
-18,13,60,1635111146.0,32.000000
-18,13,60,1635111146.0,32.000000
-18,13,60,1635111146.0,32.000000
-18,12,61,1635111146.0,32.000000
-17,12,60,1635111146.0,32.000000
-18,14,60,1635111146.0,32.000000
-18,14,60,1635111146.0,32.000000
-18,14,60,1635111146.0,32.000000
-18,13,60,1635111146.0,32.000000
-18,13,60,1635111146.0,32.000000
-18,13,60,1635111146.0,32.000000
-18,13,60,1635111146.0,32.000000
-18,13,60,1635111146.0,32.000000
-18,14,60,1635111146.0,32.000000
-18,14,60,1635111146.0,32.000000
-18,13,60,1635111146.0,32.000000
-18,13,60,1635111146.0,32.000000
-18,13,60,1635111146.0,32.000000
-18,13,60,1635111146.0,32.000000
-18,13,60,1635111146.0,32.000000
-18,13,60,1635111146.0,32.000000
-19,13,61,1635111146.0,32.000000
-19,13,62,1635111146.0,32.000000
-22,10,69,1635111146.0,32.000000
-25,8,76,1635111146.0,32.000000
-25,15,94,1635111146.0,32.000000
0,30,85,1635111146.0,32.000000
6,34,89,1635111146.0,32.000000
-26,61,77,1635111146.0,32.000000
-42,55,70,1635111146.0,32.000000
-45,51,52,1635111146.0,32.000000
-21,49,36,1635111146.0,32.000000
-12,49,36,1635111146.0,32.000000
2,47,37,1635111146.0,32.000000
-2,46,36,1635111146.0,32.000000
-10,38,41,1635111146.0,32.000000
-6,22,49,1635111146.0,32.000000
-3,18,52,1635111146.0,32.000000
-9,6,61,1635111146.0,32.000000
-20,2,61,1635111146.0,32.000000
-36,-2,59,1635111146.0,32.000000
-42,1,54,1635111146.0,32.000000
-39,3,52,1635111146.0,32.000000
-35,4,49,1635111146.0,32.000000
-36,2,42,1635111146.0,32.000000
-20,7,31,1635111146.0,32.000000
-12,19,22,1635111146.0,32.000000
-6,25,25,1635111146.0,32.000000
29,41,21,1635111146.0,32.000000
40,59,20,1635111146.0,32.000000
33,56,26,1635111146.0,32.000000
44,58,23,1635111146.0,32.000000
35,60,23,1635111146.0,32.000000
-7,58,36,1635111146.0,32.000000
-22,58,34,1635111146.0,32.000000
-14,64,35,1635111146.0,32.000000
3,67,29,1635111146.0,32.000000
6,68,18,1635111146.0,32.000000
17,66,6,1635111146.0,32.000000
34,60,-1,1635111146.0,32.000000
37,58,-5,1635111146.0,32.000000
47,54,-11,1635111146.0,32.000000
52,54,-13,1635111146.0,32.000000
53,50,-13,1635111146.0,32.000000
56,45,-2,1635111146.0,32.000000
54,47,0,1635111146.0,32.000000
48,47,6,1635111146.0,32.000000
44,49,7,1635111146.0,32.000000
40,51,6,1635111146.0,32.000000
42,52,-2,1635111146.0,32.000000
41,53,-10,1635111146.0,32.000000
28,45,2,1635111146.0,32.000000
33,39,28,1635111146.0,32.000000
51,38,29,1635111146.0,32.000000
60,34,32,1635111146.0,32.000000
44,42,19,1635111146.0,32.000000
32,49,-1,1635111146.0,32.000000
31,51,-3,1635111146.0,32.000000
40,50,10,1635111146.0,32.000000
46,46,20,1635111146.0,32.000000
45,45,20,1635111146.0,32.000000
41,45,18,1635111146.0,32.000000
38,47,15,1635111146.0,32.000000
36,49,12,1635111146.0,32.000000
35,51,12,1635111146.0,32.000000
35,52,12,1635111146.0,32.000000
37,50,17,1635111146.0,32.000000
38,50,18,1635111146.0,32.000000
38,51,16,1635111146.0,32.000000
37,50,14,1635111146.0,32.000000
35,51,11,1635111146.0,32.000000
34,51,9,1635111146.0,32.000000
34,50,9,1635111146.0,32.000000
33,48,10,1635111146.0,32.000000
33,46,12,1635111146.0,32.000000
34,45,12,1635111146.0,32.000000
32,41,10,1635111146.0,32.000000
29,38,10,1635111146.0,32.000000
22,35,14,1635111146.0,32.000000
8,33,24,1635111146.0,32.000000
1,34,29,1635111146.0,32.000000
-7,40,38,1635111146.0,32.000000
-4,44,42,1635111146.0,32.000000
0,44,44,1635111146.0,32.000000
-3,41,54,1635111146.0,32.000000
-18,41,56,1635111146.0,32.000000
-20,38,68,1635111146.0,32.000000
-30,35,66,1635111146.0,32.000000
-28,37,55,1635111146.0,32.000000
-22,31,65,1635111146.0,32.000000
-49,24,75,1635111146.0,32.000000
-5,21,106,1635111146.0,32.000000
-3,22,56,1635111146.0,32.000000
-6,19,48,1635111146.0,32.000000
-16,17,52,1635111146.0,32.000000
-23,16,58,1635111146.0,32.000000
-26,15,67,1635111146.0,32.000000
-20,18,61,1635111146.0,32.000000
-17,19,58,1635111146.0,32.000000
-19,19,57,1635111146.0,32.000000
-20,19,59,1635111146.0,32.000000
-19,19,58,1635111146.0,32.000000
-20,18,58,1635111146.0,32.000000
-20,17,59,1635111146.0,32.000000
-20,17,59,1635111146.0,32.000000
-20,17,59,1635111146.0,32.000000
-20,17,59,1635111146.0,32.000000
-20,18,59,1635111146.0,32.000000
-21,18,59,1635111146.0,32.000000
-21,18,58,1635111146.0,32.000000
-21,17,58,1635111146.0,32.000000
-21,17,59,1635111146.0,32.000000
-20,17,59,1635111146.0,32.000000
-21,16,59,1635111146.0,32.000000
-22,16,61,1635111146.0,32.000000
-25,16,63,1635111146.0,32.000000
-23,15,83,1635111146.0,32.000000
-10,22,83,1635111146.0,32.000000
-14,18,72,1635111146.0,32.000000
-26,35,73,1635111146.0,32.000000
-1,38,82,1635111146.0,32.000000
-11,40,63,1635111146.0,32.000000
-15,38,42,1635111146.0,32.000000
-16,37,33,1635111146.0,32.000000
-2,33,17,1635111146.0,32.000000
-4,30,20,1635111146.0,32.000000
-14,25,23,1635111146.0,32.000000
-22,20,36,1635111146.0,32.000000
-25,22,46,1635111146.0,32.000000
-20,31,52,1635111146.0,32.000000
-18,35,52,1635111146.0,32.000000
-16,43,54,1635111146.0,32.000000
-9,46,54,1635111146.0,32.000000
-8,48,57,1635111146.0,32.000000
-14,48,61,1635111146.0,32.000000
-24,47,69,1635111146.0,32.000000
-27,44,79,1635111146.0,32.000000
-36,46,70,1635111146.0,32.000000
-37,48,57,1635111146.0,32.000000
-40,52,35,1635111146.0,32.000000
-38,53,30,1635111146.0,32.000000
-15,53,20,1635111146.0,32.000000
0,46,11,1635111146.0,32.000000
3,44,8,1635111146.0,32.000000
17,42,2,1635111146.0,32.000000
22,43,-4,1635111146.0,32.000000
26,44,-4,1635111146.0,32.000000
35,50,-14,1635111146.0,32.000000
36,55,-24,1635111146.0,32.000000
25,49,-2,1635111146.0,32.000000
23,37,57,1635111146.0,32.000000
42,37,67,1635111146.0,32.000000
45,38,65,1635111146.0,32.000000
39,41,52,1635111146.0,32.000000
24,54,7,1635111146.0,32.000000
26,55,-5,1635111146.0,32.000000
26,48,11,1635111146.0,32.000000
31,43,33,1635111146.0,32.000000
33,41,42,1635111146.0,32.000000
34,47,43,1635111146.0,32.000000
18,56,26,1635111146.0,32.000000
15,59,21,1635111146.0,32.000000
18,63,17,1635111146.0,32.000000
20,62,19,1635111146.0,32.000000
23,57,25,1635111146.0,32.000000
27,53,28,1635111146.0,32.000000
30,51,27,1635111146.0,32.000000
32,51,24,1635111146.0,32.000000
32,51,23,1635111146.0,32.000000
31,52,20,1635111146.0,32.000000
28,53,17,1635111146.0,32.000000
28,53,16,1635111146.0,32.000000
28,53,10,1635111146.0,32.000000
28,53,8,1635111146.0,32.000000
29,53,5,1635111146.0,32.000000
30,52,0,1635111146.0,32.000000
29,49,-2,1635111146.0,32.000000
20,40,10,1635111146.0,32.000000
17,38,16,1635111146.0,32.000000
16,40,20,1635111146.0,32.000000
6,36,30,1635111146.0,32.000000
5,37,35,1635111146.0,32.000000
14,38,33,1635111146.0,32.000000
6,39,32,1635111146.0,32.000000
-5,40,44,1635111146.0,32.000000
-23,40,52,1635111146.0,32.000000
-19,40,59,1635111146.0,32.000000
-17,34,67,1635111146.0,32.000000
-22,30,64,1635111146.0,32.000000
-36,26,61,1635111146.0,32.000000
-63,7,55,1635111146.0,32.000000
-63,26,73,1635111146.0,32.000000
7,14,97,1635111146.0,32.000000
6,16,91,1635111146.0,32.000000
-8,13,72,1635111146.0,32.000000
-15,14,51,1635111146.0,32.000000
-16,15,51,1635111146.0,32.000000
-24,17,58,1635111146.0,32.000000
-21,18,63,1635111146.0,32.000000
-20,17,65,1635111146.0,32.000000
-17,14,61,1635111146.0,32.000000
-16,14,59,1635111146.0,32.000000
-18,15,60,1635111146.0,32.000000
-19,16,60,1635111146.0,32.000000
-19,17,59,1635111146.0,32.000000
-19,17,58,1635111146.0,32.000000
-20,17,59,1635111146.0,32.000000
-19,16,59,1635111146.0,32.000000
-19,16,59,1635111146.0,32.000000
-19,16,59,1635111146.0,32.000000
-20,16,59,1635111146.0,32.000000
-20,17,59,1635111146.0,32.000000
-19,17,59,1635111146.0,32.000000
-19,17,59,1635111146.0,32.000000
-19,19,59,1635111146.0,32.000000
-21,19,64,1635111146.0,32.000000
-19,18,71,1635111146.0,32.000000
-10,19,74,1635111146.0,32.000000
-6,24,61,1635111146.0,32.000000
-19,36,48,1635111146.0,32.000000
-1,21,44,1635111146.0,32.000000
0,13,38,1635111146.0,32.000000
-17,-1,45,1635111146.0,32.000000
-21,14,68,1635111146.0,32.000000
-15,14,79,1635111146.0,32.000000
-7,16,77,1635111146.0,32.000000
-4,19,66,1635111146.0,32.000000
-2,16,57,1635111146.0,32.000000
-3,18,61,1635111146.0,32.000000
-4,18,62,1635111146.0,32.000000
-4,18,63,1635111146.0,32.000000
-7,15,58,1635111146.0,32.000000
-4,16,62,1635111146.0,32.000000
-8,15,62,1635111146.0,32.000000
-8,15,64,1635111146.0,32.000000
-9,15,58,1635111146.0,32.000000
-10,11,55,1635111146.0,32.000000
-8,14,63,1635111146.0,32.000000
-7,12,62,1635111146.0,32.000000
-9,9,63,1635111146.0,32.000000
-11,11,64,1635111146.0,32.000000
-11,10,64,1635111146.0,32.000000
-9,13,65,1635111146.0,32.000000
-11,15,63,1635111146.0,32.000000
-11,14,61,1635111146.0,32.000000
-11,15,62,1635111146.0,32.000000
-8,16,62,1635111146.0,32.000000
-14,13,52,1635111146.0,32.000000
-13,15,57,1635111146.0,32.000000
-13,14,63,1635111146.0,32.000000
-10,14,60,1635111146.0,32.000000
-12,12,61,1635111146.0,32.000000
-13,13,64,1635111146.0,32.000000
-11,14,63,1635111146.0,32.000000
-11,15,62,1635111146.0,32.000000
-10,18,63,1635111146.0,32.000000
-12,15,61,1635111146.0,32.000000
-13,14,58,1635111146.0,32.000000
-11,15,60,1635111146.0,32.000000
-12,15,61,1635111146.0,32.000000
-12,15,61,1635111146.0,32.000000
-12,14,60,1635111146.0,32.000000
-12,15,61,1635111146.0,32.000000
-12,15,61,1635111146.0,32.000000
-12,15,61,1635111146.0,32.000000
-13,15,61,1635111146.0,32.000000
-12,14,61,1635111146.0,32.000000
-12,15,61,1635111146.0,32.000000
-12,14,61,1635111146.0,32.000000
-12,15,61,1635111146.0,32.000000
-12,15,61,1635111146.0,32.000000
-13,15,61,1635111146.0,32.000000
-13,15,60,1635111146.0,32.000000
-13,15,60,1635111146.0,32.000000
-13,15,61,1635111146.0,32.000000
-13,15,60,1635111146.0,32.000000
-13,15,61,1635111146.0,32.000000
-13,15,61,1635111146.0,32.000000
-13,15,61,1635111146.0,32.000000
-13,15,61,1635111146.0,32.000000
-12,15,61,1635111146.0,32.000000
-13,15,59,1635111146.0,32.000000
-13,15,59,1635111146.0,32.000000
-13,14,60,1635111146.0,32.000000
-11,13,62,1635111146.0,32.000000
-14,14,63,1635111146.0,32.000000
-13,14,60,1635111146.0,32.000000
-12,14,60,1635111146.0,32.000000
-13,15,62,1635111146.0,32.000000
-12,14,62,1635111146.0,32.000000
-12,14,62,1635111146.0,32.000000
-11,17,62,1635111146.0,32.000000
-13,15,60,1635111146.0,32.000000
-13,14,59,1635111146.0,32.000000
-14,15,62,1635111146.0,32.000000
-13,15,59,1635111146.0,32.000000
-13,15,62,1635111146.0,32.000000
-13,15,61,1635111146.0,32.000000
-13,15,61,1635111146.0,32.000000
-13,15,61,1635111146.0,32.000000
-13,15,61,1635111146.0,32.000000
-13,15,61,1635111146.0,32.000000
-13,15,61,1635111146.0,32.000000
-13,15,61,1635111146.0,32.000000
-13,15,61,1635111146.0,32.000000
-13,15,61,1635111146.0,32.000000
-13,15,61,1635111146.0,32.000000
-13,15,60,1635111146.0,32.000000
-14,16,58,1635111146.0,32.000000
-14,16,59,1635111146.0,32.000000
-10,13,63,1635111146.0,32.000000
-16,14,60,1635111146.0,32.000000
-15,14,62,1635111146.0,32.000000
-13,14,62,1635111146.0,32.000000
-13,14,62,1635111146.0,32.000000
-14,14,62,1635111146.0,32.000000
-15,15,61,1635111146.0,32.000000
-11,15,62,1635111146.0,32.000000
-13,16,60,1635111146.0,32.000000
-14,15,60,1635111146.0,32.000000
-13,15,61,1635111146.0,32.000000
-14,15,61,1635111146.0,32.000000
-14,15,61,1635111146.0,32.000000
-13,15,61,1635111146.0,32.000000
-13,15,61,1635111146.0,32.000000
-14,15,61,1635111146.0,32.000000
-14,15,61,1635111146.0,32.000000
-14,15,61,1635111146.0,32.000000
-14,15,61,1635111146.0,32.000000
-14,15,61,1635111146.0,32.000000
-14,15,61,1635111146.0,32.000000
-14,15,61,1635111146.0,32.000000
-14,15,61,1635111146.0,32.000000
-14,15,60,1635111146.0,32.000000
-14,15,61,1635111146.0,32.000000
-14,15,61,1635111146.0,32.000000
-14,15,61,1635111146.0,32.000000
-14,15,61,1635111146.0,32.000000
-14,15,61,1635111146.0,32.000000
-14,15,61,1635111146.0,32.000000
-14,15,61,1635111146.0,32.000000
-14,15,61,1635111146.0,32.000000
-14,15,61,1635111146.0,32.000000
-14,15,61,1635111146.0,32.000000
-14,15,61,1635111146.0,32.000000
-14,15,60,1635111146.0,32.000000
-14,15,61,1635111146.0,32.000000
-14,15,61,1635111146.0,32.000000
-14,15,61,1635111146.0,32.000000
-14,15,61,1635111146.0,32.000000
-14,15,61,1635111146.0,32.000000
-14,15,60,1635111146.0,32.000000
-14,15,61,1635111146.0,32.000000
-14,15,61,1635111146.0,32.000000
-14,15,60,1635111146.0,32.000000
-14,15,61,1635111146.0,32.000000
-14,15,60,1635111146.0,32.000000
-14,15,60,1635111146.0,32.000000
-14,15,61,1635111146.0,32.000000
-14,15,60,1635111146.0,32.000000
-14,15,61,1635111146.0,32.000000
-14,15,61,1635111146.0,32.000000
-14,15,61,1635111146.0,32.000000
-14,15,61,1635111146.0,32.000000
-14,15,60,1635111146.0,32.000000
-14,15,61,1635111146.0,32.000000
-14,15,61,1635111146.0,32.000000
-14,15,60,1635111146.0,32.000000
-14,15,61,1635111146.0,32.000000
-14,15,61,1635111146.0,32.000000
-14,15,60,1635111146.0,32.000000
-14,15,61,1635111146.0,32.000000
-14,15,61,1635111146.0,32.000000
-14,15,61,1635111146.0,32.000000
-15,15,60,1635111146.0,32.000000
-14,15,60,1635111146.0,32.000000
-15,16,58,1635111146.0,32.000000
-14,15,63,1635111146.0,32.000000
-15,13,64,1635111146.0,32.000000
-14,14,60,1635111146.0,32.000000
-15,14,60,1635111146.0,32.000000
-14,15,61,1635111146.0,32.000000
-14,14,62,1635111146.0,32.000000
-14,14,60,1635111146.0,32.000000
-14,14,59,1635111146.0,32.000000
-14,14,62,1635111146.0,32.000000
-14,14,61,1635111146.0,32.000000
-15,14,61,1635111146.0,32.000000
-15,14,62,1635111146.0,32.000000
-14,15,60,1635111146.0,32.000000
-14,15,61,1635111146.0,32.000000
-14,14,60,1635111146.0,32.000000
-14,14,61,1635111146.0,32.000000
-14,14,61,1635111146.0,32.000000
-14,14,62,1635111146.0,32.000000
-13,14,63,1635111146.0,32.000000
-15,15,60,1635111146.0,32.000000
-13,16,61,1635111146.0,32.000000
-17,14,60,1635111146.0,32.000000
-15,16,59,1635111146.0,32.000000
-14,16,58,1635111146.0,32.000000
-13,14,60,1635111146.0,32.000000
-15,16,57,1635111146.0,32.000000
-15,16,56,1635111146.0,32.000000
-12,13,67,1635111146.0,32.000000
-10,11,68,1635111146.0,32.000000
-15,14,57,1635111146.0,32.000000
-14,15,61,1635111146.0,32.000000
-14,15,62,1635111146.0,32.000000
-14,15,60,1635111146.0,32.000000
-13,14,62,1635111146.0,32.000000
-13,14,62,1635111146.0,32.000000
-14,15,61,1635111146.0,32.000000
-17,14,58,1635111146.0,32.000000
-12,17,62,1635111146.0,32.000000
-16,15,58,1635111146.0,32.000000
-13,18,62,1635111146.0,32.000000
-14,15,59,1635111146.0,32.000000
-14,15,61,1635111146.0,32.000000
-14,15,61,1635111146.0,32.000000
-14,15,60,1635111146.0,32.000000
-14,15,61,1635111146.0,32.000000
-14,15,60,1635111146.0,32.000000
-14,15,60,1635111146.0,32.000000
-14,15,59,1635111146.0,32.000000
-14,15,61,1635111146.0,32.000000
-14,14,60,1635111146.0,32.000000
-14,14,63,1635111146.0,32.000000
-15,14,61,1635111146.0,32.000000
-14,14,60,1635111146.0,32.000000
-13,15,60,1635111146.0,32.000000
-13,15,62,1635111146.0,32.000000
-14,15,62,1635111146.0,32.000000
-15,15,61,1635111146.0,32.000000
-12,17,60,1635111146.0,32.000000
-15,14,59,1635111146.0,32.000000
-15,15,59,1635111146.0,32.000000
-14,15,61,1635111146.0,32.000000
-14,15,61,1635111146.0,32.000000
-14,15,61,1635111146.0,32.000000
-14,15,60,1635111146.0,32.000000
-14,15,61,1635111146.0,32.000000
-15,16,59,1635111146.0,32.000000
-15,15,59,1635111146.0,32.000000
-14,14,61,1635111146.0,32.000000
-14,13,62,1635111146.0,32.000000
-15,14,61,1635111146.0,32.000000
-14,15,60,1635111146.0,32.000000
-13,15,62,1635111146.0,32.000000
-13,14,63,1635111146.0,32.000000
-14,15,62,1635111146.0,32.000000
-14,15,62,1635111146.0,32.000000
-12,18,60,1635111146.0,32.000000
-14,13,59,1635111146.0,32.000000
-14,15,59,1635111146.0,32.000000
-14,15,61,1635111146.0,32.000000
-14,15,61,1635111146.0,32.000000
-15,15,60,1635111146.0,32.000000
-15,15,61,1635111146.0,32.000000
-14,15,61,1635111146.0,32.000000
-14,15,61,1635111146.0,32.000000
-15,15,60,1635111146.0,32.000000
-15,15,61,1635111146.0,32.000000
-14,15,61,1635111146.0,32.000000
-14,15,60,1635111146.0,32.000000
-14,15,61,1635111146.0,32.000000
-14,15,60,1635111146.0,32.000000
-14,15,61,1635111146.0,32.000000
-14,15,60,1635111146.0,32.000000
-15,15,61,1635111146.0,32.000000
-14,15,61,1635111146.0,32.000000
-14,15,60,1635111146.0,32.000000
-14,15,61,1635111146.0,32.000000
-15,15,60,1635111146.0,32.000000
-14,15,60,1635111146.0,32.000000
-15,15,61,1635111146.0,32.000000
-15,15,60,1635111146.0,32.000000
-14,15,60,1635111146.0,32.000000
-14,15,60,1635111146.0,32.000000
-14,15,60,1635111146.0,32.000000
-14,15,61,1635111146.0,32.000000
-14,15,61,1635111146.0,32.000000
-15,15,61,1635111146.0,32.000000
-15,15,61,1635111146.0,32.000000
-14,15,60,1635111146.0,32.000000
-14,15,61,1635111146.0,32.000000
-14,15,60,1635111146.0,32.000000
-15,15,60,1635111146.0,32.000000
-14,15,61,1635111146.0,32.000000
-14,15,61,1635111146.0,32.000000
-14,15,61,1635111146.0,32.000000
-14,15,60,1635111146.0,32.000000
-14,15,61,1635111146.0,32.000000
-14,15,61,1635111146.0,32.000000
-14,15,61,1635111146.0,32.000000
-15,15,61,1635111146.0,32.000000
-15,15,60,1635111146.0,32.000000
-14,15,61,1635111146.0,32.000000
-15,15,60,1635111146.0,32.000000
-15,15,60,1635111146.0,32.000000
-15,15,61,1635111146.0,32.000000
-15,15,61,1635111146.0,32.000000
-15,15,61,1635111146.0,32.000000
-15,15,61,1635111146.0,32.000000
-15,15,60,1635111146.0,32.000000
-15,15,60,1635111146.0,32.000000
-15,15,60,1635111146.0,32.000000
-14,15,61,1635111146.0,32.000000
-15,15,61,1635111146.0,32.000000
-15,15,60,1635111146.0,32.000000
-15,15,60,1635111146.0,32.000000
-15,15,60,1635111146.0,32.000000
-14,15,60,1635111146.0,32.000000
-15,16,60,1635111146.0,32.000000
-14,15,60,1635111146.0,32.000000
-14,15,61,1635111146.0,32.000000
-14,15,60,1635111146.0,32.000000
-14,15,60,1635111146.0,32.000000
-14,16,61,1635111146.0,32.000000
-14,15,60,1635111146.0,32.000000
-14,15,61,1635111146.0,32.000000
-14,15,61,1635111146.0,32.000000
-14,15,60,1635111146.0,32.000000
-14,15,61,1635111146.0,32.000000
-14,15,61,1635111146.0,32.000000
-14,15,60,1635111146.0,32.000000
-14,15,61,1635111146.0,32.000000
-14,15,60,1635111146.0,32.000000
-14,15,61,1635111146.0,32.000000
-14,15,60,1635111146.0,32.000000
-15,15,61,1635111146.0,32.000000
-15,15,61,1635111146.0,32.000000
-14,15,61,1635111146.0,32.000000
-15,15,60,1635111146.0,32.000000
-15,15,60,1635111146.0,32.000000
-15,15,61,1635111146.0,32.000000
-15,15,60,1635111146.0,32.000000
-15,15,60,1635111146.0,32.000000
-15,15,60,1635111146.0,32.000000
-15,15,61,1635111146.0,32.000000
-15,15,60,1635111146.0,32.000000
-15,15,60,1635111146.0,32.000000
-15,15,60,1635111146.0,32.000000
-15,15,60,1635111146.0,32.000000
-15,15,61,1635111146.0,32.000000
-15,15,60,1635111146.0,32.000000
-15,15,60,1635111146.0,32.000000
-15,15,60,1635111146.0,32.000000
-14,15,61,1635111146.0,32.000000
-14,15,61,1635111146.0,32.000000
-15,15,61,1635111146.0,32.000000
-15,15,61,1635111146.0,32.000000
-15,15,60,1635111146.0,32.000000
-15,15,61,1635111146.0,32.000000
-14,16,60,1635111146.0,32.000000
-14,14,61,1635111146.0,32.000000
-15,15,61,1635111146.0,32.000000
-15,15,61,1635111146.0,32.000000
-16,15,60,1635111146.0,32.000000
-15,16,61,1635111146.0,32.000000
-15,15,60,1635111146.0,32.000000
-15,15,61,1635111146.0,32.000000
-14,15,61,1635111146.0,32.000000
-16,15,60,1635111146.0,32.000000
-15,15,61,1635111146.0,32.000000
-15,15,60,1635111146.0,32.000000
-14,15,61,1635111146.0,32.000000
-14,15,60,1635111146.0,32.000000
-15,15,61,1635111146.0,32.000000
-15,15,61,1635111146.0,32.000000
-15,15,60,1635111146.0,32.000000
-16,15,60,1635111146.0,32.000000
-15,15,61,1635111146.0,32.000000
-14,15,60,1635111146.0,32.000000
-14,15,60,1635111146.0,32.000000
-15,15,61,1635111146.0,32.000000
-15,15,60,1635111146.0,32.000000
-15,15,60,1635111146.0,32.000000
-15,15,60,1635111146.0,32.000000
-14,15,61,1635111146.0,32.000000
-14,15,61,1635111146.0,32.000000
-15,15,60,1635111146.0,32.000000
-16,15,60,1635111146.0,32.000000
-15,15,60,1635111146.0,32.000000
-14,15,61,1635111146.0,32.000000
-14,15,60,1635111146.0,32.000000
-15,15,61,1635111146.0,32.000000
-15,15,60,1635111146.0,32.000000
-15,15,60,1635111146.0,32.000000
-15,15,60,1635111146.0,32.000000
-14,15,61,1635111146.0,32.000000
-14,15,61,1635111146.0,32.000000
-15,15,60,1635111146.0,32.000000
-15,15,60,1635111146.0,32.000000
-15,15,60,1635111146.0,32.000000
-15,15,60,1635111146.0,32.000000
-14,15,61,1635111146.0,32.000000
-14,15,61,1635111146.0,32.000000
-15,15,60,1635111146.0,32.000000
-15,15,60,1635111146.0,32.000000
-15,15,61,1635111146.0,32.000000
-15,15,61,1635111146.0,32.000000
-15,15,61,1635111146.0,32.000000
-15,15,61,1635111146.0,32.000000
-15,15,60,1635111146.0,32.000000
-15,16,61,1635111146.0,32.000000
-15,15,60,1635111146.0,32.000000
-15,15,60,1635111146.0,32.000000
-15,15,61,1635111146.0,32.000000
-15,15,60,1635111146.0,32.000000
-15,15,60,1635111146.0,32.000000
-15,15,60,1635111146.0,32.000000
-15,15,60,1635111146.0,32.000000
-14,15,60,1635111146.0,32.000000
-15,15,60,1635111146.0,32.000000
-15,15,60,1635111146.0,32.000000
-15,15,60,1635111146.0,32.000000
-15,15,60,1635111146.0,32.000000
-15,15,60,1635111146.0,32.000000
-15,15,60,1635111146.0,32.000000
-15,15,61,1635111146.0,32.000000
-15,15,60,1635111146.0,32.000000
-15,15,60,1635111146.0,32.000000
-15,15,61,1635111146.0,32.000000
-15,15,61,1635111146.0,32.000000
-14,15,60,1635111146.0,32.000000
-15,15,60,1635111146.0,32.000000
-15,15,60,1635111146.0,32.000000
-14,15,60,1635111146.0,32.000000
-14,15,60,1635111146.0,32.000000
-14,16,61,1635111146.0,32.000000
-14,15,60,1635111146.0,32.000000
-14,15,61,1635111146.0,32.000000
-14,15,61,1635111146.0,32.000000
-14,15,60,1635111146.0,32.000000
-14,15,61,1635111146.0,32.000000
-14,15,61,1635111146.0,32.000000
-14,15,61,1635111146.0,32.000000
-14,15,60,1635111146.0,32.000000
-14,15,60,1635111146.0,32.000000
-14,15,60,1635111146.0,32.000000
-14,15,60,1635111146.0,32.000000
-14,15,60,1635111146.0,32.000000
-15,15,61,1635111146.0,32.000000
-15,15,60,1635111146.0,32.000000
-15,15,61,1635111146.0,32.000000
-15,15,61,1635111146.0,32.000000
-15,15,61,1635111146.0,32.000000
-15,15,60,1635111146.0,32.000000
-15,15,60,1635111146.0,32.000000
-15,15,60,1635111146.0,32.000000
-15,15,60,1635111146.0,32.000000
-15,15,60,1635111146.0,32.000000
-15,15,61,1635111146.0,32.000000
-15,15,60,1635111146.0,32.000000
-15,15,60,1635111146.0,32.000000
-15,15,60,1635111146.0,32.000000
-15,15,60,1635111146.0,32.000000
-15,15,61,1635111146.0,32.000000
-15,15,61,1635111146.0,32.000000
-15,15,61,1635111146.0,32.000000
-15,15,60,1635111146.0,32.000000
-15,15,61,1635111146.0,32.000000
-15,15,61,1635111146.0,32.000000
-15,15,61,1635111146.0,32.000000
-15,15,60,1635111146.0,32.000000
-15,15,61,1635111146.0,32.000000
-15,15,61,1635111146.0,32.000000
-15,15,60,1635111146.0,32.000000
-15,15,60,1635111146.0,32.000000
-15,15,60,1635111146.0,32.000000
-15,15,61,1635111146.0,32.000000
-15,15,60,1635111146.0,32.000000
-15,15,60,1635111146.0,32.000000
-16,14,61,1635111146.0,32.000000
-17,14,63,1635111146.0,32.000000
-18,12,70,1635111146.0,32.000000
-22,10,73,1635111146.0,32.000000
-18,14,71,1635111146.0,32.000000
-20,18,59,1635111146.0,32.000000
-29,14,49,1635111146.0,32.000000
-41,18,37,1635111146.0,32.000000
-50,26,30,1635111146.0,32.000000
-41,30,45,1635111146.0,32.000000
-12,26,56,1635111146.0,32.000000
3,23,58,1635111146.0,32.000000
1,22,56,1635111146.0,32.000000
-4,20,42,1635111146.0,32.000000
-45,14,41,1635111146.0,32.000000
-29,21,56,1635111146.0,32.000000
-16,21,56,1635111146.0,32.000000
-20,6,51,1635111146.0,32.000000
-55,-4,34,1635111146.0,32.000000
-83,5,35,1635111146.0,32.000000
-49,6,47,1635111146.0,32.000000
-74,6,41,1635111146.0,32.000000
-62,11,33,1635111146.0,32.000000
-58,7,22,1635111146.0,32.000000
-51,4,29,1635111146.0,32.000000
-51,-10,39,1635111146.0,32.000000
-58,-8,33,1635111146.0,32.000000
-52,-6,31,1635111146.0,32.000000
-64,-1,24,1635111146.0,32.000000
-69,1,26,1635111146.0,32.000000
-69,4,32,1635111146.0,32.000000
-69,3,28,1635111146.0,32.000000
-59,1,25,1635111146.0,32.000000
-54,0,28,1635111146.0,32.000000
-58,0,27,1635111146.0,32.000000
-60,0,22,1635111146.0,32.000000
-62,2,21,1635111146.0,32.000000
-66,-1,23,1635111146.0,32.000000
-68,2,27,1635111146.0,32.000000
-71,-3,35,1635111146.0,32.000000
-65,-4,35,1635111146.0,32.000000
-60,-4,29,1635111146.0,32.000000
-56,-9,26,1635111146.0,32.000000
-56,-10,17,1635111146.0,32.000000
-60,-12,16,1635111146.0,32.000000
-60,-6,32,1635111146.0,32.000000
-56,0,38,1635111146.0,32.000000
-44,-2,43,1635111146.0,32.000000
-56,3,47,1635111146.0,32.000000
-60,3,50,1635111146.0,32.000000
-65,4,41,1635111146.0,32.000000
-52,8,40,1635111146.0,32.000000
-43,4,37,1635111146.0,32.000000
-49,-4,45,1635111146.0,32.000000
-52,-2,46,1635111146.0,32.000000
-46,2,45,1635111146.0,32.000000
-42,0,46,1635111146.0,32.000000
-42,4,50,1635111146.0,32.000000
-36,5,52,1635111146.0,32.000000
-37,7,54,1635111146.0,32.000000
-40,4,55,1635111146.0,32.000000
-40,6,53,1635111146.0,32.000000
-36,5,54,1635111146.0,32.000000
-37,4,54,1635111146.0,32.000000
-38,6,53,1635111146.0,32.000000
-36,3,49,1635111146.0,32.000000
-37,4,50,1635111146.0,32.000000
-40,5,56,1635111146.0,32.000000
-33,3,54,1635111146.0,32.000000
-34,6,54,1635111146.0,32.000000
-31,6,61,1635111146.0,32.000000
-32,6,66,1635111146.0,32.000000
-26,6,63,1635111146.0,32.000000
-40,4,56,1635111146.0,32.000000
-47,5,56,1635111146.0,32.000000
-44,5,51,1635111146.0,32.000000
-49,5,52,1635111146.0,32.000000
-48,4,56,1635111146.0,32.000000
-37,9,59,1635111146.0,32.000000
-36,11,57,1635111146.0,32.000000
-30,15,52,1635111146.0,32.000000
-29,15,49,1635111146.0,32.000000
-27,18,48,1635111146.0,32.000000
-30,20,40,1635111146.0,32.000000
-34,21,35,1635111146.0,32.000000
-33,24,33,1635111146.0,32.000000
-38,24,37,1635111146.0,32.000000
-43,20,41,1635111146.0,32.000000
-32,23,57,1635111146.0,32.000000
-25,23,57,1635111146.0,32.000000
-26,24,59,1635111146.0,32.000000
-34,28,58,1635111146.0,32.000000
-35,28,50,1635111146.0,32.000000
-27,26,47,1635111146.0,32.000000
-24,24,49,1635111146.0,32.000000
-29,23,49,1635111146.0,32.000000
-27,23,49,1635111146.0,32.000000
-30,23,51,1635111146.0,32.000000
-21,25,62,1635111146.0,32.000000
-20,25,60,1635111146.0,32.000000
-17,23,59,1635111146.0,32.000000
-22,25,52,1635111146.0,32.000000
-25,26,49,1635111146.0,32.000000
-27,24,48,1635111146.0,32.000000
-24,25,45,1635111146.0,32.000000
-27,25,43,1635111146.0,32.000000
-18,15,68,1635111146.0,32.000000
-21,17,76,1635111146.0,32.000000
-33,27,72,1635111146.0,32.000000
-36,29,58,1635111146.0,32.000000
-29,24,56,1635111146.0,32.000000
-24,15,61,1635111146.0,32.000000
-13,16,58,1635111146.0,32.000000
-21,15,59,1635111146.0,32.000000
-27,14,65,1635111146.0,32.000000
-21,20,58,1635111146.0,32.000000
-18,15,57,1635111146.0,32.000000
-20,13,56,1635111146.0,32.000000
-19,12,56,1635111146.0,32.000000
-21,11,61,1635111146.0,32.000000
-15,12,60,1635111146.0,32.000000
-6,11,63,1635111146.0,32.000000
-7,12,65,1635111146.0,32.000000
-13,11,63,1635111146.0,32.000000
-16,10,60,1635111146.0,32.000000
-4,12,57,1635111146.0,32.000000
-2,17,60,1635111146.0,32.000000
-5,19,60,1635111146.0,32.000000
-15,24,59,1635111146.0,32.000000
-25,27,59,1635111146.0,32.000000
-34,26,57,1635111146.0,32.000000
-24,21,54,1635111146.0,32.000000
-16,17,59,1635111146.0,32.000000
-10,14,62,1635111146.0,32.000000
-13,14,62,1635111146.0,32.000000
-15,15,61,1635111146.0,32.000000
-16,17,57,1635111146.0,32.000000
-19,17,56,1635111146.0,32.000000
-16,17,57,1635111146.0,32.000000
-17,16,59,1635111146.0,32.000000
-21,10,64,1635111146.0,32.000000
-30,10,63,1635111146.0,32.000000
-27,8,60,1635111146.0,32.000000
-23,11,57,1635111146.0,32.000000
-25,10,59,1635111146.0,32.000000
-24,17,56,1635111146.0,32.000000
-24,12,59,1635111146.0,32.000000
-26,10,62,1635111146.0,32.000000
-24,10,58,1635111146.0,32.000000
-23,10,57,1635111146.0,32.000000
-21,8,58,1635111146.0,32.000000
-22,10,59,1635111146.0,32.000000
-22,11,58,1635111146.0,32.000000
-23,10,58,1635111146.0,32.000000
-23,10,59,1635111146.0,32.000000
-23,11,59,1635111146.0,32.000000
-21,10,61,1635111146.0,32.000000
-22,9,62,1635111146.0,32.000000
-22,10,60,1635111146.0,32.000000
-21,10,60,1635111146.0,32.000000
-21,11,60,1635111146.0,32.000000
-19,10,60,1635111146.0,32.000000
-18,10,61,1635111146.0,32.000000
-18,10,62,1635111146.0,32.000000
-18,10,62,1635111146.0,32.000000
-20,9,61,1635111146.0,32.000000
-20,8,63,1635111146.0,32.000000
-20,10,63,1635111146.0,32.000000
-21,8,62,1635111146.0,32.000000
-21,10,60,1635111146.0,32.000000
-20,10,59,1635111146.0,32.000000
-23,8,60,1635111146.0,32.000000
-21,9,61,1635111146.0,32.000000
-19,13,58,1635111146.0,32.000000
-20,13,62,1635111146.0,32.000000
-19,13,61,1635111146.0,32.000000
-16,12,61,1635111146.0,32.000000
-11,12,63,1635111146.0,32.000000
-10,17,69,1635111146.0,32.000000
-15,19,57,1635111146.0,32.000000
-15,17,53,1635111146.0,32.000000
-13,17,58,1635111146.0,32.000000
-12,18,59,1635111146.0,32.000000
-14,15,57,1635111146.0,32.000000
-23,13,58,1635111146.0,32.000000
-26,11,60,1635111146.0,32.000000
-12,13,60,1635111146.0,32.000000
-9,14,60,1635111146.0,32.000000
-11,15,62,1635111146.0,32.000000
-11,16,65,1635111146.0,32.000000
-13,15,61,1635111146.0,32.000000
-11,17,60,1635111146.0,32.000000
-10,17,60,1635111146.0,32.000000
-11,15,61,1635111146.0,32.000000
-13,16,60,1635111146.0,32.000000
-11,15,58,1635111146.0,32.000000
-9,12,60,1635111146.0,32.000000
-8,10,63,1635111146.0,32.000000
-12,15,62,1635111146.0,32.000000
-9,20,63,1635111146.0,32.000000
-4,23,63,1635111146.0,32.000000
-14,21,64,1635111146.0,32.000000
-17,20,63,1635111146.0,32.000000
-7,18,60,1635111146.0,32.000000
-6,8,66,1635111146.0,32.000000
-6,7,65,1635111146.0,32.000000
-6,8,63,1635111146.0,32.000000
-7,9,62,1635111146.0,32.000000
-9,11,60,1635111146.0,32.000000
-10,10,59,1635111146.0,32.000000
-9,9,58,1635111146.0,32.000000
-8,10,59,1635111146.0,32.000000
-11,10,59,1635111146.0,32.000000
-12,11,64,1635111146.0,32.000000
-25,8,69,1635111146.0,32.000000
-11,13,65,1635111146.0,32.000000
-14,22,51,1635111146.0,32.000000
-15,21,48,1635111146.0,32.000000
-20,16,61,1635111146.0,32.000000
-12,13,66,1635111146.0,32.000000
-11,13,66,1635111146.0,32.000000
-13,13,63,1635111146.0,32.000000
-11,15,59,1635111146.0,32.000000
-16,13,59,1635111146.0,32.000000
-15,10,61,1635111146.0,32.000000
-16,10,61,1635111146.0,32.000000
-17,9,63,1635111146.0,32.000000
-17,9,63,1635111146.0,32.000000
-18,10,61,1635111146.0,32.000000
-18,12,61,1635111146.0,32.000000
-18,12,60,1635111146.0,32.000000
-17,13,60,1635111146.0,32.000000
-18,13,60,1635111146.0,32.000000
-18,13,60,1635111146.0,32.000000
-19,13,60,1635111146.0,32.000000
-20,13,60,1635111146.0,32.000000
-19,13,60,1635111146.0,32.000000
-19,12,60,1635111146.0,32.000000
-19,12,60,1635111146.0,32.000000
-20,12,60,1635111146.0,32.000000
-18,11,60,1635111146.0,32.000000
-19,13,59,1635111146.0,32.000000
-19,13,59,1635111146.0,32.000000
-19,13,60,1635111146.0,32.000000
-20,12,59,1635111146.0,32.000000
-20,12,59,1635111146.0,32.000000
-20,11,61,1635111146.0,32.000000
-18,11,60,1635111146.0,32.000000
-20,10,61,1635111146.0,32.000000
-20,11,61,1635111146.0,32.000000
-20,11,61,1635111146.0,32.000000
-19,12,61,1635111146.0,32.000000
-19,12,60,1635111146.0,32.000000
-19,12,61,1635111146.0,32.000000
-20,12,60,1635111146.0,32.000000
-21,12,60,1635111146.0,32.000000
-21,12,60,1635111146.0,32.000000
-21,13,59,1635111146.0,32.000000
-21,13,59,1635111146.0,32.000000
-21,13,60,1635111146.0,32.000000
-21,13,59,1635111146.0,32.000000
-22,14,58,1635111146.0,32.000000
-24,15,55,1635111146.0,32.000000
-25,16,53,1635111146.0,32.000000
-31,12,57,1635111146.0,32.000000
-30,11,63,1635111146.0,32.000000
-17,12,61,1635111146.0,32.000000
-19,12,59,1635111146.0,32.000000
-20,12,62,1635111146.0,32.000000
-20,13,62,1635111146.0,32.000000
-21,14,60,1635111146.0,32.000000
-18,17,62,1635111146.0,32.000000
-21,15,55,1635111146.0,32.000000
-22,15,56,1635111146.0,32.000000
-22,14,59,1635111146.0,32.000000
-22,14,60,1635111146.0,32.000000
-21,13,60,1635111146.0,32.000000
-22,14,59,1635111146.0,32.000000
-22,14,60,1635111146.0,32.000000
-22,14,59,1635111146.0,32.000000
-21,14,59,1635111146.0,32.000000
-21,14,59,1635111146.0,32.000000
-22,14,59,1635111146.0,32.000000
-22,14,59,1635111146.0,32.000000
-22,14,59,1635111146.0,32.000000
-22,14,59,1635111146.0,32.000000
-22,14,59,1635111146.0,32.000000
-23,14,59,1635111146.0,32.000000
-23,14,59,1635111146.0,32.000000
-23,14,59,1635111146.0,32.000000
-23,14,58,1635111146.0,32.000000
-23,14,58,1635111146.0,32.000000
-22,14,59,1635111146.0,32.000000
-22,15,59,1635111146.0,32.000000
-23,14,58,1635111146.0,32.000000
-23,14,59,1635111146.0,32.000000
-23,14,59,1635111146.0,32.000000
-22,14,59,1635111146.0,32.000000
-22,14,59,1635111146.0,32.000000
-23,15,58,1635111146.0,32.000000
-23,15,59,1635111146.0,32.000000
-23,14,58,1635111146.0,32.000000
-23,14,59,1635111146.0,32.000000
-23,14,59,1635111146.0,32.000000
-23,14,59,1635111146.0,32.000000
-23,14,59,1635111146.0,32.000000
-23,15,58,1635111146.0,32.000000
-23,15,58,1635111146.0,32.000000
-23,15,58,1635111146.0,32.000000
-23,14,58,1635111146.0,32.000000
-23,14,59,1635111146.0,32.000000
-23,14,59,1635111146.0,32.000000
-23,14,59,1635111146.0,32.000000
-22,14,59,1635111146.0,32.000000
-22,14,59,1635111146.0,32.000000
-22,14,59,1635111146.0,32.000000
-22,14,58,1635111146.0,32.000000
-22,14,59,1635111146.0,32.000000
-22,14,59,1635111146.0,32.000000
-22,14,59,1635111146.0,32.000000
-23,14,59,1635111146.0,32.000000
-23,14,59,1635111146.0,32.000000
-23,15,58,1635111146.0,32.000000
-23,14,58,1635111146.0,32.000000
-23,14,59,1635111146.0,32.000000
-23,14,59,1635111146.0,32.000000
-23,14,59,1635111146.0,32.000000
-23,14,58,1635111146.0,32.000000
-23,15,58,1635111146.0,32.000000
-23,15,58,1635111146.0,32.000000
-23,15,58,1635111146.0,32.000000
-23,15,58,1635111146.0,32.000000
-23,14,59,1635111146.0,32.000000
-23,14,59,1635111146.0,32.000000
-23,14,59,1635111146.0,32.000000
-23,15,58,1635111146.0,32.000000
-23,15,58,1635111146.0,32.000000
-22,14,58,1635111146.0,32.000000
-22,14,58,1635111146.0,32.000000
-23,14,59,1635111146.0,32.000000
-23,14,59,1635111146.0,32.000000
-23,14,59,1635111146.0,32.000000
-23,14,58,1635111146.0,32.000000
-23,14,58,1635111146.0,32.000000
-23,15,58,1635111146.0,32.000000
-23,14,59,1635111146.0,32.000000
-23,14,59,1635111146.0,32.000000
-23,14,59,1635111146.0,32.000000
-23,14,59,1635111146.0,32.000000
-23,14,58,1635111146.0,32.000000
-23,15,58,1635111146.0,32.000000
-23,15,58,1635111146.0,32.000000
-23,14,59,1635111146.0,32.000000
-23,14,59,1635111146.0,32.000000
-23,14,59,1635111146.0,32.000000
-23,15,58,1635111146.0,32.000000
-23,15,58,1635111146.0,32.000000
-23,15,58,1635111146.0,32.000000
-23,14,58,1635111146.0,32.000000
-23,14,59,1635111146.0,32.000000
-23,14,59,1635111146.0,32.000000
-23,14,59,1635111146.0,32.000000
-23,15,58,1635111146.0,32.000000
-23,15,58,1635111146.0,32.000000
-23,14,58,1635111146.0,32.000000
-23,14,59,1635111146.0,32.000000
-23,14,59,1635111146.0,32.000000
-23,14,59,1635111146.0,32.000000
-23,14,58,1635111146.0,32.000000
-23,14,58,1635111146.0,32.000000
-23,15,58,1635111146.0,32.000000
-23,15,58,1635111146.0,32.000000
-23,14,58,1635111146.0,32.000000
-23,14,58,1635111146.0,32.000000
-23,14,59,1635111146.0,32.000000
-23,14,59,1635111146.0,32.000000
-23,14,59,1635111146.0,32.000000
-23,14,58,1635111146.0,32.000000
-23,14,58,1635111146.0,32.000000
-23,14,58,1635111146.0,32.000000
-23,14,59,1635111146.0,32.000000
-23,14,58,1635111146.0,32.000000
-23,14,59,1635111146.0,32.000000
-23,14,58,1635111146.0,32.000000
-23,14,58,1635111146.0,32.000000
-23,15,59,1635111146.0,32.000000
-23,14,58,1635111146.0,32.000000
-23,14,58,1635111146.0,32.000000
-23,14,59,1635111146.0,32.000000
-23,14,59,1635111146.0,32.000000
-23,14,58,1635111146.0,32.000000
-23,14,59,1635111146.0,32.000000
-23,14,58,1635111146.0,32.000000
-23,14,58,1635111146.0,32.000000
-23,14,59,1635111146.0,32.000000
-23,14,58,1635111146.0,32.000000
-23,14,58,1635111146.0,32.000000
-23,14,59,1635111146.0,32.000000
-23,14,58,1635111146.0,32.000000
-23,14,58,1635111146.0,32.000000
-23,14,59,1635111146.0,32.000000
-23,14,58,1635111146.0,32.000000
-23,14,58,1635111146.0,32.000000
-23,14,59,1635111146.0,32.000000
-23,14,58,1635111146.0,32.000000
-23,14,58,1635111146.0,32.000000
-23,14,58,1635111146.0,32.000000
-23,14,58,1635111146.0,32.000000
-23,14,58,1635111146.0,32.000000
-23,14,59,1635111146.0,32.000000
-23,14,59,1635111146.0,32.000000
-23,14,59,1635111146.0,32.000000
-23,14,58,1635111146.0,32.000000
-23,14,58,1635111146.0,32.000000
-23,14,58,1635111146.0,32.000000
-23,14,58,1635111146.0,32.000000
-23,14,59,1635111146.0,32.000000
-23,14,58,1635111146.0,32.000000
-23,14,58,1635111146.0,32.000000
-23,15,58,1635111146.0,32.000000
-23,14,58,1635111146.0,32.000000
-23,14,58,1635111146.0,32.000000
-23,14,58,1635111146.0,32.000000
-23,14,58,1635111146.0,32.000000
-23,14,58,1635111146.0,32.000000
-23,14,58,1635111146.0,32.000000
-23,14,59,1635111146.0,32.000000
-23,14,58,1635111146.0,32.000000
-23,14,58,1635111146.0,32.000000
-23,14,58,1635111146.0,32.000000
-23,14,58,1635111146.0,32.000000
-23,14,59,1635111146.0,32.000000
-23,14,58,1635111146.0,32.000000
-23,15,58,1635111146.0,32.000000
-23,14,59,1635111146.0,32.000000
-23,14,58,1635111146.0,32.000000
-23,14,58,1635111146.0,32.000000
-23,14,58,1635111146.0,32.000000
-23,14,58,1635111146.0,32.000000
-23,14,59,1635111146.0,32.000000
-23,14,58,1635111146.0,32.000000
-23,15,58,1635111146.0,32.000000
-23,15,58,1635111146.0,32.000000
-23,14,58,1635111146.0,32.000000
-23,14,58,1635111146.0,32.000000
-23,14,58,1635111146.0,32.000000
-23,14,58,1635111146.0,32.000000
-23,14,59,1635111146.0,32.000000
-23,15,59,1635111146.0,32.000000
-23,14,58,1635111146.0,32.000000
-23,14,58,1635111146.0,32.000000
-23,15,58,1635111146.0,32.000000
-23,14,58,1635111146.0,32.000000
-23,14,58,1635111146.0,32.000000
-23,14,58,1635111146.0,32.000000
-23,14,58,1635111146.0,32.000000
-23,14,58,1635111146.0,32.000000
-23,14,59,1635111146.0,32.000000
-23,14,58,1635111146.0,32.000000
-23,14,58,1635111146.0,32.000000
-23,14,59,1635111146.0,32.000000
-23,14,58,1635111146.0,32.000000
-23,15,58,1635111146.0,32.000000
-23,14,58,1635111146.0,32.000000
-23,15,58,1635111146.0,32.000000
-23,15,58,1635111146.0,32.000000
-23,14,58,1635111146.0,32.000000
-23,14,58,1635111146.0,32.000000
-23,14,58,1635111146.0,32.000000
-23,14,58,1635111146.0,32.000000
-23,14,58,1635111146.0,32.000000
-23,14,59,1635111146.0,32.000000
-23,14,59,1635111146.0,32.000000
-23,14,58,1635111146.0,32.000000
-23,15,58,1635111146.0,32.000000
-23,14,58,1635111146.0,32.000000
-23,14,58,1635111146.0,32.000000
-23,14,59,1635111146.0,32.000000
-23,14,58,1635111146.0,32.000000
-23,14,58,1635111146.0,32.000000
-23,14,58,1635111146.0,32.000000
-23,14,58,1635111146.0,32.000000
-23,15,58,1635111146.0,32.000000
-23,14,59,1635111146.0,32.000000
-23,14,58,1635111146.0,32.000000
-23,14,58,1635111146.0,32.000000
-23,14,58,1635111146.0,32.000000
-23,14,59,1635111146.0,32.000000
-23,14,58,1635111146.0,32.000000
-23,15,58,1635111146.0,32.000000
-23,14,58,1635111146.0,32.000000
-23,14,58,1635111146.0,32.000000
-23,14,58,1635111146.0,32.000000
-23,14,58,1635111146.0,32.000000
-23,14,58,1635111146.0,32.000000
-23,14,58,1635111146.0,32.000000
-23,14,58,1635111146.0,32.000000
-23,14,58,1635111146.0,32.000000
-23,14,58,1635111146.0,32.000000
-23,15,58,1635111146.0,32.000000
-23,14,58,1635111146.0,32.000000
-23,14,58,1635111146.0,32.000000
-23,14,58,1635111146.0,32.000000
-23,14,58,1635111146.0,32.000000
-23,14,58,1635111146.0,32.000000
-23,14,59,1635111146.0,32.000000
-23,14,58,1635111146.0,32.000000
-23,14,59,1635111146.0,32.000000
-23,14,58,1635111146.0,32.000000
-23,14,59,1635111146.0,32.000000
-23,14,58,1635111146.0,32.000000
-23,14,58,1635111146.0,32.000000
-23,15,58,1635111146.0,32.000000
-23,14,58,1635111146.0,32.000000
-23,15,58,1635111146.0,32.000000
-23,15,58,1635111146.0,32.000000
-23,14,59,1635111146.0,32.000000
-23,14,58,1635111146.0,32.000000
-24,14,58,1635111146.0,32.000000
-23,14,58,1635111146.0,32.000000
-23,15,58,1635111146.0,32.000000
-23,15,58,1635111146.0,32.000000
-23,15,59,1635111146.0,32.000000
-23,15,58,1635111146.0,32.000000
-23,14,58,1635111146.0,32.000000
-23,14,58,1635111146.0,32.000000
-23,14,58,1635111146.0,32.000000
-23,14,58,1635111146.0,32.000000
-23,14,58,1635111146.0,32.000000
-23,14,58,1635111146.0,32.000000
-23,14,58,1635111146.0,32.000000
-23,15,58,1635111146.0,32.000000
-23,15,58,1635111146.0,32.000000
-23,14,58,1635111146.0,32.000000
-23,14,59,1635111146.0,32.000000
-23,15,59,1635111146.0,32.000000
-23,14,58,1635111146.0,32.000000
-23,15,58,1635111146.0,32.000000
-23,14,59,1635111146.0,32.000000
-23,14,58,1635111146.0,32.000000
-23,14,58,1635111146.0,32.000000
-23,15,59,1635111146.0,32.000000
-23,15,58,1635111146.0,32.000000
-23,14,58,1635111146.0,32.000000
-23,14,58,1635111146.0,32.000000
-23,14,59,1635111146.0,32.000000
-23,15,58,1635111146.0,32.000000
-23,15,59,1635111146.0,32.000000
-23,15,58,1635111146.0,32.000000
-23,14,59,1635111146.0,32.000000
-23,14,58,1635111146.0,32.000000
-23,14,59,1635111146.0,32.000000
-23,14,59,1635111146.0,32.000000
-23,14,58,1635111146.0,32.000000
-23,15,58,1635111146.0,32.000000
-23,14,58,1635111146.0,32.000000
-23,15,59,1635111146.0,32.000000
-22,15,58,1635111146.0,32.000000
-23,14,59,1635111146.0,32.000000
-23,14,58,1635111146.0,32.000000
-24,15,59,1635111146.0,32.000000
-23,15,58,1635111146.0,32.000000
-23,15,59,1635111146.0,32.000000
-24,14,58,1635111146.0,32.000000
-22,14,59,1635111146.0,32.000000
-22,14,59,1635111146.0,32.000000
-24,15,58,1635111146.0,32.000000
-23,15,58,1635111146.0,32.000000
-22,14,59,1635111146.0,32.000000
-23,15,58,1635111146.0,32.000000
-24,15,58,1635111146.0,32.000000
-24,15,58,1635111146.0,32.000000
-23,15,59,1635111146.0,32.000000
-22,15,59,1635111146.0,32.000000
-23,15,58,1635111146.0,32.000000
-23,14,58,1635111146.0,32.000000
-24,15,58,1635111146.0,32.000000
-24,15,58,1635111146.0,32.000000
-23,14,58,1635111146.0,32.000000
-22,14,59,1635111146.0,32.000000
-22,15,59,1635111146.0,32.000000
-23,14,58,1635111146.0,32.000000
-24,14,58,1635111146.0,32.000000
-23,15,58,1635111146.0,32.000000
-22,14,59,1635111146.0,32.000000
-22,14,59,1635111146.0,32.000000
-23,14,59,1635111146.0,32.000000
-23,15,58,1635111146.0,32.000000
-23,14,58,1635111146.0,32.000000
-23,14,59,1635111146.0,32.000000
-22,15,59,1635111146.0,32.000000
-23,14,59,1635111146.0,32.000000
-24,14,58,1635111146.0,32.000000
-24,15,58,1635111146.0,32.000000
-23,15,58,1635111146.0,32.000000
-23,15,58,1635111146.0,32.000000
-22,14,59,1635111146.0,32.000000
-23,14,59,1635111146.0,32.000000
-23,14,59,1635111146.0,32.000000
-24,14,58,1635111146.0,32.000000
-23,15,58,1635111146.0,32.000000
-23,15,58,1635111146.0,32.000000
-23,15,58,1635111146.0,32.000000
-23,15,58,1635111146.0,32.000000
-23,14,59,1635111146.0,32.000000
-23,14,58,1635111146.0,32.000000
-23,14,58,1635111146.0,32.000000
-23,15,59,1635111146.0,32.000000
-23,15,58,1635111146.0,32.000000
-23,15,58,1635111146.0,32.000000
-23,15,58,1635111146.0,32.000000
-23,14,59,1635111146.0,32.000000
-23,14,59,1635111146.0,32.000000
-23,14,58,1635111146.0,32.000000
-24,15,58,1635111146.0,32.000000
-25,15,57,1635111146.0,32.000000
-26,14,56,1635111146.0,32.000000
-18,12,60,1635111146.0,32.000000
-21,12,61,1635111146.0,32.000000
-23,14,59,1635111146.0,32.000000
-23,14,57,1635111146.0,32.000000
-23,14,59,1635111146.0,32.000000
-21,13,60,1635111146.0,32.000000
-20,14,61,1635111146.0,32.000000
-20,13,60,1635111146.0,32.000000
-20,14,61,1635111146.0,32.000000
-20,14,61,1635111146.0,32.000000
-21,15,59,1635111146.0,32.000000
-22,15,58,1635111146.0,32.000000
-22,14,58,1635111146.0,32.000000
-19,17,62,1635111146.0,32.000000
-21,16,56,1635111146.0,32.000000
-23,14,56,1635111146.0,32.000000
-22,15,59,1635111146.0,32.000000
-18,13,64,1635111146.0,32.000000
-20,14,58,1635111146.0,32.000000
-20,14,61,1635111146.0,32.000000
-19,14,61,1635111146.0,32.000000
-19,14,61,1635111146.0,32.000000
-24,13,55,1635111146.0,32.000000
-20,16,61,1635111146.0,32.000000
-21,15,56,1635111146.0,32.000000
-20,15,59,1635111146.0,32.000000
-21,15,58,1635111146.0,32.000000
-21,15,59,1635111146.0,32.000000
-21,15,59,1635111146.0,32.000000
-21,15,59,1635111146.0,32.000000
-21,15,59,1635111146.0,32.000000
-21,15,59,1635111146.0,32.000000
-21,14,59,1635111146.0,32.000000
-21,15,59,1635111146.0,32.000000
-21,15,59,1635111146.0,32.000000
-22,15,59,1635111146.0,32.000000
-22,14,59,1635111146.0,32.000000
-21,15,59,1635111146.0,32.000000
-22,14,59,1635111146.0,32.000000
-21,15,59,1635111146.0,32.000000
-22,15,59,1635111146.0,32.000000
-21,15,59,1635111146.0,32.000000
-21,15,59,1635111146.0,32.000000
-21,15,59,1635111146.0,32.000000
-22,14,59,1635111146.0,32.000000
-21,15,59,1635111146.0,32.000000
-21,15,59,1635111146.0,32.000000
-22,14,58,1635111146.0,32.000000
-21,15,59,1635111146.0,32.000000
-21,15,59,1635111146.0,32.000000
-22,15,59,1635111146.0,32.000000
-22,14,59,1635111146.0,32.000000
-22,15,59,1635111146.0,32.000000
-22,15,59,1635111146.0,32.000000
-22,15,59,1635111146.0,32.000000
-22,15,59,1635111146.0,32.000000
-22,15,59,1635111146.0,32.000000
-22,15,59,1635111146.0,32.000000
-21,15,59,1635111146.0,32.000000
-22,14,59,1635111146.0,32.000000
-22,14,59,1635111146.0,32.000000
-22,14,59,1635111146.0,32.000000
-21,15,58,1635111146.0,32.000000
-21,15,59,1635111146.0,32.000000
-22,15,59,1635111146.0,32.000000
-21,15,59,1635111146.0,32.000000
-22,15,59,1635111146.0,32.000000
-22,15,58,1635111146.0,32.000000
-21,15,59,1635111146.0,32.000000
-22,14,59,1635111146.0,32.000000
-22,15,59,1635111146.0,32.000000
-22,15,59,1635111146.0,32.000000
-21,14,59,1635111146.0,32.000000
-22,15,59,1635111146.0,32.000000
-21,15,59,1635111146.0,32.000000
-22,15,59,1635111146.0,32.000000
-22,15,59,1635111146.0,32.000000
-22,14,59,1635111146.0,32.000000
-21,15,59,1635111146.0,32.000000
-21,14,59,1635111146.0,32.000000
-22,15,59,1635111146.0,32.000000
-22,15,59,1635111146.0,32.000000
-22,14,59,1635111146.0,32.000000
-22,15,59,1635111146.0,32.000000
-22,15,60,1635111146.0,32.000000
-21,15,59,1635111146.0,32.000000
-22,15,59,1635111146.0,32.000000
-22,14,59,1635111146.0,32.000000
-22,15,59,1635111146.0,32.000000
-21,15,59,1635111146.0,32.000000
-21,14,59,1635111146.0,32.000000
-22,14,59,1635111146.0,32.000000
-22,15,59,1635111146.0,32.000000
-22,15,58,1635111146.0,32.000000
-22,15,59,1635111146.0,32.000000
-22,14,59,1635111146.0,32.000000
-21,15,59,1635111146.0,32.000000
-22,15,59,1635111146.0,32.000000
-22,15,59,1635111146.0,32.000000
-22,15,59,1635111146.0,32.000000
-22,15,59,1635111146.0,32.000000
-22,15,59,1635111146.0,32.000000
-22,15,58,1635111146.0,32.000000
-22,14,58,1635111146.0,32.000000
-22,14,59,1635111146.0,32.000000
-22,15,59,1635111146.0,32.000000
-22,15,59,1635111146.0,32.000000
-22,15,59,1635111146.0,32.000000
-22,14,59,1635111146.0,32.000000
-22,15,59,1635111146.0,32.000000
-22,15,59,1635111146.0,32.000000
-22,15,59,1635111146.0,32.000000
-22,15,59,1635111146.0,32.000000
-21,15,59,1635111146.0,32.000000
-22,15,59,1635111146.0,32.000000
-22,14,59,1635111146.0,32.000000
-22,15,59,1635111146.0,32.000000
-22,15,59,1635111146.0,32.000000
-21,15,59,1635111146.0,32.000000
-21,15,59,1635111146.0,32.000000
-22,15,59,1635111146.0,32.000000
-22,14,59,1635111146.0,32.000000
-22,15,59,1635111146.0,32.000000
-21,14,59,1635111146.0,32.000000
-22,14,59,1635111146.0,32.000000
-21,14,59,1635111146.0,32.000000
-22,15,59,1635111146.0,32.000000
-21,15,59,1635111146.0,32.000000
-19,14,59,1635111146.0,32.000000
-20,14,59,1635111146.0,32.000000
-21,14,59,1635111146.0,32.000000
-21,14,59,1635111146.0,32.000000
-20,14,60,1635111146.0,32.000000
-21,15,60,1635111146.0,32.000000
-20,16,60,1635111146.0,32.000000
-17,15,61,1635111146.0,32.000000
-17,15,61,1635111146.0,32.000000
-18,15,60,1635111146.0,32.000000
-19,15,59,1635111146.0,32.000000
-19,15,59,1635111146.0,32.000000
-19,16,59,1635111146.0,32.000000
-18,16,59,1635111146.0,32.000000
-18,15,59,1635111146.0,32.000000
-19,15,59,1635111146.0,32.000000
-19,15,60,1635111146.0,32.000000
-19,15,59,1635111146.0,32.000000
-19,15,59,1635111146.0,32.000000
-19,15,59,1635111146.0,32.000000
-19,15,59,1635111146.0,32.000000
-20,15,59,1635111146.0,32.000000
-19,15,59,1635111146.0,32.000000
-20,15,59,1635111146.0,32.000000
-20,15,59,1635111146.0,32.000000
-22,14,59,1635111146.0,32.000000
-22,14,59,1635111146.0,32.000000
-22,14,59,1635111146.0,32.000000
-22,14,59,1635111146.0,32.000000
-22,14,59,1635111146.0,32.000000
-22,14,59,1635111146.0,32.000000
-22,14,59,1635111146.0,32.000000
-21,14,59,1635111146.0,32.000000
-21,15,59,1635111146.0,32.000000
-21,15,58,1635111146.0,32.000000
-21,15,59,1635111146.0,32.000000
-21,15,59,1635111146.0,32.000000
-21,14,59,1635111146.0,32.000000
-21,14,59,1635111146.0,32.000000
-21,14,59,1635111146.0,32.000000
-21,15,59,1635111146.0,32.000000
-21,15,59,1635111146.0,32.000000
-21,15,59,1635111146.0,32.000000
-21,14,59,1635111146.0,32.000000
-21,14,59,1635111146.0,32.000000
-22,14,59,1635111146.0,32.000000
-21,14,59,1635111146.0,32.000000
-21,15,59,1635111146.0,32.000000
-21,15,59,1635111146.0,32.000000
-21,15,59,1635111146.0,32.000000
-21,14,59,1635111146.0,32.000000
-21,14,59,1635111146.0,32.000000
-21,15,59,1635111146.0,32.000000
-21,15,58,1635111146.0,32.000000
-21,15,58,1635111146.0,32.000000
-22,15,59,1635111146.0,32.000000
-21,14,59,1635111146.0,32.000000
-21,14,59,1635111146.0,32.000000
-22,14,59,1635111146.0,32.000000
-22,14,59,1635111146.0,32.000000
-21,15,59,1635111146.0,32.000000
-21,15,59,1635111146.0,32.000000
-21,15,59,1635111146.0,32.000000
-21,14,59,1635111146.0,32.000000
-21,14,59,1635111146.0,32.000000
-22,14,59,1635111146.0,32.000000
-22,14,59,1635111146.0,32.000000
-21,14,59,1635111146.0,32.000000
-21,15,59,1635111146.0,32.000000
-21,15,59,1635111146.0,32.000000
-22,14,59,1635111146.0,32.000000
-22,14,59,1635111146.0,32.000000
-21,15,59,1635111146.0,32.000000
-21,15,59,1635111146.0,32.000000
-22,15,59,1635111146.0,32.000000
-22,15,59,1635111146.0,32.000000
-21,14,59,1635111146.0,32.000000
-21,14,59,1635111146.0,32.000000
-22,14,59,1635111146.0,32.000000
-22,14,59,1635111146.0,32.000000
-22,15,59,1635111146.0,32.000000
-21,15,59,1635111146.0,32.000000
-21,14,59,1635111146.0,32.000000
-22,14,59,1635111146.0,32.000000
-22,14,59,1635111146.0,32.000000
-22,14,59,1635111146.0,32.000000
-22,15,59,1635111146.0,32.000000
-22,15,58,1635111146.0,32.000000
-21,15,59,1635111146.0,32.000000
-22,14,59,1635111146.0,32.000000
-22,14,59,1635111146.0,32.000000
-22,14,59,1635111146.0,32.000000
-22,15,59,1635111146.0,32.000000
-21,15,59,1635111146.0,32.000000
-21,15,59,1635111146.0,32.000000
-22,14,59,1635111146.0,32.000000
-21,14,59,1635111146.0,32.000000
-21,14,59,1635111146.0,32.000000
-22,15,59,1635111146.0,32.000000
-22,15,59,1635111146.0,32.000000
-21,15,59,1635111146.0,32.000000
-21,14,59,1635111146.0,32.000000
-21,15,59,1635111146.0,32.000000
-21,14,59,1635111146.0,32.000000
-21,15,59,1635111146.0,32.000000
-22,15,59,1635111146.0,32.000000
-22,15,59,1635111146.0,32.000000
-21,14,59,1635111146.0,32.000000
-21,15,59,1635111146.0,32.000000
-21,15,59,1635111146.0,32.000000
-21,15,59,1635111146.0,32.000000
-21,15,59,1635111146.0,32.000000
-21,15,59,1635111146.0,32.000000
-21,15,59,1635111146.0,32.000000
-22,15,59,1635111146.0,32.000000
-21,15,59,1635111146.0,32.000000
-21,14,59,1635111146.0,32.000000
-22,14,59,1635111146.0,32.000000
-22,15,59,1635111146.0,32.000000
-21,14,59,1635111146.0,32.000000
-21,14,59,1635111146.0,32.000000
-22,15,59,1635111146.0,32.000000
-22,15,59,1635111146.0,32.000000
-21,15,59,1635111146.0,32.000000
-21,15,59,1635111146.0,32.000000
-21,14,59,1635111146.0,32.000000
-22,15,59,1635111146.0,32.000000
-21,14,59,1635111146.0,32.000000
-21,15,59,1635111146.0,32.000000
-21,15,59,1635111146.0,32.000000
-21,15,59,1635111146.0,32.000000
-21,15,59,1635111146.0,32.000000
-21,15,59,1635111146.0,32.000000
-22,14,59,1635111146.0,32.000000
-22,14,59,1635111146.0,32.000000
-21,14,59,1635111146.0,32.000000
-21,15,59,1635111146.0,32.000000
-21,15,59,1635111146.0,32.000000
-21,15,59,1635111146.0,32.000000
-21,15,59,1635111146.0,32.000000
-22,15,59,1635111146.0,32.000000
-21,15,59,1635111146.0,32.000000
-21,15,59,1635111146.0,32.000000
-22,14,59,1635111146.0,32.000000
-22,14,59,1635111146.0,32.000000
-21,14,59,1635111146.0,32.000000
-21,15,59,1635111146.0,32.000000
-21,15,59,1635111146.0,32.000000
-21,15,59,1635111146.0,32.000000
-21,15,59,1635111146.0,32.000000
-21,15,59,1635111146.0,32.000000
-21,15,59,1635111146.0,32.000000
-21,15,59,1635111146.0,32.000000
-21,15,59,1635111146.0,32.000000
-21,15,59,1635111146.0,32.000000
-21,14,59,1635111146.0,32.000000
-21,15,59,1635111146.0,32.000000
-21,15,59,1635111146.0,32.000000
-21,15,59,1635111146.0,32.000000
-21,14,59,1635111146.0,32.000000
-21,15,59,1635111146.0,32.000000
-21,15,59,1635111146.0,32.000000
-21,15,59,1635111146.0,32.000000
-22,15,59,1635111146.0,32.000000
-21,15,59,1635111146.0,32.000000
-21,15,59,1635111146.0,32.000000
-21,15,59,1635111146.0,32.000000
-21,15,59,1635111146.0,32.000000
-21,15,59,1635111146.0,32.000000
-21,15,59,1635111146.0,32.000000
-21,15,59,1635111146.0,32.000000
-21,14,59,1635111146.0,32.000000
-21,15,59,1635111146.0,32.000000
-21,15,59,1635111146.0,32.000000
-21,14,59,1635111146.0,32.000000
-22,15,59,1635111146.0,32.000000
-22,15,59,1635111146.0,32.000000
-22,14,59,1635111146.0,32.000000
-22,15,59,1635111146.0,32.000000
-22,14,59,1635111146.0,32.000000
-21,14,59,1635111146.0,32.000000
-22,15,59,1635111146.0,32.000000
-21,14,59,1635111146.0,32.000000
-21,14,59,1635111146.0,32.000000
-22,14,59,1635111146.0,32.000000
-22,15,59,1635111146.0,32.000000
-21,15,59,1635111146.0,32.000000
-21,14,59,1635111146.0,32.000000
-21,14,59,1635111146.0,32.000000
-21,15,59,1635111146.0,32.000000
-22,15,59,1635111146.0,32.000000
-21,15,59,1635111146.0,32.000000
-21,14,59,1635111146.0,32.000000
-22,14,59,1635111146.0,32.000000
-22,14,59,1635111146.0,32.000000
-22,14,59,1635111146.0,32.000000
-22,14,59,1635111146.0,32.000000
-21,15,59,1635111146.0,32.000000
-22,14,59,1635111146.0,32.000000
-22,15,59,1635111146.0,32.000000
-21,15,59,1635111146.0,32.000000
-22,14,59,1635111146.0,32.000000
-22,15,59,1635111146.0,32.000000
-21,15,59,1635111146.0,32.000000
-21,15,59,1635111146.0,32.000000
-22,15,59,1635111146.0,32.000000
-21,14,59,1635111146.0,32.000000
-21,14,59,1635111146.0,32.000000
-22,14,59,1635111146.0,32.000000
-22,15,59,1635111146.0,32.000000
-22,15,59,1635111146.0,32.000000
-21,15,58,1635111146.0,32.000000
-21,14,59,1635111146.0,32.000000
-21,14,59,1635111146.0,32.000000
-21,14,59,1635111146.0,32.000000
-22,14,59,1635111146.0,32.000000
-22,14,59,1635111146.0,32.000000
-22,15,59,1635111146.0,32.000000
-21,15,59,1635111146.0,32.000000
-22,15,59,1635111146.0,32.000000
-21,14,59,1635111146.0,32.000000
-22,14,59,1635111146.0,32.000000
-22,14,59,1635111146.0,32.000000
-22,15,59,1635111146.0,32.000000
-22,15,59,1635111146.0,32.000000
-22,15,59,1635111146.0,32.000000
-21,14,59,1635111146.0,32.000000
-21,14,59,1635111146.0,32.000000
-22,14,59,1635111146.0,32.000000
-22,15,59,1635111146.0,32.000000
-22,15,59,1635111146.0,32.000000
-22,15,59,1635111146.0,32.000000
-21,15,59,1635111146.0,32.000000
-21,14,59,1635111146.0,32.000000
-22,15,59,1635111146.0,32.000000
-22,15,59,1635111146.0,32.000000
-21,14,59,1635111146.0,32.000000
-21,15,59,1635111146.0,32.000000
-22,15,59,1635111146.0,32.000000
-21,15,59,1635111146.0,32.000000
-21,14,59,1635111146.0,32.000000
-21,15,59,1635111146.0,32.000000
-21,15,59,1635111146.0,32.000000
-21,15,59,1635111146.0,32.000000
-21,15,59,1635111146.0,32.000000
-22,15,59,1635111146.0,32.000000
-21,15,59,1635111146.0,32.000000
-22,15,59,1635111146.0,32.000000
-21,15,59,1635111146.0,32.000000
-21,15,59,1635111146.0,32.000000
-22,15,59,1635111146.0,32.000000
-22,15,59,1635111146.0,32.000000
-21,15,59,1635111146.0,32.000000
-21,15,59,1635111146.0,32.000000
-21,15,59,1635111146.0,32.000000
-22,15,59,1635111146.0,32.000000
-21,15,59,1635111146.0,32.000000
-22,15,59,1635111146.0,32.000000
-22,14,59,1635111146.0,32.000000
-21,15,59,1635111146.0,32.000000
-21,14,59,1635111146.0,32.000000
-21,15,59,1635111146.0,32.000000
-21,15,59,1635111146.0,32.000000
-21,15,59,1635111146.0,32.000000
-21,14,59,1635111146.0,32.000000
-21,15,59,1635111146.0,32.000000
-21,15,59,1635111146.0,32.000000
-21,14,59,1635111146.0,32.000000
-21,15,59,1635111146.0,32.000000
-21,15,59,1635111146.0,32.000000
-21,15,59,1635111146.0,32.000000
-21,14,59,1635111146.0,32.000000
-21,14,59,1635111146.0,32.000000
-21,15,59,1635111146.0,32.000000
-21,15,59,1635111146.0,32.000000
-21,15,59,1635111146.0,32.000000
-21,15,59,1635111146.0,32.000000
-21,15,59,1635111146.0,32.000000
-21,15,59,1635111146.0,32.000000
-21,14,59,1635111146.0,32.000000
-21,15,59,1635111146.0,32.000000
-21,14,59,1635111146.0,32.000000
-22,15,59,1635111146.0,32.000000
-22,15,59,1635111146.0,32.000000
-21,15,59,1635111146.0,32.000000
-21,15,59,1635111146.0,32.000000
-21,15,59,1635111146.0,32.000000
-21,14,59,1635111146.0,32.000000
-21,15,59,1635111146.0,32.000000
-21,15,59,1635111146.0,32.000000
-22,15,59,1635111146.0,32.000000
-21,15,59,1635111146.0,32.000000
-21,15,59,1635111146.0,32.000000
-22,15,59,1635111146.0,32.000000
-22,14,59,1635111146.0,32.000000
-21,14,59,1635111146.0,32.000000
-21,14,59,1635111146.0,32.000000
-22,15,59,1635111146.0,32.000000
-22,15,59,1635111146.0,32.000000
-21,14,59,1635111146.0,32.000000
-21,15,59,1635111146.0,32.000000
-21,15,59,1635111146.0,32.000000
-22,14,59,1635111146.0,32.000000
-21,14,59,1635111146.0,32.000000
-22,14,59,1635111146.0,32.000000
-22,14,59,1635111146.0,32.000000
-21,14,59,1635111146.0,32.000000
-21,14,59,1635111146.0,32.000000
-22,15,59,1635111146.0,32.000000
-22,14,59,1635111146.0,32.000000
-21,14,59,1635111146.0,32.000000
-21,14,59,1635111146.0,32.000000
-22,15,59,1635111146.0,32.000000
-22,15,59,1635111146.0,32.000000
-21,14,59,1635111146.0,32.000000
-21,15,59,1635111146.0,32.000000
-21,15,59,1635111146.0,32.000000
-21,14,59,1635111146.0,32.000000
-22,14,59,1635111146.0,32.000000
-22,15,59,1635111146.0,32.000000
-21,14,59,1635111146.0,32.000000
-21,14,59,1635111146.0,32.000000
-21,15,59,1635111146.0,32.000000
-21,14,59,1635111146.0,32.000000
-21,15,59,1635111146.0,32.000000
-22,15,59,1635111146.0,32.000000
-21,14,59,1635111146.0,32.000000
-21,15,59,1635111146.0,32.000000
-21,14,59,1635111146.0,32.000000
-22,14,59,1635111146.0,32.000000
-22,15,59,1635111146.0,32.000000
-21,15,59,1635111146.0,32.000000
-21,15,59,1635111146.0,32.000000
-21,15,59,1635111146.0,32.000000
-21,14,59,1635111146.0,32.000000
-21,14,59,1635111146.0,32.000000
-21,15,59,1635111146.0,32.000000
-21,14,59,1635111146.0,32.000000
-21,14,59,1635111146.0,32.000000
-21,15,59,1635111146.0,32.000000
-21,15,58,1635111146.0,32.000000
-22,15,58,1635111146.0,32.000000
-21,15,59,1635111146.0,32.000000
-21,14,60,1635111146.0,32.000000
-21,14,58,1635111146.0,32.000000
-22,14,59,1635111146.0,32.000000
-21,14,59,1635111146.0,32.000000
-21,14,59,1635111146.0,32.000000
-21,14,60,1635111146.0,32.000000
-21,14,60,1635111146.0,32.000000
-21,13,59,1635111146.0,32.000000
-21,14,59,1635111146.0,32.000000
-20,14,59,1635111146.0,32.000000
-21,14,59,1635111146.0,32.000000
-21,14,60,1635111146.0,32.000000
-20,14,59,1635111146.0,32.000000
-21,14,59,1635111146.0,32.000000
-21,14,59,1635111146.0,32.000000
-21,14,59,1635111146.0,32.000000
-21,14,59,1635111146.0,32.000000
-21,14,59,1635111146.0,32.000000
-21,14,59,1635111146.0,32.000000
-21,15,58,1635111146.0,32.000000
-22,15,59,1635111146.0,32.000000
-21,15,59,1635111146.0,32.000000
-21,15,59,1635111146.0,32.000000
-21,15,59,1635111146.0,32.000000
-22,15,59,1635111146.0,32.000000
-22,15,59,1635111146.0,32.000000
-22,14,59,1635111146.0,32.000000
-22,14,59,1635111146.0,32.000000
-21,15,59,1635111146.0,32.000000
-23,14,59,1635111146.0,32.000000
-24,15,61,1635111146.0,32.000000
-29,16,65,1635111146.0,32.000000
-34,20,71,1635111146.0,32.000000
-35,25,71,1635111146.0,32.000000
-19,33,67,1635111146.0,32.000000
-25,31,57,1635111146.0,32.000000
-10,31,55,1635111146.0,32.000000
-23,29,45,1635111146.0,32.000000
-26,31,39,1635111146.0,32.000000
-18,24,45,1635111146.0,32.000000
-18,21,47,1635111146.0,32.000000
-18,21,46,1635111146.0,32.000000
-22,17,51,1635111146.0,32.000000
-21,17,55,1635111146.0,32.000000
-23,10,58,1635111146.0,32.000000
-28,6,58,1635111146.0,32.000000
-22,8,61,1635111146.0,32.000000
-24,12,63,1635111146.0,32.000000
-24,15,65,1635111146.0,32.000000
-18,22,67,1635111146.0,32.000000
-19,21,61,1635111146.0,32.000000
-20,22,62,1635111146.0,32.000000
-21,19,59,1635111146.0,32.000000
-16,13,56,1635111146.0,32.000000
-16,11,55,1635111146.0,32.000000
-22,4,52,1635111146.0,32.000000
-20,2,54,1635111146.0,32.000000
-22,0,58,1635111146.0,32.000000
-22,0,58,1635111146.0,32.000000
-26,1,55,1635111146.0,32.000000
-27,2,58,1635111146.0,32.000000
-27,3,58,1635111146.0,32.000000
-25,1,62,1635111146.0,32.000000
-32,-3,60,1635111146.0,32.000000
-33,-4,57,1635111146.0,32.000000
-29,-5,56,1635111146.0,32.000000
-29,-5,55,1635111146.0,32.000000
-25,-4,54,1635111146.0,32.000000
-28,-2,68,1635111146.0,32.000000
-32,0,82,1635111146.0,32.000000
-22,3,58,1635111146.0,32.000000
-26,2,59,1635111146.0,32.000000
-31,4,55,1635111146.0,32.000000
-28,2,58,1635111146.0,32.000000
-29,2,57,1635111146.0,32.000000
-31,5,58,1635111146.0,32.000000
-29,5,58,1635111146.0,32.000000
-33,3,56,1635111146.0,32.000000
-29,4,58,1635111146.0,32.000000
-28,4,58,1635111146.0,32.000000
-30,4,58,1635111146.0,32.000000
-29,2,58,1635111146.0,32.000000
-30,1,57,1635111146.0,32.000000
-22,0,60,1635111146.0,32.000000
-23,1,60,1635111146.0,32.000000
-24,-1,59,1635111146.0,32.000000
-23,-2,61,1635111146.0,32.000000
-22,-1,60,1635111146.0,32.000000
-24,-1,61,1635111146.0,32.000000
-21,1,61,1635111146.0,32.000000
-20,0,63,1635111146.0,32.000000
-25,2,60,1635111146.0,32.000000
-29,4,57,1635111146.0,32.000000
-36,5,54,1635111146.0,32.000000
-35,4,56,1635111146.0,32.000000
-30,3,58,1635111146.0,32.000000
-30,5,57,1635111146.0,32.000000
-35,4,55,1635111146.0,32.000000
-36,5,53,1635111146.0,32.000000
-35,4,55,1635111146.0,32.000000
-33,3,56,1635111146.0,32.000000
-31,3,57,1635111146.0,32.000000
-30,1,59,1635111146.0,32.000000
-29,2,58,1635111146.0,32.000000
-30,3,58,1635111146.0,32.000000
-31,3,57,1635111146.0,32.000000
-31,3,57,1635111146.0,32.000000
-32,4,56,1635111146.0,32.000000
-35,3,55,1635111146.0,32.000000
-34,3,55,1635111146.0,32.000000
-34,4,55,1635111146.0,32.000000
-34,5,55,1635111146.0,32.000000
-33,4,56,1635111146.0,32.000000
-35,3,56,1635111146.0,32.000000
-32,2,57,1635111146.0,32.000000
-33,4,56,1635111146.0,32.000000
-34,5,55,1635111146.0,32.000000
-35,5,55,1635111146.0,32.000000
-33,4,56,1635111146.0,32.000000
-35,4,56,1635111146.0,32.000000
-32,4,56,1635111146.0,32.000000
-33,6,54,1635111146.0,32.000000
-35,6,55,1635111146.0,32.000000
-35,0,55,1635111146.0,32.000000
-35,0,56,1635111146.0,32.000000
-34,2,56,1635111146.0,32.000000
-33,2,56,1635111146.0,32.000000
-33,3,57,1635111146.0,32.000000
-34,3,55,1635111146.0,32.000000
-34,4,54,1635111146.0,32.000000
-34,4,55,1635111146.0,32.000000
-34,4,54,1635111146.0,32.000000
-34,4,56,1635111146.0,32.000000
-30,3,58,1635111146.0,32.000000
-32,4,56,1635111146.0,32.000000
-34,4,56,1635111146.0,32.000000
-32,3,56,1635111146.0,32.000000
-31,3,57,1635111146.0,32.000000
-32,3,57,1635111146.0,32.000000
-32,4,56,1635111146.0,32.000000
-32,4,57,1635111146.0,32.000000
-33,4,56,1635111146.0,32.000000
-32,4,56,1635111146.0,32.000000
-32,4,56,1635111146.0,32.000000
-32,4,57,1635111146.0,32.000000
-32,4,56,1635111146.0,32.000000
-32,4,57,1635111146.0,32.000000
-32,4,56,1635111146.0,32.000000
-33,4,56,1635111146.0,32.000000
-32,4,56,1635111146.0,32.000000
-33,5,56,1635111146.0,32.000000
-33,5,56,1635111146.0,32.000000
-32,5,56,1635111146.0,32.000000
-32,5,56,1635111146.0,32.000000
-32,5,56,1635111146.0,32.000000
-33,5,56,1635111146.0,32.000000
-32,5,57,1635111146.0,32.000000
-32,5,56,1635111146.0,32.000000
-33,5,56,1635111146.0,32.000000
-32,5,56,1635111146.0,32.000000
-32,5,56,1635111146.0,32.000000
-33,5,56,1635111146.0,32.000000
-33,4,56,1635111146.0,32.000000
-33,5,56,1635111146.0,32.000000
-33,4,56,1635111146.0,32.000000
-33,4,57,1635111146.0,32.000000
-33,4,56,1635111146.0,32.000000
-33,4,56,1635111146.0,32.000000
-33,4,56,1635111146.0,32.000000
-33,4,56,1635111146.0,32.000000
-32,4,56,1635111146.0,32.000000
-32,4,57,1635111146.0,32.000000
-32,4,57,1635111146.0,32.000000
-32,4,56,1635111146.0,32.000000
-33,4,56,1635111146.0,32.000000
-33,4,56,1635111146.0,32.000000
-34,4,55,1635111146.0,32.000000
-34,4,55,1635111146.0,32.000000
-33,5,55,1635111146.0,32.000000
-33,5,56,1635111146.0,32.000000
-29,5,57,1635111146.0,32.000000
-29,4,58,1635111146.0,32.000000
-28,5,58,1635111146.0,32.000000
-28,3,59,1635111146.0,32.000000
-27,3,59,1635111146.0,32.000000
-30,4,58,1635111146.0,32.000000
-31,4,57,1635111146.0,32.000000
-31,4,57,1635111146.0,32.000000
-30,4,57,1635111146.0,32.000000
-30,4,58,1635111146.0,32.000000
-30,4,57,1635111146.0,32.000000
-31,4,57,1635111146.0,32.000000
-31,4,57,1635111146.0,32.000000
-31,4,57,1635111146.0,32.000000
-31,4,57,1635111146.0,32.000000
-31,4,57,1635111146.0,32.000000
-31,4,58,1635111146.0,32.000000
-31,4,57,1635111146.0,32.000000
-31,4,57,1635111146.0,32.000000
-31,4,57,1635111146.0,32.000000
-31,5,57,1635111146.0,32.000000
-31,5,57,1635111146.0,32.000000
-31,4,57,1635111146.0,32.000000
-31,4,57,1635111146.0,32.000000
-31,4,57,1635111146.0,32.000000
-31,4,57,1635111146.0,32.000000
-31,4,57,1635111146.0,32.000000
-31,4,57,1635111146.0,32.000000
-31,4,57,1635111146.0,32.000000
-31,4,57,1635111146.0,32.000000
-31,4,57,1635111146.0,32.000000
-31,5,57,1635111146.0,32.000000
-31,5,57,1635111146.0,32.000000
-31,4,57,1635111146.0,32.000000
-31,5,57,1635111146.0,32.000000
-31,4,57,1635111146.0,32.000000
-31,4,57,1635111146.0,32.000000
-31,4,57,1635111146.0,32.000000
-31,4,57,1635111146.0,32.000000
-31,4,57,1635111146.0,32.000000
-31,4,57,1635111146.0,32.000000
-31,5,57,1635111146.0,32.000000
-31,5,57,1635111146.0,32.000000
-31,5,57,1635111146.0,32.000000
-31,5,57,1635111146.0,32.000000
-31,4,57,1635111146.0,32.000000
-31,5,57,1635111146.0,32.000000
-31,5,57,1635111146.0,32.000000
-31,4,57,1635111146.0,32.000000
-31,4,57,1635111146.0,32.000000
-31,4,57,1635111146.0,32.000000
-31,5,57,1635111146.0,32.000000
-31,4,57,1635111146.0,32.000000
-31,5,57,1635111146.0,32.000000
-31,4,57,1635111146.0,32.000000
-31,4,57,1635111146.0,32.000000
-31,4,57,1635111146.0,32.000000
-31,4,57,1635111146.0,32.000000
-31,5,57,1635111146.0,32.000000
-31,4,57,1635111146.0,32.000000
-31,5,57,1635111146.0,32.000000
-31,5,57,1635111146.0,32.000000
-31,4,57,1635111146.0,32.000000
-31,5,57,1635111146.0,32.000000
-31,5,57,1635111146.0,32.000000
-31,5,57,1635111146.0,32.000000
-31,4,57,1635111146.0,32.000000
-31,4,57,1635111146.0,32.000000
-31,5,57,1635111146.0,32.000000
-31,5,57,1635111146.0,32.000000
-31,4,57,1635111146.0,32.000000
-31,4,57,1635111146.0,32.000000
-31,5,57,1635111146.0,32.000000
-31,5,57,1635111146.0,32.000000
-31,4,57,1635111146.0,32.000000
-31,5,57,1635111146.0,32.000000
-31,4,57,1635111146.0,32.000000
-31,5,57,1635111146.0,32.000000
-31,4,57,1635111146.0,32.000000
-31,4,57,1635111146.0,32.000000
-31,5,57,1635111146.0,32.000000
-31,4,57,1635111146.0,32.000000
-31,5,56,1635111146.0,32.000000
-31,5,57,1635111146.0,32.000000
-31,5,57,1635111146.0,32.000000
-31,4,57,1635111146.0,32.000000
-31,4,57,1635111146.0,32.000000
-31,5,57,1635111146.0,32.000000
-31,4,57,1635111146.0,32.000000
-31,5,57,1635111146.0,32.000000
-31,4,57,1635111146.0,32.000000
-31,4,57,1635111146.0,32.000000
-31,5,57,1635111146.0,32.000000
-31,5,56,1635111146.0,32.000000
-31,5,57,1635111146.0,32.000000
-32,5,57,1635111146.0,32.000000
-33,5,56,1635111146.0,32.000000
-34,5,56,1635111146.0,32.000000
-34,5,55,1635111146.0,32.000000
-30,6,57,1635111146.0,32.000000
-29,7,57,1635111146.0,32.000000
-27,7,58,1635111146.0,32.000000
-23,7,59,1635111146.0,32.000000
-22,6,60,1635111146.0,32.000000
-21,6,60,1635111146.0,32.000000
-23,5,61,1635111146.0,32.000000
-21,4,60,1635111146.0,32.000000
-20,3,62,1635111146.0,32.000000
-19,4,61,1635111146.0,32.000000
-18,5,61,1635111146.0,32.000000
-19,5,61,1635111146.0,32.000000
-23,6,60,1635111146.0,32.000000
-18,4,62,1635111146.0,32.000000
-17,6,62,1635111146.0,32.000000
-17,5,61,1635111146.0,32.000000
-19,5,61,1635111146.0,32.000000
-25,2,62,1635111146.0,32.000000
-22,4,61,1635111146.0,32.000000
-22,4,61,1635111146.0,32.000000
-21,6,59,1635111146.0,32.000000
-17,7,57,1635111146.0,32.000000
-17,5,58,1635111146.0,32.000000
-27,2,62,1635111146.0,32.000000
-21,4,61,1635111146.0,32.000000
-18,6,61,1635111146.0,32.000000
-19,5,62,1635111146.0,32.000000
-20,5,58,1635111146.0,32.000000
-21,4,65,1635111146.0,32.000000
-20,5,61,1635111146.0,32.000000
-22,6,59,1635111146.0,32.000000
-21,5,61,1635111146.0,32.000000
-20,5,61,1635111146.0,32.000000
-21,5,61,1635111146.0,32.000000
-21,4,61,1635111146.0,32.000000
-20,4,61,1635111146.0,32.000000
-20,5,61,1635111146.0,32.000000
-21,5,60,1635111146.0,32.000000
-21,5,61,1635111146.0,32.000000
-21,5,61,1635111146.0,32.000000
-21,5,61,1635111146.0,32.000000
-21,4,61,1635111146.0,32.000000
-22,5,61,1635111146.0,32.000000
-22,5,60,1635111146.0,32.000000
-22,5,60,1635111146.0,32.000000
-22,5,60,1635111146.0,32.000000
-22,5,60,1635111146.0,32.000000
-23,5,60,1635111146.0,32.000000
-23,5,59,1635111146.0,32.000000
-23,5,60,1635111146.0,32.000000
-23,5,60,1635111146.0,32.000000
-23,6,59,1635111146.0,32.000000
-23,5,60,1635111146.0,32.000000
-23,5,60,1635111146.0,32.000000
-24,5,60,1635111146.0,32.000000
-23,5,60,1635111146.0,32.000000
-23,5,60,1635111146.0,32.000000
-23,5,60,1635111146.0,32.000000
-24,5,60,1635111146.0,32.000000
-24,5,60,1635111146.0,32.000000
-24,5,60,1635111146.0,32.000000
-24,5,60,1635111146.0,32.000000
-24,5,60,1635111146.0,32.000000
-24,5,59,1635111146.0,32.000000
-24,5,60,1635111146.0,32.000000
-24,5,60,1635111146.0,32.000000
-24,5,60,1635111146.0,32.000000
-24,5,60,1635111146.0,32.000000
-24,5,60,1635111146.0,32.000000
-24,5,59,1635111146.0,32.000000
-24,5,59,1635111146.0,32.000000
-24,4,60,1635111146.0,32.000000
-24,5,60,1635111146.0,32.000000
-23,5,60,1635111146.0,32.000000
-23,4,60,1635111146.0,32.000000
-22,4,61,1635111146.0,32.000000
-25,4,59,1635111146.0,32.000000
-24,4,60,1635111146.0,32.000000
-22,4,60,1635111146.0,32.000000
-24,3,60,1635111146.0,32.000000
-22,3,60,1635111146.0,32.000000
-23,3,60,1635111146.0,32.000000
-23,4,60,1635111146.0,32.000000
-24,4,60,1635111146.0,32.000000
-24,4,60,1635111146.0,32.000000
-24,4,60,1635111146.0,32.000000
-24,5,60,1635111146.0,32.000000
-24,4,60,1635111146.0,32.000000
-24,5,60,1635111146.0,32.000000
-24,5,60,1635111146.0,32.000000
-25,5,59,1635111146.0,32.000000
-25,5,59,1635111146.0,32.000000
-25,5,59,1635111146.0,32.000000
-24,5,59,1635111146.0,32.000000
-24,5,59,1635111146.0,32.000000
-25,5,59,1635111146.0,32.000000
-25,5,59,1635111146.0,32.000000
-25,5,59,1635111146.0,32.000000
-25,5,59,1635111146.0,32.000000
-25,5,59,1635111146.0,32.000000
-25,5,59,1635111146.0,32.000000
-25,5,59,1635111146.0,32.000000
-25,5,59,1635111146.0,32.000000
-25,5,59,1635111146.0,32.000000
-25,5,59,1635111146.0,32.000000
-25,5,60,1635111146.0,32.000000
-25,5,59,1635111146.0,32.000000
-25,5,59,1635111146.0,32.000000
-25,5,59,1635111146.0,32.000000
-25,5,59,1635111146.0,32.000000
-25,5,59,1635111146.0,32.000000
-25,5,59,1635111146.0,32.000000
-25,5,59,1635111146.0,32.000000
-25,5,59,1635111146.0,32.000000
-25,5,59,1635111146.0,32.000000
-25,5,59,1635111146.0,32.000000
-25,5,59,1635111146.0,32.000000
-25,5,59,1635111146.0,32.000000
-25,5,59,1635111146.0,32.000000
-25,5,59,1635111146.0,32.000000
-25,5,59,1635111146.0,32.000000
-25,5,59,1635111146.0,32.000000
-25,5,59,1635111146.0,32.000000
-25,5,59,1635111146.0,32.000000
-25,5,59,1635111146.0,32.000000
-25,5,59,1635111146.0,32.000000
-25,5,59,1635111146.0,32.000000
-25,5,59,1635111146.0,32.000000
-25,5,59,1635111146.0,32.000000
-25,5,59,1635111146.0,32.000000
-25,5,59,1635111146.0,32.000000
-25,5,59,1635111146.0,32.000000
-25,5,59,1635111146.0,32.000000
-25,5,59,1635111146.0,32.000000
-25,5,59,1635111146.0,32.000000
-25,5,59,1635111146.0,32.000000
-25,5,59,1635111146.0,32.000000
-25,5,59,1635111146.0,32.000000
-25,5,59,1635111146.0,32.000000
-25,5,59,1635111146.0,32.000000
-25,5,59,1635111146.0,32.000000
-25,5,59,1635111146.0,32.000000
-25,5,59,1635111146.0,32.000000
-25,5,59,1635111146.0,32.000000
-25,5,59,1635111146.0,32.000000
-25,5,60,1635111146.0,32.000000
-25,5,59,1635111146.0,32.000000
-25,5,59,1635111146.0,32.000000
-25,5,59,1635111146.0,32.000000
-25,5,59,1635111146.0,32.000000
-25,5,59,1635111146.0,32.000000
-25,5,59,1635111146.0,32.000000
-25,5,59,1635111146.0,32.000000
-25,5,59,1635111146.0,32.000000
-25,5,59,1635111146.0,32.000000
-25,5,59,1635111146.0,32.000000
-25,5,59,1635111146.0,32.000000
-25,5,59,1635111146.0,32.000000
-25,5,59,1635111146.0,32.000000
-25,5,59,1635111146.0,32.000000
-25,5,59,1635111146.0,32.000000
-25,5,59,1635111146.0,32.000000
-25,5,59,1635111146.0,32.000000
-25,5,59,1635111146.0,32.000000
-25,5,59,1635111146.0,32.000000
-25,5,59,1635111146.0,32.000000
-25,5,59,1635111146.0,32.000000
-25,5,60,1635111146.0,32.000000
-25,5,60,1635111146.0,32.000000
-25,5,59,1635111146.0,32.000000
-25,5,59,1635111146.0,32.000000
-25,5,59,1635111146.0,32.000000
-25,5,59,1635111146.0,32.000000
-25,5,59,1635111146.0,32.000000
-25,5,59,1635111146.0,32.000000
-25,5,59,1635111146.0,32.000000
-24,5,60,1635111146.0,32.000000
-24,5,59,1635111146.0,32.000000
-24,5,60,1635111146.0,32.000000
-24,5,59,1635111146.0,32.000000
-24,5,59,1635111146.0,32.000000
-24,5,60,1635111146.0,32.000000
-24,5,59,1635111146.0,32.000000
-24,5,60,1635111146.0,32.000000
-24,5,59,1635111146.0,32.000000
-24,5,59,1635111146.0,32.000000
-24,5,59,1635111146.0,32.000000
-24,5,60,1635111146.0,32.000000
-24,5,59,1635111146.0,32.000000
-24,5,60,1635111146.0,32.000000
-24,5,60,1635111146.0,32.000000
-24,5,59,1635111146.0,32.000000
-24,5,59,1635111146.0,32.000000
-25,5,60,1635111146.0,32.000000
-24,5,59,1635111146.0,32.000000
-24,5,59,1635111146.0,32.000000
-24,5,60,1635111146.0,32.000000
-25,5,59,1635111146.0,32.000000
-25,5,59,1635111146.0,32.000000
-24,5,60,1635111146.0,32.000000
-24,5,59,1635111146.0,32.000000
-24,5,60,1635111146.0,32.000000
-24,5,60,1635111146.0,32.000000
-24,5,59,1635111146.0,32.000000
-24,5,60,1635111146.0,32.000000
-24,5,60,1635111146.0,32.000000
-25,5,59,1635111146.0,32.000000
-24,5,60,1635111146.0,32.000000
-24,5,60,1635111146.0,32.000000
-24,5,59,1635111146.0,32.000000
-24,5,59,1635111146.0,32.000000
-24,5,60,1635111146.0,32.000000
-24,5,59,1635111146.0,32.000000
-24,5,60,1635111146.0,32.000000
-24,5,60,1635111146.0,32.000000
-24,5,60,1635111146.0,32.000000
-24,5,59,1635111146.0,32.000000
-24,5,60,1635111146.0,32.000000
-25,5,59,1635111146.0,32.000000
-24,5,59,1635111146.0,32.000000
-24,5,60,1635111146.0,32.000000
-24,5,59,1635111146.0,32.000000
-24,5,59,1635111146.0,32.000000
-24,5,59,1635111146.0,32.000000
-24,5,59,1635111146.0,32.000000
-24,5,60,1635111146.0,32.000000
-25,5,59,1635111146.0,32.000000
-24,5,59,1635111146.0,32.000000
-24,5,59,1635111146.0,32.000000
-24,6,59,1635111146.0,32.000000
-24,5,59,1635111146.0,32.000000
-24,5,60,1635111146.0,32.000000
-24,5,60,1635111146.0,32.000000
-24,5,59,1635111146.0,32.000000
-25,5,59,1635111146.0,32.000000
-24,5,60,1635111146.0,32.000000
-24,5,60,1635111146.0,32.000000
-24,5,60,1635111146.0,32.000000
-24,5,59,1635111146.0,32.000000
-24,6,60,1635111146.0,32.000000
-25,5,59,1635111146.0,32.000000
-24,5,59,1635111146.0,32.000000
-24,5,59,1635111146.0,32.000000
-25,5,59,1635111146.0,32.000000
-24,5,60,1635111146.0,32.000000
-24,5,59,1635111146.0,32.000000
-24,5,60,1635111146.0,32.000000
-24,5,59,1635111146.0,32.000000
-25,5,59,1635111146.0,32.000000
-24,5,59,1635111146.0,32.000000
-24,5,60,1635111146.0,32.000000
-24,5,59,1635111146.0,32.000000
-24,5,59,1635111146.0,32.000000
-24,5,59,1635111146.0,32.000000
-24,5,60,1635111146.0,32.000000
-24,5,60,1635111146.0,32.000000
-24,5,59,1635111146.0,32.000000
-24,5,59,1635111146.0,32.000000
-24,5,59,1635111146.0,32.000000
-25,5,59,1635111146.0,32.000000
-25,5,59,1635111146.0,32.000000
-25,5,60,1635111146.0,32.000000
-25,5,59,1635111146.0,32.000000
-24,5,60,1635111146.0,32.000000
-25,5,59,1635111146.0,32.000000
-24,5,60,1635111146.0,32.000000
-23,5,60,1635111146.0,32.000000
-25,5,59,1635111146.0,32.000000
-25,5,60,1635111146.0,32.000000
-25,5,59,1635111146.0,32.000000
-25,5,60,1635111146.0,32.000000
-24,5,60,1635111146.0,32.000000
-25,5,60,1635111146.0,32.000000
-25,4,59,1635111146.0,32.000000
-24,5,60,1635111146.0,32.000000
-25,4,60,1635111146.0,32.000000
-24,4,60,1635111146.0,32.000000
-24,4,60,1635111146.0,32.000000
-24,5,60,1635111146.0,32.000000
-24,5,60,1635111146.0,32.000000
-24,5,60,1635111146.0,32.000000
-24,5,59,1635111146.0,32.000000
-24,5,59,1635111146.0,32.000000
-25,5,59,1635111146.0,32.000000
-24,5,60,1635111146.0,32.000000
-24,5,59,1635111146.0,32.000000
-25,5,59,1635111146.0,32.000000
-25,5,59,1635111146.0,32.000000
-25,5,59,1635111146.0,32.000000
-25,5,60,1635111146.0,32.000000
-24,5,60,1635111146.0,32.000000
-24,5,60,1635111146.0,32.000000
-25,5,59,1635111146.0,32.000000
-25,5,59,1635111146.0,32.000000
-24,5,60,1635111146.0,32.000000
-25,5,59,1635111146.0,32.000000
-25,5,60,1635111146.0,32.000000
-24,5,60,1635111146.0,32.000000
-25,5,59,1635111146.0,32.000000
-24,5,59,1635111146.0,32.000000
-25,5,59,1635111146.0,32.000000
-24,5,60,1635111146.0,32.000000
-25,5,59,1635111146.0,32.000000
-25,5,59,1635111146.0,32.000000
-25,5,59,1635111146.0,32.000000
-25,5,59,1635111146.0,32.000000
-25,5,60,1635111146.0,32.000000
-25,5,59,1635111146.0,32.000000
-25,5,59,1635111146.0,32.000000
-26,5,58,1635111146.0,32.000000
-24,5,60,1635111146.0,32.000000
-23,5,60,1635111146.0,32.000000
-25,6,59,1635111146.0,32.000000
-26,6,59,1635111146.0,32.000000
-25,4,60,1635111146.0,32.000000
-20,4,61,1635111146.0,32.000000
-21,4,60,1635111146.0,32.000000
-22,4,61,1635111146.0,32.000000
-22,4,61,1635111146.0,32.000000
-24,3,60,1635111146.0,32.000000
-22,3,62,1635111146.0,32.000000
-21,3,61,1635111146.0,32.000000
-22,3,61,1635111146.0,32.000000
-23,4,60,1635111146.0,32.000000
-22,4,61,1635111146.0,32.000000
-22,4,60,1635111146.0,32.000000
-22,3,60,1635111146.0,32.000000
-21,3,60,1635111146.0,32.000000
-19,3,61,1635111146.0,32.000000
-20,3,61,1635111146.0,32.000000
-22,4,60,1635111146.0,32.000000
-22,4,61,1635111146.0,32.000000
-21,4,61,1635111146.0,32.000000
-22,4,60,1635111146.0,32.000000
-22,3,61,1635111146.0,32.000000
-22,4,61,1635111146.0,32.000000
-23,4,60,1635111146.0,32.000000
-22,3,62,1635111146.0,32.000000
-21,5,60,1635111146.0,32.000000
-19,3,61,1635111146.0,32.000000
-22,2,63,1635111146.0,32.000000
-20,4,63,1635111146.0,32.000000
-20,4,59,1635111146.0,32.000000
-18,2,65,1635111146.0,32.000000
-19,4,62,1635111146.0,32.000000
-27,4,59,1635111146.0,32.000000
-26,5,63,1635111146.0,32.000000
-14,6,63,1635111146.0,32.000000
-14,6,62,1635111146.0,32.000000
-8,6,62,1635111146.0,32.000000
-7,4,60,1635111146.0,32.000000
-5,4,61,1635111146.0,32.000000
-7,7,60,1635111146.0,32.000000
-6,7,61,1635111146.0,32.000000
-7,7,58,1635111146.0,32.000000
-10,6,65,1635111146.0,32.000000
-8,5,70,1635111146.0,32.000000
-12,7,63,1635111146.0,32.000000
-12,6,63,1635111146.0,32.000000
-12,6,63,1635111146.0,32.000000
-12,6,63,1635111146.0,32.000000
-11,6,63,1635111146.0,32.000000
-12,6,62,1635111146.0,32.000000
-13,6,62,1635111146.0,32.000000
-13,6,62,1635111146.0,32.000000
-13,6,62,1635111146.0,32.000000
-13,6,62,1635111146.0,32.000000
-14,6,62,1635111146.0,32.000000
-14,6,62,1635111146.0,32.000000
-13,6,62,1635111146.0,32.000000
-13,6,62,1635111146.0,32.000000
-14,6,62,1635111146.0,32.000000
-14,6,62,1635111146.0,32.000000
-14,6,62,1635111146.0,32.000000
-14,6,62,1635111146.0,32.000000
-14,6,63,1635111146.0,32.000000
-15,6,62,1635111146.0,32.000000
-14,6,62,1635111146.0,32.000000
-14,6,62,1635111146.0,32.000000
-14,6,62,1635111146.0,32.000000
-14,6,62,1635111146.0,32.000000
-15,6,62,1635111146.0,32.000000
-14,6,62,1635111146.0,32.000000
-14,6,62,1635111146.0,32.000000
-14,6,62,1635111146.0,32.000000
-14,6,62,1635111146.0,32.000000
-14,6,62,1635111146.0,32.000000
-14,6,62,1635111146.0,32.000000
-14,6,61,1635111146.0,32.000000
-14,5,62,1635111146.0,32.000000
-13,5,62,1635111146.0,32.000000
-15,5,64,1635111146.0,32.000000
-15,6,63,1635111146.0,32.000000
-15,6,61,1635111146.0,32.000000
-14,5,62,1635111146.0,32.000000
-14,5,64,1635111146.0,32.000000
-13,6,62,1635111146.0,32.000000
-15,4,61,1635111146.0,32.000000
-14,5,62,1635111146.0,32.000000
-14,5,62,1635111146.0,32.000000
-13,6,63,1635111146.0,32.000000
-13,6,60,1635111146.0,32.000000
-14,5,62,1635111146.0,32.000000
-15,6,60,1635111146.0,32.000000
-14,5,61,1635111146.0,32.000000
-7,6,61,1635111146.0,32.000000
-14,6,64,1635111146.0,32.000000
-12,4,62,1635111146.0,32.000000
-17,6,65,1635111146.0,32.000000
-22,4,65,1635111146.0,32.000000
-11,5,61,1635111146.0,32.000000
-14,4,60,1635111146.0,32.000000
-15,5,61,1635111146.0,32.000000
-15,6,60,1635111146.0,32.000000
-14,7,57,1635111146.0,32.000000
-18,6,58,1635111146.0,32.000000
-12,5,65,1635111146.0,32.000000
-14,5,63,1635111146.0,32.000000
-16,6,65,1635111146.0,32.000000
-17,7,64,1635111146.0,32.000000
-11,5,63,1635111146.0,32.000000
-13,4,63,1635111146.0,32.000000
-14,5,61,1635111146.0,32.000000
-14,5,61,1635111146.0,32.000000
-15,5,63,1635111146.0,32.000000
-13,5,62,1635111146.0,32.000000
-14,5,62,1635111146.0,32.000000
-14,5,62,1635111146.0,32.000000
-14,5,62,1635111146.0,32.000000
-13,5,62,1635111146.0,32.000000
-14,5,62,1635111146.0,32.000000
-14,5,62,1635111146.0,32.000000
-14,5,62,1635111146.0,32.000000
-14,5,62,1635111146.0,32.000000
-14,5,62,1635111146.0,32.000000
-14,5,62,1635111146.0,32.000000
-14,5,62,1635111146.0,32.000000
-14,6,62,1635111146.0,32.000000
-14,6,62,1635111146.0,32.000000
-14,6,62,1635111146.0,32.000000
-14,6,62,1635111146.0,32.000000
-14,5,62,1635111146.0,32.000000
-14,6,62,1635111146.0,32.000000
-14,5,63,1635111146.0,32.000000
-14,6,62,1635111146.0,32.000000
-14,6,62,1635111146.0,32.000000
-14,6,62,1635111146.0,32.000000
-14,6,62,1635111146.0,32.000000
-14,6,62,1635111146.0,32.000000
-14,5,63,1635111146.0,32.000000
-14,6,62,1635111146.0,32.000000
-14,6,62,1635111146.0,32.000000
-15,6,61,1635111146.0,32.000000
-14,6,62,1635111146.0,32.000000
-14,5,63,1635111146.0,32.000000
-14,6,62,1635111146.0,32.000000
-15,6,62,1635111146.0,32.000000
-15,6,62,1635111146.0,32.000000
-14,5,62,1635111146.0,32.000000
-13,5,62,1635111146.0,32.000000
-16,6,61,1635111146.0,32.000000
-13,5,63,1635111146.0,32.000000
-15,6,62,1635111146.0,32.000000
-14,5,63,1635111146.0,32.000000
-14,6,62,1635111146.0,32.000000
-16,6,62,1635111146.0,32.000000
-14,5,62,1635111146.0,32.000000
-13,5,62,1635111146.0,32.000000
-14,5,62,1635111146.0,32.000000
-14,6,62,1635111146.0,32.000000
-15,5,62,1635111146.0,32.000000
-14,6,62,1635111146.0,32.000000
-14,5,62,1635111146.0,32.000000
-14,5,62,1635111146.0,32.000000
-14,5,63,1635111146.0,32.000000
-13,5,62,1635111146.0,32.000000
-16,5,63,1635111146.0,32.000000
-17,6,63,1635111146.0,32.000000
-18,5,63,1635111146.0,32.000000
-16,6,62,1635111146.0,32.000000
-16,5,60,1635111146.0,32.000000
-19,4,61,1635111146.0,32.000000
-16,4,62,1635111146.0,32.000000
-16,5,60,1635111146.0,32.000000
-17,5,60,1635111146.0,32.000000
-18,6,59,1635111146.0,32.000000
-18,7,58,1635111146.0,32.000000
-17,5,61,1635111146.0,32.000000
-19,3,64,1635111146.0,32.000000
-22,3,63,1635111146.0,32.000000
-17,4,63,1635111146.0,32.000000
-21,6,61,1635111146.0,32.000000
-19,5,61,1635111146.0,32.000000
-18,4,62,1635111146.0,32.000000
-17,5,61,1635111146.0,32.000000
-16,4,62,1635111146.0,32.000000
-17,4,63,1635111146.0,32.000000
-17,5,60,1635111146.0,32.000000
-18,4,62,1635111146.0,32.000000
-19,5,61,1635111146.0,32.000000
-18,4,61,1635111146.0,32.000000
-18,5,61,1635111146.0,32.000000
-18,5,61,1635111146.0,32.000000
-17,5,62,1635111146.0,32.000000
-17,5,62,1635111146.0,32.000000
-17,5,62,1635111146.0,32.000000
-18,5,61,1635111146.0,32.000000
-18,5,62,1635111146.0,32.000000
-17,5,61,1635111146.0,32.000000
-19,5,61,1635111146.0,32.000000
-18,5,61,1635111146.0,32.000000
-17,5,62,1635111146.0,32.000000
-17,5,61,1635111146.0,32.000000
-18,5,61,1635111146.0,32.000000
-17,5,62,1635111146.0,32.000000
-17,5,61,1635111146.0,32.000000
-18,5,62,1635111146.0,32.000000
-18,5,62,1635111146.0,32.000000
-18,5,61,1635111146.0,32.000000
-18,5,61,1635111146.0,32.000000
-18,5,62,1635111146.0,32.000000
-18,5,61,1635111146.0,32.000000
-18,5,61,1635111146.0,32.000000
-17,5,62,1635111146.0,32.000000
-18,5,61,1635111146.0,32.000000
-18,5,61,1635111146.0,32.000000
-17,5,61,1635111146.0,32.000000
-18,5,61,1635111146.0,32.000000
-18,5,62,1635111146.0,32.000000
-17,5,61,1635111146.0,32.000000
-18,5,62,1635111146.0,32.000000
-19,5,63,1635111146.0,32.000000
-18,5,64,1635111146.0,32.000000
-19,5,63,1635111146.0,32.000000
-18,6,61,1635111146.0,32.000000
-17,6,61,1635111146.0,32.000000
-14,6,61,1635111146.0,32.000000
-9,7,63,1635111146.0,32.000000
-9,5,61,1635111146.0,32.000000
-11,5,61,1635111146.0,32.000000
-11,6,59,1635111146.0,32.000000
-6,6,60,1635111146.0,32.000000
-8,6,64,1635111146.0,32.000000
-10,6,61,1635111146.0,32.000000
-13,6,64,1635111146.0,32.000000
-13,6,63,1635111146.0,32.000000
-11,6,65,1635111146.0,32.000000
-11,5,62,1635111146.0,32.000000
-11,5,62,1635111146.0,32.000000
-12,6,63,1635111146.0,32.000000
-12,6,62,1635111146.0,32.000000
-12,5,62,1635111146.0,32.000000
-12,6,63,1635111146.0,32.000000
-12,6,63,1635111146.0,32.000000
-12,6,62,1635111146.0,32.000000
-12,6,62,1635111146.0,32.000000
-13,6,63,1635111146.0,32.000000
-13,6,63,1635111146.0,32.000000
-14,6,62,1635111146.0,32.000000
-13,6,62,1635111146.0,32.000000
-12,6,62,1635111146.0,32.000000
-14,6,63,1635111146.0,32.000000
-13,6,62,1635111146.0,32.000000
-14,6,62,1635111146.0,32.000000
-13,6,62,1635111146.0,32.000000
-13,6,62,1635111146.0,32.000000
-13,6,62,1635111146.0,32.000000
-13,6,62,1635111146.0,32.000000
-13,6,62,1635111146.0,32.000000
-13,6,62,1635111146.0,32.000000
-13,6,62,1635111146.0,32.000000
-13,6,62,1635111146.0,32.000000
-13,6,62,1635111146.0,32.000000
-13,6,62,1635111146.0,32.000000
-13,6,62,1635111146.0,32.000000
-13,6,63,1635111146.0,32.000000
-13,6,62,1635111146.0,32.000000
-13,6,63,1635111146.0,32.000000
-13,6,62,1635111146.0,32.000000
-13,6,62,1635111146.0,32.000000
-13,6,62,1635111146.0,32.000000
-13,6,62,1635111146.0,32.000000
-13,6,62,1635111146.0,32.000000
-13,6,62,1635111146.0,32.000000
-13,6,62,1635111146.0,32.000000
-14,7,62,1635111146.0,32.000000
-14,6,62,1635111146.0,32.000000
-12,6,63,1635111146.0,32.000000
-10,5,63,1635111146.0,32.000000
-16,6,62,1635111146.0,32.000000
-12,6,62,1635111146.0,32.000000
-14,6,62,1635111146.0,32.000000
-13,6,62,1635111146.0,32.000000
-12,6,63,1635111146.0,32.000000
-12,4,63,1635111146.0,32.000000
-20,7,60,1635111146.0,32.000000
-15,6,62,1635111146.0,32.000000
-17,4,60,1635111146.0,32.000000
-17,5,61,1635111146.0,32.000000
-18,5,62,1635111146.0,32.000000
-18,5,60,1635111146.0,32.000000
-19,6,58,1635111146.0,32.000000
-13,6,61,1635111146.0,32.000000
-15,5,63,1635111146.0,32.000000
-18,5,64,1635111146.0,32.000000
-18,6,63,1635111146.0,32.000000
-18,5,62,1635111146.0,32.000000
-17,5,61,1635111146.0,32.000000
-16,5,62,1635111146.0,32.000000
-16,5,62,1635111146.0,32.000000
-16,5,63,1635111146.0,32.000000
-16,5,62,1635111146.0,32.000000
-16,5,61,1635111146.0,32.000000
-16,5,62,1635111146.0,32.000000
-16,6,61,1635111146.0,32.000000
-15,5,62,1635111146.0,32.000000
-15,5,62,1635111146.0,32.000000
-15,5,62,1635111146.0,32.000000
-15,6,62,1635111146.0,32.000000
-16,5,62,1635111146.0,32.000000
-16,5,62,1635111146.0,32.000000
-16,5,62,1635111146.0,32.000000
-15,5,62,1635111146.0,32.000000
-16,5,62,1635111146.0,32.000000
-15,6,62,1635111146.0,32.000000
-15,5,62,1635111146.0,32.000000
-15,5,62,1635111146.0,32.000000
-16,5,62,1635111146.0,32.000000
-15,5,62,1635111146.0,32.000000
-15,5,62,1635111146.0,32.000000
-15,5,62,1635111146.0,32.000000
-16,5,62,1635111146.0,32.000000
-15,6,62,1635111146.0,32.000000
-15,5,62,1635111146.0,32.000000
-16,5,62,1635111146.0,32.000000
-15,5,62,1635111146.0,32.000000
-15,5,62,1635111146.0,32.000000
-16,5,62,1635111146.0,32.000000
-15,6,62,1635111146.0,32.000000
-16,5,62,1635111146.0,32.000000
-16,5,62,1635111146.0,32.000000
-15,5,62,1635111146.0,32.000000
-15,5,62,1635111146.0,32.000000
-15,5,62,1635111146.0,32.000000
-15,5,62,1635111146.0,32.000000
-15,5,62,1635111146.0,32.000000
-15,5,62,1635111146.0,32.000000
-15,5,62,1635111146.0,32.000000
-16,5,62,1635111146.0,32.000000
-16,5,62,1635111146.0,32.000000
-16,5,61,1635111146.0,32.000000
-16,6,62,1635111146.0,32.000000
-14,5,61,1635111146.0,32.000000
-15,5,62,1635111146.0,32.000000
-16,5,63,1635111146.0,32.000000
-14,6,62,1635111146.0,32.000000
-15,5,62,1635111146.0,32.000000
-15,5,62,1635111146.0,32.000000
-17,5,63,1635111146.0,32.000000
-16,5,62,1635111146.0,32.000000
-13,5,65,1635111146.0,32.000000
-18,5,63,1635111146.0,32.000000
-17,6,61,1635111146.0,32.000000
-17,6,60,1635111146.0,32.000000
-17,6,62,1635111146.0,32.000000
-15,6,60,1635111146.0,32.000000
-16,6,59,1635111146.0,32.000000
-16,6,57,1635111146.0,32.000000
-14,6,62,1635111146.0,32.000000
-11,5,68,1635111146.0,32.000000
-14,5,63,1635111146.0,32.000000
-16,5,64,1635111146.0,32.000000
-14,6,63,1635111146.0,32.000000
-13,6,64,1635111146.0,32.000000
-13,5,62,1635111146.0,32.000000
-14,4,62,1635111146.0,32.000000
-14,5,62,1635111146.0,32.000000
-13,6,62,1635111146.0,32.000000
-14,5,62,1635111146.0,32.000000
-14,5,64,1635111146.0,32.000000
-14,6,61,1635111146.0,32.000000
-14,5,62,1635111146.0,32.000000
-13,5,62,1635111146.0,32.000000
-14,5,63,1635111146.0,32.000000
-14,6,62,1635111146.0,32.000000
-15,6,62,1635111146.0,32.000000
-14,6,62,1635111146.0,32.000000
-14,6,62,1635111146.0,32.000000
-14,6,62,1635111146.0,32.000000
-15,5,62,1635111146.0,32.000000
-15,6,62,1635111146.0,32.000000
-14,6,62,1635111146.0,32.000000
-14,6,62,1635111146.0,32.000000
-15,6,62,1635111146.0,32.000000
-14,5,62,1635111146.0,32.000000
-15,6,62,1635111146.0,32.000000
-14,6,62,1635111146.0,32.000000
-14,6,62,1635111146.0,32.000000
-14,5,62,1635111146.0,32.000000
-14,6,62,1635111146.0,32.000000
-14,5,62,1635111146.0,32.000000
-14,6,62,1635111146.0,32.000000
-14,6,62,1635111146.0,32.000000
-14,6,62,1635111146.0,32.000000
-14,6,62,1635111146.0,32.000000
-14,6,62,1635111146.0,32.000000
-14,6,62,1635111146.0,32.000000
-14,6,62,1635111146.0,32.000000
-14,6,61,1635111146.0,32.000000
-14,6,63,1635111146.0,32.000000
-14,6,62,1635111146.0,32.000000
-14,6,62,1635111146.0,32.000000
-14,6,62,1635111146.0,32.000000
-14,6,62,1635111146.0,32.000000
-14,6,62,1635111146.0,32.000000
-14,6,62,1635111146.0,32.000000
-15,6,61,1635111146.0,32.000000
-15,5,64,1635111146.0,32.000000
-13,6,62,1635111146.0,32.000000
-14,6,62,1635111146.0,32.000000
-15,5,63,1635111146.0,32.000000
-14,5,62,1635111146.0,32.000000
-16,5,64,1635111146.0,32.000000
-14,6,62,1635111146.0,32.000000
-15,6,63,1635111146.0,32.000000
-16,6,61,1635111146.0,32.000000
-11,4,61,1635111146.0,32.000000
-10,5,61,1635111146.0,32.000000
-13,6,59,1635111146.0,32.000000
-14,8,56,1635111146.0,32.000000
-11,6,59,1635111146.0,32.000000
-13,4,66,1635111146.0,32.000000
-15,5,64,1635111146.0,32.000000
-16,7,62,1635111146.0,32.000000
-15,6,63,1635111146.0,32.000000
-12,5,63,1635111146.0,32.000000
-13,5,62,1635111146.0,32.000000
-13,5,62,1635111146.0,32.000000
-14,5,63,1635111146.0,32.000000
-14,5,63,1635111146.0,32.000000
-13,6,62,1635111146.0,32.000000
-13,6,62,1635111146.0,32.000000
-13,5,62,1635111146.0,32.000000
-13,5,62,1635111146.0,32.000000
-14,5,62,1635111146.0,32.000000
-14,5,62,1635111146.0,32.000000
-14,6,62,1635111146.0,32.000000
-14,6,62,1635111146.0,32.000000
-14,5,62,1635111146.0,32.000000
-14,5,62,1635111146.0,32.000000
-13,6,62,1635111146.0,32.000000
-14,6,62,1635111146.0,32.000000
-14,6,62,1635111146.0,32.000000
-14,6,62,1635111146.0,32.000000
-14,5,62,1635111146.0,32.000000
-13,6,62,1635111146.0,32.000000
-14,6,62,1635111146.0,32.000000
-14,5,62,1635111146.0,32.000000
-14,6,62,1635111146.0,32.000000
-14,6,62,1635111146.0,32.000000
-14,6,62,1635111146.0,32.000000
-14,6,62,1635111146.0,32.000000
-14,6,62,1635111146.0,32.000000
-14,6,62,1635111146.0,32.000000
-14,6,62,1635111146.0,32.000000
-14,6,62,1635111146.0,32.000000
-14,6,62,1635111146.0,32.000000
-14,6,62,1635111146.0,32.000000
-14,6,62,1635111146.0,32.000000
-14,5,62,1635111146.0,32.000000
-13,6,62,1635111146.0,32.000000
-14,6,62,1635111146.0,32.000000
-14,6,62,1635111146.0,32.000000
-13,6,62,1635111146.0,32.000000
-14,5,62,1635111146.0,32.000000
-14,5,63,1635111146.0,32.000000
-14,5,62,1635111146.0,32.000000
-14,6,62,1635111146.0,32.000000
-14,6,62,1635111146.0,32.000000
-14,6,62,1635111146.0,32.000000
-14,5,63,1635111146.0,32.000000
-14,6,62,1635111146.0,32.000000
-14,6,63,1635111146.0,32.000000
-14,6,63,1635111146.0,32.000000
-13,6,62,1635111146.0,32.000000
-14,5,63,1635111146.0,32.000000
-13,6,62,1635111146.0,32.000000
-14,6,61,1635111146.0,32.000000
-12,5,62,1635111146.0,32.000000
-13,6,61,1635111146.0,32.000000
-13,7,59,1635111146.0,32.000000
-12,5,63,1635111146.0,32.000000
-13,5,64,1635111146.0,32.000000
-15,5,63,1635111146.0,32.000000
-14,5,63,1635111146.0,32.000000
-14,5,63,1635111146.0,32.000000
-13,5,63,1635111146.0,32.000000
-13,5,62,1635111146.0,32.000000
-14,5,62,1635111146.0,32.000000
-13,5,62,1635111146.0,32.000000
-14,5,62,1635111146.0,32.000000
-14,5,62,1635111146.0,32.000000
-14,6,62,1635111146.0,32.000000
-14,5,62,1635111146.0,32.000000
-13,5,62,1635111146.0,32.000000
-13,5,62,1635111146.0,32.000000
-14,6,62,1635111146.0,32.000000
-14,6,62,1635111146.0,32.000000
-14,5,62,1635111146.0,32.000000
-14,5,62,1635111146.0,32.000000
-14,6,62,1635111146.0,32.000000
-13,6,62,1635111146.0,32.000000
-14,6,62,1635111146.0,32.000000
-14,6,62,1635111146.0,32.000000
-14,5,62,1635111146.0,32.000000
-14,5,62,1635111146.0,32.000000
-14,5,62,1635111146.0,32.000000
-14,6,62,1635111146.0,32.000000
-14,6,62,1635111146.0,32.000000
-13,6,62,1635111146.0,32.000000
-14,6,61,1635111146.0,32.000000
-14,6,62,1635111146.0,32.000000
-13,6,62,1635111146.0,32.000000
-14,5,62,1635111146.0,32.000000
-15,5,62,1635111146.0,32.000000
-14,5,62,1635111146.0,32.000000
-14,5,62,1635111146.0,32.000000
-16,5,62,1635111146.0,32.000000
-16,5,62,1635111146.0,32.000000
-16,5,61,1635111146.0,32.000000
-18,5,62,1635111146.0,32.000000
-18,6,61,1635111146.0,32.000000
-17,5,62,1635111146.0,32.000000
-17,5,62,1635111146.0,32.000000
-16,5,62,1635111146.0,32.000000
-16,5,63,1635111146.0,32.000000
-18,5,61,1635111146.0,32.000000
-18,6,61,1635111146.0,32.000000
-18,7,61,1635111146.0,32.000000
-17,6,62,1635111146.0,32.000000
-16,5,62,1635111146.0,32.000000
-17,6,61,1635111146.0,32.000000
-16,5,62,1635111146.0,32.000000
-16,6,62,1635111146.0,32.000000
-16,6,61,1635111146.0,32.000000
-16,5,62,1635111146.0,32.000000
-16,5,62,1635111146.0,32.000000
-16,6,62,1635111146.0,32.000000
-16,6,62,1635111146.0,32.000000
-16,6,62,1635111146.0,32.000000
-16,6,62,1635111146.0,32.000000
-16,5,62,1635111146.0,32.000000
-16,5,62,1635111146.0,32.000000
-16,6,62,1635111146.0,32.000000
-16,6,61,1635111146.0,32.000000
-17,5,62,1635111146.0,32.000000
-15,5,62,1635111146.0,32.000000
-16,6,62,1635111146.0,32.000000
-16,6,61,1635111146.0,32.000000
-16,5,62,1635111146.0,32.000000
-16,5,62,1635111146.0,32.000000
-16,6,61,1635111146.0,32.000000
-16,5,62,1635111146.0,32.000000
-16,5,62,1635111146.0,32.000000
-16,5,62,1635111146.0,32.000000
-16,5,62,1635111146.0,32.000000
-16,5,62,1635111146.0,32.000000
-16,5,62,1635111146.0,32.000000
-17,6,61,1635111146.0,32.000000
-18,6,61,1635111146.0,32.000000
-17,6,62,1635111146.0,32.000000
-16,6,62,1635111146.0,32.000000
-17,5,61,1635111146.0,32.000000
-17,5,61,1635111146.0,32.000000
-17,5,61,1635111146.0,32.000000
-17,5,61,1635111146.0,32.000000
-18,5,61,1635111146.0,32.000000
-18,5,62,1635111146.0,32.000000
-17,5,62,1635111146.0,32.000000
-19,5,61,1635111146.0,32.000000
-18,5,62,1635111146.0,32.000000
-19,5,61,1635111146.0,32.000000
-19,5,62,1635111146.0,32.000000
-18,4,62,1635111146.0,32.000000
-20,4,61,1635111146.0,32.000000
-20,4,61,1635111146.0,32.000000
-19,4,61,1635111146.0,32.000000
-18,5,62,1635111146.0,32.000000
-15,4,62,1635111146.0,32.000000
-21,4,61,1635111146.0,32.000000
-22,5,60,1635111146.0,32.000000
-20,4,61,1635111146.0,32.000000
-20,4,61,1635111146.0,32.000000
-20,4,61,1635111146.0,32.000000
-20,4,61,1635111146.0,32.000000
-20,4,61,1635111146.0,32.000000
-20,4,61,1635111146.0,32.000000
-20,5,61,1635111146.0,32.000000
-21,5,61,1635111146.0,32.000000
-20,5,61,1635111146.0,32.000000
-21,5,61,1635111146.0,32.000000
-21,5,61,1635111146.0,32.000000
-21,5,60,1635111146.0,32.000000
-21,5,61,1635111146.0,32.000000
-20,5,60,1635111146.0,32.000000
-20,5,61,1635111146.0,32.000000
-20,5,61,1635111146.0,32.000000
-20,5,61,1635111146.0,32.000000
-20,5,61,1635111146.0,32.000000
-20,5,61,1635111146.0,32.000000
-21,5,61,1635111146.0,32.000000
-21,5,61,1635111146.0,32.000000
-20,5,61,1635111146.0,32.000000
-20,5,61,1635111146.0,32.000000
-20,5,61,1635111146.0,32.000000
-20,5,60,1635111146.0,32.000000
-20,5,61,1635111146.0,32.000000
-20,5,61,1635111146.0,32.000000
-20,5,61,1635111146.0,32.000000
-20,4,61,1635111146.0,32.000000
-20,5,61,1635111146.0,32.000000
-20,5,61,1635111146.0,32.000000
-20,5,61,1635111146.0,32.000000
-20,4,61,1635111146.0,32.000000
-19,4,61,1635111146.0,32.000000
-20,5,61,1635111146.0,32.000000
-20,4,61,1635111146.0,32.000000
-20,4,61,1635111146.0,32.000000
-20,4,61,1635111146.0,32.000000
-19,5,61,1635111146.0,32.000000
-20,5,61,1635111146.0,32.000000
-20,5,61,1635111146.0,32.000000
-20,5,61,1635111146.0,32.000000
-20,5,61,1635111146.0,32.000000
-20,5,61,1635111146.0,32.000000
-20,5,61,1635111146.0,32.000000
-20,5,61,1635111146.0,32.000000
-20,5,61,1635111146.0,32.000000
-20,5,61,1635111146.0,32.000000
-20,5,61,1635111146.0,32.000000
-20,5,61,1635111146.0,32.000000
-20,5,61,1635111146.0,32.000000
-20,5,61,1635111146.0,32.000000
-20,5,61,1635111146.0,32.000000
-20,5,61,1635111146.0,32.000000
-20,5,61,1635111146.0,32.000000
-20,5,61,1635111146.0,32.000000
-20,5,61,1635111146.0,32.000000
-20,5,61,1635111146.0,32.000000
-20,5,61,1635111146.0,32.000000
-20,5,61,1635111146.0,32.000000
-20,5,61,1635111146.0,32.000000
-20,5,61,1635111146.0,32.000000
-20,5,61,1635111146.0,32.000000
-20,5,61,1635111146.0,32.000000
-20,5,61,1635111146.0,32.000000
-20,5,61,1635111146.0,32.000000
-20,5,61,1635111146.0,32.000000
-20,5,61,1635111146.0,32.000000
-20,5,61,1635111146.0,32.000000
-20,5,61,1635111146.0,32.000000
-20,5,61,1635111146.0,32.000000
-20,5,61,1635111146.0,32.000000
-20,5,61,1635111146.0,32.000000
-20,5,61,1635111146.0,32.000000
-20,5,61,1635111146.0,32.000000
-20,5,61,1635111146.0,32.000000
-20,5,61,1635111146.0,32.000000
-20,5,61,1635111146.0,32.000000
-20,5,61,1635111146.0,32.000000
-20,5,61,1635111146.0,32.000000
-20,5,61,1635111146.0,32.000000
-20,5,61,1635111146.0,32.000000
-20,5,61,1635111146.0,32.000000
-20,5,61,1635111146.0,32.000000
-20,5,61,1635111146.0,32.000000
-20,5,61,1635111146.0,32.000000
-20,5,61,1635111146.0,32.000000
-20,5,61,1635111146.0,32.000000
-20,5,61,1635111146.0,32.000000
-20,5,61,1635111146.0,32.000000
-20,5,61,1635111146.0,32.000000
-19,5,61,1635111146.0,32.000000
-20,5,61,1635111146.0,32.000000
-20,5,61,1635111146.0,32.000000
-20,5,61,1635111146.0,32.000000
-19,5,61,1635111146.0,32.000000
-19,5,61,1635111146.0,32.000000
-20,5,61,1635111146.0,32.000000
-19,5,61,1635111146.0,32.000000
-20,5,61,1635111146.0,32.000000
-20,5,61,1635111146.0,32.000000
-20,5,61,1635111146.0,32.000000
-20,5,61,1635111146.0,32.000000
-20,5,61,1635111146.0,32.000000
-19,5,61,1635111146.0,32.000000
-20,5,61,1635111146.0,32.000000
-20,5,61,1635111146.0,32.000000
-20,5,61,1635111146.0,32.000000
-20,5,61,1635111146.0,32.000000
-19,5,61,1635111146.0,32.000000
-20,5,60,1635111146.0,32.000000
-20,5,61,1635111146.0,32.000000
-19,5,61,1635111146.0,32.000000
-19,5,61,1635111146.0,32.000000
-20,5,61,1635111146.0,32.000000
-19,5,61,1635111146.0,32.000000
-19,5,61,1635111146.0,32.000000
-20,5,61,1635111146.0,32.000000
-19,5,61,1635111146.0,32.000000
-20,5,61,1635111146.0,32.000000
-20,5,61,1635111146.0,32.000000
-19,5,61,1635111146.0,32.000000
-20,5,61,1635111146.0,32.000000
-19,5,61,1635111146.0,32.000000
-20,5,61,1635111146.0,32.000000
-20,5,61,1635111146.0,32.000000
-20,5,61,1635111146.0,32.000000
-20,5,61,1635111146.0,32.000000
-19,5,61,1635111146.0,32.000000
-20,5,61,1635111146.0,32.000000
-19,5,61,1635111146.0,32.000000
-20,5,61,1635111146.0,32.000000
-20,5,61,1635111146.0,32.000000
-20,5,61,1635111146.0,32.000000
-19,5,61,1635111146.0,32.000000
-20,5,61,1635111146.0,32.000000
-20,5,61,1635111146.0,32.000000
-20,5,61,1635111146.0,32.000000
-20,5,61,1635111146.0,32.000000
-19,5,61,1635111146.0,32.000000
-19,5,61,1635111146.0,32.000000
-19,5,61,1635111146.0,32.000000
-19,5,61,1635111146.0,32.000000
-19,5,61,1635111146.0,32.000000
-19,5,61,1635111146.0,32.000000
-20,5,61,1635111146.0,32.000000
-20,5,61,1635111146.0,32.000000
-20,5,61,1635111146.0,32.000000
-20,5,61,1635111146.0,32.000000
-19,5,61,1635111146.0,32.000000
-19,5,61,1635111146.0,32.000000
-20,5,61,1635111146.0,32.000000
-19,5,61,1635111146.0,32.000000
-20,5,61,1635111146.0,32.000000
-19,5,61,1635111146.0,32.000000
-20,5,61,1635111146.0,32.000000
-19,5,61,1635111146.0,32.000000
-19,5,61,1635111146.0,32.000000
-19,5,61,1635111146.0,32.000000
-20,5,61,1635111146.0,32.000000
-19,5,61,1635111146.0,32.000000
-19,5,61,1635111146.0,32.000000
-19,5,61,1635111146.0,32.000000
-19,5,61,1635111146.0,32.000000
-19,5,61,1635111146.0,32.000000
-20,5,61,1635111146.0,32.000000
-20,5,61,1635111146.0,32.000000
-19,5,61,1635111146.0,32.000000
-19,5,61,1635111146.0,32.000000
-20,5,61,1635111146.0,32.000000
-19,5,61,1635111146.0,32.000000
-20,5,61,1635111146.0,32.000000
-20,5,61,1635111146.0,32.000000
-20,5,61,1635111146.0,32.000000
-20,5,61,1635111146.0,32.000000
-20,5,61,1635111146.0,32.000000
-20,5,61,1635111146.0,32.000000
-20,5,61,1635111146.0,32.000000
-20,5,61,1635111146.0,32.000000
-19,5,61,1635111146.0,32.000000
-20,5,61,1635111146.0,32.000000
-20,5,61,1635111146.0,32.000000
-20,5,61,1635111146.0,32.000000
-20,5,61,1635111146.0,32.000000
-19,5,61,1635111146.0,32.000000
-20,5,61,1635111146.0,32.000000
-20,5,61,1635111146.0,32.000000
-20,5,61,1635111146.0,32.000000
-20,5,61,1635111146.0,32.000000
-19,5,61,1635111146.0,32.000000
-20,5,61,1635111146.0,32.000000
-19,5,61,1635111146.0,32.000000
-20,5,61,1635111146.0,32.000000
-19,5,61,1635111146.0,32.000000
-19,5,61,1635111146.0,32.000000
-19,5,61,1635111146.0,32.000000
-20,5,61,1635111146.0,32.000000
-19,5,61,1635111146.0,32.000000
-20,5,61,1635111146.0,32.000000
-20,5,61,1635111146.0,32.000000
-19,5,61,1635111146.0,32.000000
-19,5,61,1635111146.0,32.000000
-20,5,61,1635111146.0,32.000000
-19,5,61,1635111146.0,32.000000
-19,5,61,1635111146.0,32.000000
-19,5,61,1635111146.0,32.000000
-20,5,61,1635111146.0,32.000000
-20,5,61,1635111146.0,32.000000
-21,5,61,1635111146.0,32.000000
-18,5,61,1635111146.0,32.000000
-18,5,61,1635111146.0,32.000000
-19,5,62,1635111146.0,32.000000
-19,5,60,1635111146.0,32.000000
-19,5,62,1635111146.0,32.000000
-18,5,61,1635111146.0,32.000000
-18,5,62,1635111146.0,32.000000
-18,5,62,1635111146.0,32.000000
-19,5,61,1635111146.0,32.000000
-18,5,61,1635111146.0,32.000000
-18,5,61,1635111146.0,32.000000
-18,6,60,1635111146.0,32.000000
-18,6,58,1635111146.0,32.000000
-17,5,62,1635111146.0,32.000000
-18,5,64,1635111146.0,32.000000
-18,5,61,1635111146.0,32.000000
-18,5,62,1635111146.0,32.000000
-17,5,62,1635111146.0,32.000000
-17,5,61,1635111146.0,32.000000
-17,5,62,1635111146.0,32.000000
-17,5,62,1635111146.0,32.000000
-18,5,62,1635111146.0,32.000000
-18,5,62,1635111146.0,32.000000
-17,5,62,1635111146.0,32.000000
-18,5,62,1635111146.0,32.000000
-18,5,61,1635111146.0,32.000000
-18,5,61,1635111146.0,32.000000
-18,5,61,1635111146.0,32.000000
-18,5,61,1635111146.0,32.000000
-18,5,61,1635111146.0,32.000000
-18,5,62,1635111146.0,32.000000
-18,5,61,1635111146.0,32.000000
-18,5,61,1635111146.0,32.000000
-18,5,61,1635111146.0,32.000000
-18,5,61,1635111146.0,32.000000
-18,5,61,1635111146.0,32.000000
-18,5,61,1635111146.0,32.000000
-18,5,61,1635111146.0,32.000000
-18,5,61,1635111146.0,32.000000
-18,5,61,1635111146.0,32.000000
-18,5,61,1635111146.0,32.000000
-18,5,62,1635111146.0,32.000000
-18,5,61,1635111146.0,32.000000
-18,5,61,1635111146.0,32.000000
-18,5,61,1635111146.0,32.000000
-18,5,62,1635111146.0,32.000000
-18,5,61,1635111146.0,32.000000
-18,5,62,1635111146.0,32.000000
-18,5,61,1635111146.0,32.000000
-18,5,61,1635111146.0,32.000000
-18,5,61,1635111146.0,32.000000
-18,5,61,1635111146.0,32.000000
-18,5,61,1635111146.0,32.000000
-18,5,61,1635111146.0,32.000000
-18,5,61,1635111146.0,32.000000
-18,5,61,1635111146.0,32.000000
-18,5,61,1635111146.0,32.000000
-18,5,61,1635111146.0,32.000000
-18,5,61,1635111146.0,32.000000
-18,5,61,1635111146.0,32.000000
-18,5,61,1635111146.0,32.000000
-18,5,61,1635111146.0,32.000000
-18,5,61,1635111146.0,32.000000
-18,5,61,1635111146.0,32.000000
-18,5,61,1635111146.0,32.000000
-18,5,61,1635111146.0,32.000000
-18,5,61,1635111146.0,32.000000
-18,5,61,1635111146.0,32.000000
-18,5,62,1635111146.0,32.000000
-18,5,61,1635111146.0,32.000000
-18,5,61,1635111146.0,32.000000
-18,5,61,1635111146.0,32.000000
-18,5,61,1635111146.0,32.000000
-18,5,61,1635111146.0,32.000000
-18,5,61,1635111146.0,32.000000
-18,5,61,1635111146.0,32.000000
-18,5,62,1635111146.0,32.000000
-18,5,62,1635111146.0,32.000000
-18,5,61,1635111146.0,32.000000
-18,5,61,1635111146.0,32.000000
-18,5,62,1635111146.0,32.000000
-18,5,61,1635111146.0,32.000000
-18,5,61,1635111146.0,32.000000
-18,5,62,1635111146.0,32.000000
-18,5,61,1635111146.0,32.000000
-18,5,61,1635111146.0,32.000000
-18,5,61,1635111146.0,32.000000
-18,5,62,1635111146.0,32.000000
-18,5,61,1635111146.0,32.000000
-18,5,61,1635111146.0,32.000000
-18,5,61,1635111146.0,32.000000
-18,5,61,1635111146.0,32.000000
-18,5,61,1635111146.0,32.000000
-18,5,61,1635111146.0,32.000000
-18,5,61,1635111146.0,32.000000
-18,5,62,1635111146.0,32.000000
-18,5,61,1635111146.0,32.000000
-18,5,61,1635111146.0,32.000000
-18,5,62,1635111146.0,32.000000
-18,5,61,1635111146.0,32.000000
-18,5,61,1635111146.0,32.000000
-18,5,61,1635111146.0,32.000000
-18,5,61,1635111146.0,32.000000
-18,5,61,1635111146.0,32.000000
-18,5,61,1635111146.0,32.000000
-18,5,61,1635111146.0,32.000000
-18,5,61,1635111146.0,32.000000
-18,5,61,1635111146.0,32.000000
-18,5,62,1635111146.0,32.000000
-18,5,61,1635111146.0,32.000000
-18,5,61,1635111146.0,32.000000
-18,5,61,1635111146.0,32.000000
-18,5,61,1635111146.0,32.000000
-18,5,61,1635111146.0,32.000000
-18,5,61,1635111146.0,32.000000
-18,5,61,1635111146.0,32.000000
-18,5,61,1635111146.0,32.000000
-18,5,61,1635111146.0,32.000000
-18,5,61,1635111146.0,32.000000
-18,5,62,1635111146.0,32.000000
-18,5,61,1635111146.0,32.000000
-18,5,61,1635111146.0,32.000000
-18,5,61,1635111146.0,32.000000
-18,5,61,1635111146.0,32.000000
-18,5,61,1635111146.0,32.000000
-18,5,61,1635111146.0,32.000000
