ACC_X,ACC_Y,ACC_Z,start_time_unix,sampling_rate
-61,-2,23,1625340509.0,32.000000
-65,-2,21,1625340509.0,32.000000
-63,0,22,1625340509.0,32.000000
-63,0,22,1625340509.0,32.000000
-60,2,25,1625340509.0,32.000000
-61,0,27,1625340509.0,32.000000
-61,0,25,1625340509.0,32.000000
-62,0,24,1625340509.0,32.000000
-63,-1,24,1625340509.0,32.000000
-62,-1,24,1625340509.0,32.000000
-62,-1,23,1625340509.0,32.000000
-61,0,25,1625340509.0,32.000000
-62,-1,23,1625340509.0,32.000000
-63,-1,23,1625340509.0,32.000000
-62,0,25,1625340509.0,32.000000
-61,0,25,1625340509.0,32.000000
-62,-1,24,1625340509.0,32.000000
-62,-1,24,1625340509.0,32.000000
-62,-1,24,1625340509.0,32.000000
-62,0,24,1625340509.0,32.000000
-62,0,24,1625340509.0,32.000000
-62,0,24,1625340509.0,32.000000
-62,0,24,1625340509.0,32.000000
-62,0,24,1625340509.0,32.000000
-62,0,24,1625340509.0,32.000000
-62,0,24,1625340509.0,32.000000
-62,0,24,1625340509.0,32.000000
-62,0,24,1625340509.0,32.000000
-62,0,24,1625340509.0,32.000000
-62,0,24,1625340509.0,32.000000
-62,0,24,1625340509.0,32.000000
-62,0,24,1625340509.0,32.000000
-62,0,24,1625340509.0,32.000000
-62,0,23,1625340509.0,32.000000
-62,0,23,1625340509.0,32.000000
-62,0,24,1625340509.0,32.000000
-62,0,24,1625340509.0,32.000000
-62,0,24,1625340509.0,32.000000
-62,0,24,1625340509.0,32.000000
-62,0,24,1625340509.0,32.000000
-62,0,24,1625340509.0,32.000000
-62,0,24,1625340509.0,32.000000
-62,0,24,1625340509.0,32.000000
-62,0,24,1625340509.0,32.000000
-62,0,24,1625340509.0,32.000000
-62,1,24,1625340509.0,32.000000
-62,0,24,1625340509.0,32.000000
-62,0,24,1625340509.0,32.000000
-62,0,24,1625340509.0,32.000000
-62,0,24,1625340509.0,32.000000
-62,0,24,1625340509.0,32.000000
-62,0,24,1625340509.0,32.000000
-62,0,24,1625340509.0,32.000000
-62,0,24,1625340509.0,32.000000
-62,0,24,1625340509.0,32.000000
-62,0,24,1625340509.0,32.000000
-62,0,24,1625340509.0,32.000000
-62,0,24,1625340509.0,32.000000
-62,0,24,1625340509.0,32.000000
-62,0,24,1625340509.0,32.000000
-62,0,24,1625340509.0,32.000000
-62,0,24,1625340509.0,32.000000
-62,0,25,1625340509.0,32.000000
-62,0,24,1625340509.0,32.000000
-62,0,24,1625340509.0,32.000000
-62,0,24,1625340509.0,32.000000
-62,0,24,1625340509.0,32.000000
-62,0,24,1625340509.0,32.000000
-62,0,24,1625340509.0,32.000000
-62,0,24,1625340509.0,32.000000
-62,0,24,1625340509.0,32.000000
-62,0,24,1625340509.0,32.000000
-62,0,25,1625340509.0,32.000000
-62,0,24,1625340509.0,32.000000
-62,0,25,1625340509.0,32.000000
-62,0,24,1625340509.0,32.000000
-61,1,25,1625340509.0,32.000000
-62,0,25,1625340509.0,32.000000
-62,0,25,1625340509.0,32.000000
-62,0,24,1625340509.0,32.000000
-61,0,25,1625340509.0,32.000000
-62,0,24,1625340509.0,32.000000
-62,0,25,1625340509.0,32.000000
-62,1,25,1625340509.0,32.000000
-62,1,25,1625340509.0,32.000000
-62,0,25,1625340509.0,32.000000
-62,0,24,1625340509.0,32.000000
-62,0,24,1625340509.0,32.000000
-61,1,25,1625340509.0,32.000000
-62,1,25,1625340509.0,32.000000
-62,0,25,1625340509.0,32.000000
-61,1,25,1625340509.0,32.000000
-61,0,25,1625340509.0,32.000000
-62,0,25,1625340509.0,32.000000
-62,0,24,1625340509.0,32.000000
-61,1,24,1625340509.0,32.000000
-62,0,24,1625340509.0,32.000000
-62,0,24,1625340509.0,32.000000
-62,0,24,1625340509.0,32.000000
-62,0,24,1625340509.0,32.000000
-62,0,24,1625340509.0,32.000000
-62,0,24,1625340509.0,32.000000
-62,0,25,1625340509.0,32.000000
-62,0,25,1625340509.0,32.000000
-62,0,25,1625340509.0,32.000000
-61,0,25,1625340509.0,32.000000
-62,0,25,1625340509.0,32.000000
-61,0,25,1625340509.0,32.000000
-62,0,24,1625340509.0,32.000000
-62,0,25,1625340509.0,32.000000
-61,0,25,1625340509.0,32.000000
-62,0,24,1625340509.0,32.000000
-62,0,25,1625340509.0,32.000000
-62,0,25,1625340509.0,32.000000
-61,0,25,1625340509.0,32.000000
-62,0,25,1625340509.0,32.000000
-61,0,25,1625340509.0,32.000000
-62,0,25,1625340509.0,32.000000
-62,0,25,1625340509.0,32.000000
-61,0,25,1625340509.0,32.000000
-61,0,25,1625340509.0,32.000000
-62,0,25,1625340509.0,32.000000
-62,0,25,1625340509.0,32.000000
-62,0,25,1625340509.0,32.000000
-62,0,25,1625340509.0,32.000000
-62,0,25,1625340509.0,32.000000
-62,1,25,1625340509.0,32.000000
-62,0,25,1625340509.0,32.000000
-61,0,25,1625340509.0,32.000000
-62,0,25,1625340509.0,32.000000
-62,0,25,1625340509.0,32.000000
-62,0,25,1625340509.0,32.000000
-61,0,25,1625340509.0,32.000000
-62,0,25,1625340509.0,32.000000
-62,0,25,1625340509.0,32.000000
-61,0,25,1625340509.0,32.000000
-62,0,25,1625340509.0,32.000000
-61,0,25,1625340509.0,32.000000
-62,0,25,1625340509.0,32.000000
-61,0,24,1625340509.0,32.000000
-62,0,25,1625340509.0,32.000000
-62,0,25,1625340509.0,32.000000
-62,0,25,1625340509.0,32.000000
-61,0,25,1625340509.0,32.000000
-62,0,25,1625340509.0,32.000000
-62,0,25,1625340509.0,32.000000
-62,0,25,1625340509.0,32.000000
-62,0,25,1625340509.0,32.000000
-62,0,25,1625340509.0,32.000000
-62,0,25,1625340509.0,32.000000
-62,0,25,1625340509.0,32.000000
-61,0,25,1625340509.0,32.000000
-62,0,25,1625340509.0,32.000000
-61,0,25,1625340509.0,32.000000
-61,0,25,1625340509.0,32.000000
-62,0,25,1625340509.0,32.000000
-61,1,25,1625340509.0,32.000000
-62,0,25,1625340509.0,32.000000
-62,1,25,1625340509.0,32.000000
-61,0,25,1625340509.0,32.000000
-61,0,25,1625340509.0,32.000000
-61,0,25,1625340509.0,32.000000
-62,0,25,1625340509.0,32.000000
-61,1,25,1625340509.0,32.000000
-62,0,25,1625340509.0,32.000000
-62,0,25,1625340509.0,32.000000
-61,1,25,1625340509.0,32.000000
-62,0,24,1625340509.0,32.000000
-62,1,24,1625340509.0,32.000000
-62,0,24,1625340509.0,32.000000
-62,0,24,1625340509.0,32.000000
-62,0,24,1625340509.0,32.000000
-62,0,24,1625340509.0,32.000000
-62,0,24,1625340509.0,32.000000
-62,0,24,1625340509.0,32.000000
-62,0,24,1625340509.0,32.000000
-62,0,24,1625340509.0,32.000000
-61,0,25,1625340509.0,32.000000
-62,0,25,1625340509.0,32.000000
-62,1,25,1625340509.0,32.000000
-61,0,25,1625340509.0,32.000000
-61,1,25,1625340509.0,32.000000
-61,1,25,1625340509.0,32.000000
-62,1,25,1625340509.0,32.000000
-62,1,25,1625340509.0,32.000000
-62,1,25,1625340509.0,32.000000
-62,1,25,1625340509.0,32.000000
-62,0,25,1625340509.0,32.000000
-62,0,24,1625340509.0,32.000000
-62,0,25,1625340509.0,32.000000
-62,0,24,1625340509.0,32.000000
-62,0,25,1625340509.0,32.000000
-61,0,25,1625340509.0,32.000000
-62,0,25,1625340509.0,32.000000
-62,0,25,1625340509.0,32.000000
-62,0,25,1625340509.0,32.000000
-62,0,24,1625340509.0,32.000000
-62,0,24,1625340509.0,32.000000
-62,0,24,1625340509.0,32.000000
-62,0,24,1625340509.0,32.000000
-61,1,26,1625340509.0,32.000000
-61,0,26,1625340509.0,32.000000
-61,0,26,1625340509.0,32.000000
-62,1,26,1625340509.0,32.000000
-61,0,26,1625340509.0,32.000000
-61,0,25,1625340509.0,32.000000
-61,0,26,1625340509.0,32.000000
-61,0,26,1625340509.0,32.000000
-61,0,25,1625340509.0,32.000000
-61,0,25,1625340509.0,32.000000
-61,0,25,1625340509.0,32.000000
-61,0,26,1625340509.0,32.000000
-61,0,25,1625340509.0,32.000000
-61,0,26,1625340509.0,32.000000
-61,0,25,1625340509.0,32.000000
-61,0,25,1625340509.0,32.000000
-62,0,25,1625340509.0,32.000000
-61,0,26,1625340509.0,32.000000
-61,0,25,1625340509.0,32.000000
-62,0,25,1625340509.0,32.000000
-61,0,25,1625340509.0,32.000000
-61,0,25,1625340509.0,32.000000
-61,0,26,1625340509.0,32.000000
-61,0,25,1625340509.0,32.000000
-62,0,25,1625340509.0,32.000000
-62,0,26,1625340509.0,32.000000
-61,0,25,1625340509.0,32.000000
-61,0,25,1625340509.0,32.000000
-61,0,25,1625340509.0,32.000000
-61,0,25,1625340509.0,32.000000
-61,0,25,1625340509.0,32.000000
-61,0,25,1625340509.0,32.000000
-61,0,26,1625340509.0,32.000000
-61,0,25,1625340509.0,32.000000
-61,0,25,1625340509.0,32.000000
-61,0,26,1625340509.0,32.000000
-61,0,25,1625340509.0,32.000000
-61,0,25,1625340509.0,32.000000
-62,0,25,1625340509.0,32.000000
-61,0,25,1625340509.0,32.000000
-61,0,25,1625340509.0,32.000000
-61,0,25,1625340509.0,32.000000
-61,0,25,1625340509.0,32.000000
-61,0,25,1625340509.0,32.000000
-62,0,26,1625340509.0,32.000000
-61,0,25,1625340509.0,32.000000
-62,0,25,1625340509.0,32.000000
-61,0,25,1625340509.0,32.000000
-62,0,25,1625340509.0,32.000000
-61,0,25,1625340509.0,32.000000
-61,0,25,1625340509.0,32.000000
-61,0,25,1625340509.0,32.000000
-61,0,26,1625340509.0,32.000000
-61,0,25,1625340509.0,32.000000
-61,0,26,1625340509.0,32.000000
-61,0,25,1625340509.0,32.000000
-61,0,25,1625340509.0,32.000000
-61,0,25,1625340509.0,32.000000
-61,0,25,1625340509.0,32.000000
-61,0,25,1625340509.0,32.000000
-61,0,25,1625340509.0,32.000000
-61,0,26,1625340509.0,32.000000
-62,0,25,1625340509.0,32.000000
-62,1,25,1625340509.0,32.000000
-61,0,25,1625340509.0,32.000000
-61,1,25,1625340509.0,32.000000
-61,1,26,1625340509.0,32.000000
-61,0,26,1625340509.0,32.000000
-61,0,26,1625340509.0,32.000000
-61,0,26,1625340509.0,32.000000
-61,0,26,1625340509.0,32.000000
-61,-1,26,1625340509.0,32.000000
-61,0,26,1625340509.0,32.000000
-61,0,26,1625340509.0,32.000000
-61,0,26,1625340509.0,32.000000
-61,0,25,1625340509.0,32.000000
-61,0,25,1625340509.0,32.000000
-61,0,26,1625340509.0,32.000000
-61,0,25,1625340509.0,32.000000
-61,0,26,1625340509.0,32.000000
-61,0,25,1625340509.0,32.000000
-61,0,26,1625340509.0,32.000000
-61,0,26,1625340509.0,32.000000
-61,0,25,1625340509.0,32.000000
-61,0,26,1625340509.0,32.000000
-61,0,26,1625340509.0,32.000000
-61,0,26,1625340509.0,32.000000
-61,1,26,1625340509.0,32.000000
-61,0,26,1625340509.0,32.000000
-61,0,26,1625340509.0,32.000000
-61,0,26,1625340509.0,32.000000
-61,0,25,1625340509.0,32.000000
-61,0,26,1625340509.0,32.000000
-61,0,25,1625340509.0,32.000000
-61,0,25,1625340509.0,32.000000
-61,0,26,1625340509.0,32.000000
-61,0,25,1625340509.0,32.000000
-61,0,26,1625340509.0,32.000000
-61,0,26,1625340509.0,32.000000
-61,0,25,1625340509.0,32.000000
-61,0,26,1625340509.0,32.000000
-62,0,26,1625340509.0,32.000000
-61,0,26,1625340509.0,32.000000
-61,0,25,1625340509.0,32.000000
-61,0,26,1625340509.0,32.000000
-61,0,25,1625340509.0,32.000000
-61,0,26,1625340509.0,32.000000
-61,0,25,1625340509.0,32.000000
-61,0,26,1625340509.0,32.000000
-62,0,25,1625340509.0,32.000000
-61,0,25,1625340509.0,32.000000
-61,0,25,1625340509.0,32.000000
-61,0,25,1625340509.0,32.000000
-61,0,25,1625340509.0,32.000000
-61,0,25,1625340509.0,32.000000
-61,0,25,1625340509.0,32.000000
-61,0,25,1625340509.0,32.000000
-61,0,25,1625340509.0,32.000000
-61,0,25,1625340509.0,32.000000
-61,0,25,1625340509.0,32.000000
-61,0,25,1625340509.0,32.000000
-61,0,25,1625340509.0,32.000000
-61,0,25,1625340509.0,32.000000
-61,0,25,1625340509.0,32.000000
-61,0,25,1625340509.0,32.000000
-61,0,25,1625340509.0,32.000000
-61,0,25,1625340509.0,32.000000
-62,0,25,1625340509.0,32.000000
-61,0,25,1625340509.0,32.000000
-62,0,25,1625340509.0,32.000000
-61,0,25,1625340509.0,32.000000
-61,0,25,1625340509.0,32.000000
-61,0,25,1625340509.0,32.000000
-61,0,25,1625340509.0,32.000000
-61,0,25,1625340509.0,32.000000
-61,0,25,1625340509.0,32.000000
-61,0,25,1625340509.0,32.000000
-61,0,25,1625340509.0,32.000000
-61,0,25,1625340509.0,32.000000
-61,0,25,1625340509.0,32.000000
-61,0,25,1625340509.0,32.000000
-61,0,25,1625340509.0,32.000000
-61,0,25,1625340509.0,32.000000
-61,0,25,1625340509.0,32.000000
-61,0,25,1625340509.0,32.000000
-61,0,25,1625340509.0,32.000000
-61,0,25,1625340509.0,32.000000
-61,0,26,1625340509.0,32.000000
-61,0,25,1625340509.0,32.000000
-61,0,26,1625340509.0,32.000000
-62,0,26,1625340509.0,32.000000
-61,0,26,1625340509.0,32.000000
-61,0,25,1625340509.0,32.000000
-61,0,25,1625340509.0,32.000000
-61,0,26,1625340509.0,32.000000
-61,0,26,1625340509.0,32.000000
-61,0,25,1625340509.0,32.000000
-61,0,26,1625340509.0,32.000000
-61,0,25,1625340509.0,32.000000
-61,0,25,1625340509.0,32.000000
-61,0,25,1625340509.0,32.000000
-61,0,25,1625340509.0,32.000000
-61,0,25,1625340509.0,32.000000
-61,0,25,1625340509.0,32.000000
-61,0,25,1625340509.0,32.000000
-61,0,25,1625340509.0,32.000000
-61,0,25,1625340509.0,32.000000
-61,0,26,1625340509.0,32.000000
-62,0,25,1625340509.0,32.000000
-61,0,26,1625340509.0,32.000000
-61,0,26,1625340509.0,32.000000
-61,0,25,1625340509.0,32.000000
-61,0,26,1625340509.0,32.000000
-61,0,25,1625340509.0,32.000000
-61,0,26,1625340509.0,32.000000
-61,0,25,1625340509.0,32.000000
-61,0,25,1625340509.0,32.000000
-61,0,26,1625340509.0,32.000000
-61,0,26,1625340509.0,32.000000
-61,0,26,1625340509.0,32.000000
-61,0,26,1625340509.0,32.000000
-61,0,26,1625340509.0,32.000000
-61,0,26,1625340509.0,32.000000
-61,0,26,1625340509.0,32.000000
-61,0,26,1625340509.0,32.000000
-61,0,26,1625340509.0,32.000000
-61,0,25,1625340509.0,32.000000
-61,0,25,1625340509.0,32.000000
-61,0,25,1625340509.0,32.000000
-61,-1,26,1625340509.0,32.000000
-61,0,25,1625340509.0,32.000000
-61,0,25,1625340509.0,32.000000
-62,0,25,1625340509.0,32.000000
-62,0,26,1625340509.0,32.000000
-62,0,25,1625340509.0,32.000000
-61,0,25,1625340509.0,32.000000
-62,0,25,1625340509.0,32.000000
-62,0,25,1625340509.0,32.000000
-61,0,25,1625340509.0,32.000000
-61,0,25,1625340509.0,32.000000
-62,0,25,1625340509.0,32.000000
-62,0,25,1625340509.0,32.000000
-61,0,25,1625340509.0,32.000000
-61,0,25,1625340509.0,32.000000
-61,0,25,1625340509.0,32.000000
-61,0,25,1625340509.0,32.000000
-61,0,25,1625340509.0,32.000000
-61,0,25,1625340509.0,32.000000
-62,0,25,1625340509.0,32.000000
-61,0,25,1625340509.0,32.000000
-61,0,25,1625340509.0,32.000000
-61,0,25,1625340509.0,32.000000
-62,0,25,1625340509.0,32.000000
-61,0,25,1625340509.0,32.000000
-61,0,25,1625340509.0,32.000000
-61,-1,25,1625340509.0,32.000000
-61,0,25,1625340509.0,32.000000
-62,0,25,1625340509.0,32.000000
-62,0,25,1625340509.0,32.000000
-62,0,25,1625340509.0,32.000000
-61,0,25,1625340509.0,32.000000
-62,0,25,1625340509.0,32.000000
-61,0,25,1625340509.0,32.000000
-62,0,25,1625340509.0,32.000000
-62,0,25,1625340509.0,32.000000
-61,0,25,1625340509.0,32.000000
-62,0,25,1625340509.0,32.000000
-61,0,25,1625340509.0,32.000000
-61,0,25,1625340509.0,32.000000
-61,0,25,1625340509.0,32.000000
-61,0,25,1625340509.0,32.000000
-62,0,25,1625340509.0,32.000000
-62,0,25,1625340509.0,32.000000
-62,0,25,1625340509.0,32.000000
-61,0,25,1625340509.0,32.000000
-62,0,24,1625340509.0,32.000000
-61,0,25,1625340509.0,32.000000
-61,0,25,1625340509.0,32.000000
-61,0,25,1625340509.0,32.000000
-61,0,25,1625340509.0,32.000000
-61,0,25,1625340509.0,32.000000
-61,0,26,1625340509.0,32.000000
-62,0,25,1625340509.0,32.000000
-61,0,26,1625340509.0,32.000000
-61,0,26,1625340509.0,32.000000
-61,0,25,1625340509.0,32.000000
-61,0,26,1625340509.0,32.000000
-61,0,25,1625340509.0,32.000000
-61,0,25,1625340509.0,32.000000
-61,0,26,1625340509.0,32.000000
-62,0,25,1625340509.0,32.000000
-61,0,25,1625340509.0,32.000000
-61,0,25,1625340509.0,32.000000
-62,0,25,1625340509.0,32.000000
-61,-1,25,1625340509.0,32.000000
-61,-1,25,1625340509.0,32.000000
-62,0,25,1625340509.0,32.000000
-61,0,25,1625340509.0,32.000000
-62,0,25,1625340509.0,32.000000
-62,0,25,1625340509.0,32.000000
-61,0,25,1625340509.0,32.000000
-62,0,25,1625340509.0,32.000000
-61,0,25,1625340509.0,32.000000
-61,0,25,1625340509.0,32.000000
-61,0,25,1625340509.0,32.000000
-61,0,25,1625340509.0,32.000000
-61,0,25,1625340509.0,32.000000
-61,0,25,1625340509.0,32.000000
-61,0,26,1625340509.0,32.000000
-61,0,25,1625340509.0,32.000000
-60,0,25,1625340509.0,32.000000
-62,0,25,1625340509.0,32.000000
-62,0,25,1625340509.0,32.000000
-61,0,25,1625340509.0,32.000000
-62,0,25,1625340509.0,32.000000
-62,0,26,1625340509.0,32.000000
-61,0,25,1625340509.0,32.000000
-61,0,25,1625340509.0,32.000000
-61,0,25,1625340509.0,32.000000
-61,0,25,1625340509.0,32.000000
-62,0,25,1625340509.0,32.000000
-61,0,26,1625340509.0,32.000000
-62,0,25,1625340509.0,32.000000
-61,0,25,1625340509.0,32.000000
-61,0,25,1625340509.0,32.000000
-62,0,25,1625340509.0,32.000000
-61,0,25,1625340509.0,32.000000
-61,0,25,1625340509.0,32.000000
-62,0,25,1625340509.0,32.000000
-61,0,25,1625340509.0,32.000000
-61,0,25,1625340509.0,32.000000
-61,0,25,1625340509.0,32.000000
-61,0,25,1625340509.0,32.000000
-61,0,25,1625340509.0,32.000000
-61,0,25,1625340509.0,32.000000
-62,0,25,1625340509.0,32.000000
-61,0,25,1625340509.0,32.000000
-61,0,24,1625340509.0,32.000000
-62,0,25,1625340509.0,32.000000
-62,-1,25,1625340509.0,32.000000
-62,0,25,1625340509.0,32.000000
-62,0,24,1625340509.0,32.000000
-61,-1,25,1625340509.0,32.000000
-62,0,25,1625340509.0,32.000000
-62,-1,24,1625340509.0,32.000000
-62,0,24,1625340509.0,32.000000
-62,0,25,1625340509.0,32.000000
-62,-1,25,1625340509.0,32.000000
-61,-1,25,1625340509.0,32.000000
-62,-1,24,1625340509.0,32.000000
-62,-1,25,1625340509.0,32.000000
-62,-1,25,1625340509.0,32.000000
-62,-1,24,1625340509.0,32.000000
-62,0,25,1625340509.0,32.000000
-62,0,25,1625340509.0,32.000000
-62,-1,25,1625340509.0,32.000000
-62,0,25,1625340509.0,32.000000
-62,-1,25,1625340509.0,32.000000
-62,0,25,1625340509.0,32.000000
-62,-1,25,1625340509.0,32.000000
-62,-1,25,1625340509.0,32.000000
-62,-1,25,1625340509.0,32.000000
-62,0,25,1625340509.0,32.000000
-61,0,25,1625340509.0,32.000000
-62,0,25,1625340509.0,32.000000
-62,-1,25,1625340509.0,32.000000
-61,-1,25,1625340509.0,32.000000
-62,-1,25,1625340509.0,32.000000
-62,-1,25,1625340509.0,32.000000
-62,-1,25,1625340509.0,32.000000
-62,0,25,1625340509.0,32.000000
-62,-1,24,1625340509.0,32.000000
-61,0,26,1625340509.0,32.000000
-62,-1,25,1625340509.0,32.000000
-62,0,25,1625340509.0,32.000000
-61,-1,26,1625340509.0,32.000000
-62,-1,25,1625340509.0,32.000000
-62,0,25,1625340509.0,32.000000
-61,0,26,1625340509.0,32.000000
-61,0,26,1625340509.0,32.000000
-61,0,26,1625340509.0,32.000000
-61,0,25,1625340509.0,32.000000
-61,0,26,1625340509.0,32.000000
-62,0,25,1625340509.0,32.000000
-61,0,26,1625340509.0,32.000000
-61,-1,25,1625340509.0,32.000000
-61,0,26,1625340509.0,32.000000
-62,0,26,1625340509.0,32.000000
-61,-1,26,1625340509.0,32.000000
-61,0,25,1625340509.0,32.000000
-62,-1,25,1625340509.0,32.000000
-61,0,26,1625340509.0,32.000000
-61,0,25,1625340509.0,32.000000
-62,0,25,1625340509.0,32.000000
-62,0,25,1625340509.0,32.000000
-62,0,25,1625340509.0,32.000000
-61,0,26,1625340509.0,32.000000
-61,-1,25,1625340509.0,32.000000
-61,0,25,1625340509.0,32.000000
-61,0,26,1625340509.0,32.000000
-61,0,26,1625340509.0,32.000000
-61,0,25,1625340509.0,32.000000
-62,0,25,1625340509.0,32.000000
-61,0,26,1625340509.0,32.000000
-61,0,25,1625340509.0,32.000000
-61,0,25,1625340509.0,32.000000
-61,0,25,1625340509.0,32.000000
-61,0,26,1625340509.0,32.000000
-61,0,26,1625340509.0,32.000000
-61,0,25,1625340509.0,32.000000
-62,0,25,1625340509.0,32.000000
-61,0,26,1625340509.0,32.000000
-61,0,26,1625340509.0,32.000000
-61,-1,25,1625340509.0,32.000000
-62,0,25,1625340509.0,32.000000
-61,0,26,1625340509.0,32.000000
-61,0,26,1625340509.0,32.000000
-61,0,25,1625340509.0,32.000000
-62,0,25,1625340509.0,32.000000
-61,0,26,1625340509.0,32.000000
-61,0,26,1625340509.0,32.000000
-61,0,26,1625340509.0,32.000000
-62,0,23,1625340509.0,32.000000
-61,0,27,1625340509.0,32.000000
-61,0,28,1625340509.0,32.000000
-62,0,24,1625340509.0,32.000000
-61,0,25,1625340509.0,32.000000
-62,0,26,1625340509.0,32.000000
-61,0,26,1625340509.0,32.000000
-61,0,26,1625340509.0,32.000000
-61,-1,24,1625340509.0,32.000000
-61,0,26,1625340509.0,32.000000
-61,0,26,1625340509.0,32.000000
-61,-1,25,1625340509.0,32.000000
-62,-1,24,1625340509.0,32.000000
-61,0,25,1625340509.0,32.000000
-62,0,25,1625340509.0,32.000000
-61,0,25,1625340509.0,32.000000
-61,0,25,1625340509.0,32.000000
-61,-1,25,1625340509.0,32.000000
-62,-1,25,1625340509.0,32.000000
-61,0,25,1625340509.0,32.000000
-62,-1,26,1625340509.0,32.000000
-61,-1,25,1625340509.0,32.000000
-62,-1,24,1625340509.0,32.000000
-61,0,25,1625340509.0,32.000000
-62,0,25,1625340509.0,32.000000
-62,0,25,1625340509.0,32.000000
-61,-1,25,1625340509.0,32.000000
-62,0,25,1625340509.0,32.000000
-61,0,25,1625340509.0,32.000000
-62,0,25,1625340509.0,32.000000
-61,0,25,1625340509.0,32.000000
-61,-1,26,1625340509.0,32.000000
-61,-1,26,1625340509.0,32.000000
-61,-1,26,1625340509.0,32.000000
-61,-1,26,1625340509.0,32.000000
-61,0,25,1625340509.0,32.000000
-62,0,25,1625340509.0,32.000000
-61,0,26,1625340509.0,32.000000
-61,0,25,1625340509.0,32.000000
-62,0,26,1625340509.0,32.000000
-61,0,26,1625340509.0,32.000000
-62,0,25,1625340509.0,32.000000
-61,-1,25,1625340509.0,32.000000
-61,0,26,1625340509.0,32.000000
-61,0,26,1625340509.0,32.000000
-61,-1,26,1625340509.0,32.000000
-61,-1,26,1625340509.0,32.000000
-61,0,26,1625340509.0,32.000000
-61,-1,25,1625340509.0,32.000000
-61,0,26,1625340509.0,32.000000
-61,-1,27,1625340509.0,32.000000
-61,-1,26,1625340509.0,32.000000
-61,-1,25,1625340509.0,32.000000
-61,0,26,1625340509.0,32.000000
-61,0,27,1625340509.0,32.000000
-61,-1,27,1625340509.0,32.000000
-61,-1,26,1625340509.0,32.000000
-61,0,27,1625340509.0,32.000000
-62,-1,27,1625340509.0,32.000000
-61,0,27,1625340509.0,32.000000
-62,0,27,1625340509.0,32.000000
-62,1,27,1625340509.0,32.000000
-60,0,28,1625340509.0,32.000000
-64,0,29,1625340509.0,32.000000
-65,1,29,1625340509.0,32.000000
-67,-3,27,1625340509.0,32.000000
-64,0,29,1625340509.0,32.000000
-67,-1,27,1625340509.0,32.000000
-67,-4,24,1625340509.0,32.000000
-65,-3,24,1625340509.0,32.000000
-58,-4,29,1625340509.0,32.000000
-53,-4,34,1625340509.0,32.000000
-40,-2,37,1625340509.0,32.000000
-33,-9,42,1625340509.0,32.000000
-28,-10,42,1625340509.0,32.000000
-23,-14,49,1625340509.0,32.000000
-33,-12,54,1625340509.0,32.000000
-30,-16,57,1625340509.0,32.000000
-30,-19,56,1625340509.0,32.000000
-31,-20,57,1625340509.0,32.000000
-28,-22,52,1625340509.0,32.000000
-24,-22,53,1625340509.0,32.000000
-24,-22,53,1625340509.0,32.000000
-12,-24,47,1625340509.0,32.000000
-12,-24,47,1625340509.0,32.000000
-25,-25,58,1625340509.0,32.000000
-20,-27,58,1625340509.0,32.000000
-13,-27,57,1625340509.0,32.000000
-6,-22,57,1625340509.0,32.000000
-11,-20,58,1625340509.0,32.000000
-9,-9,81,1625340509.0,32.000000
-15,-5,89,1625340509.0,32.000000
-13,-8,76,1625340509.0,32.000000
-10,-12,59,1625340509.0,32.000000
-10,-14,61,1625340509.0,32.000000
-13,-16,64,1625340509.0,32.000000
-15,-18,63,1625340509.0,32.000000
-20,-16,64,1625340509.0,32.000000
-15,-14,63,1625340509.0,32.000000
-16,-12,61,1625340509.0,32.000000
-22,-8,73,1625340509.0,32.000000
-16,-10,77,1625340509.0,32.000000
-12,-13,65,1625340509.0,32.000000
-14,-10,63,1625340509.0,32.000000
-18,-8,61,1625340509.0,32.000000
-8,-13,65,1625340509.0,32.000000
-4,-12,59,1625340509.0,32.000000
-7,-12,57,1625340509.0,32.000000
-12,-14,58,1625340509.0,32.000000
-11,-16,52,1625340509.0,32.000000
-12,-14,41,1625340509.0,32.000000
-22,-11,46,1625340509.0,32.000000
-32,-7,63,1625340509.0,32.000000
-22,-4,69,1625340509.0,32.000000
-17,-4,65,1625340509.0,32.000000
-7,-4,55,1625340509.0,32.000000
-16,-1,59,1625340509.0,32.000000
-17,-2,68,1625340509.0,32.000000
-6,-1,64,1625340509.0,32.000000
-11,0,68,1625340509.0,32.000000
-6,-2,70,1625340509.0,32.000000
-5,-3,72,1625340509.0,32.000000
-2,-6,76,1625340509.0,32.000000
-6,-8,75,1625340509.0,32.000000
-11,-11,71,1625340509.0,32.000000
-14,-12,66,1625340509.0,32.000000
-15,-12,65,1625340509.0,32.000000
-18,-11,66,1625340509.0,32.000000
-18,-13,59,1625340509.0,32.000000
-13,-9,54,1625340509.0,32.000000
-11,-6,59,1625340509.0,32.000000
-5,-6,62,1625340509.0,32.000000
-1,-5,61,1625340509.0,32.000000
-4,-4,60,1625340509.0,32.000000
-2,-4,61,1625340509.0,32.000000
-5,-5,63,1625340509.0,32.000000
-6,-6,61,1625340509.0,32.000000
-5,-8,62,1625340509.0,32.000000
-5,-8,60,1625340509.0,32.000000
-7,-8,59,1625340509.0,32.000000
-13,-7,63,1625340509.0,32.000000
-17,-7,70,1625340509.0,32.000000
-13,-8,73,1625340509.0,32.000000
-11,-9,71,1625340509.0,32.000000
-9,-12,69,1625340509.0,32.000000
-5,-16,67,1625340509.0,32.000000
-6,-16,66,1625340509.0,32.000000
-8,-17,65,1625340509.0,32.000000
-8,-18,65,1625340509.0,32.000000
-8,-18,63,1625340509.0,32.000000
-7,-18,58,1625340509.0,32.000000
-5,-22,58,1625340509.0,32.000000
-8,-19,61,1625340509.0,32.000000
-17,-25,49,1625340509.0,32.000000
-13,-22,60,1625340509.0,32.000000
-6,-23,63,1625340509.0,32.000000
-4,-24,65,1625340509.0,32.000000
-1,-26,66,1625340509.0,32.000000
1,-26,69,1625340509.0,32.000000
8,-28,72,1625340509.0,32.000000
7,-29,67,1625340509.0,32.000000
9,-30,63,1625340509.0,32.000000
6,-32,62,1625340509.0,32.000000
7,-32,61,1625340509.0,32.000000
5,-33,59,1625340509.0,32.000000
3,-32,49,1625340509.0,32.000000
4,-34,45,1625340509.0,32.000000
7,-32,36,1625340509.0,32.000000
8,-33,34,1625340509.0,32.000000
8,-36,26,1625340509.0,32.000000
7,-35,23,1625340509.0,32.000000
12,-46,14,1625340509.0,32.000000
9,-63,15,1625340509.0,32.000000
7,-72,19,1625340509.0,32.000000
1,-55,20,1625340509.0,32.000000
6,-59,17,1625340509.0,32.000000
7,-54,11,1625340509.0,32.000000
10,-65,15,1625340509.0,32.000000
6,-60,18,1625340509.0,32.000000
3,-60,18,1625340509.0,32.000000
4,-60,18,1625340509.0,32.000000
6,-60,19,1625340509.0,32.000000
8,-59,21,1625340509.0,32.000000
9,-59,20,1625340509.0,32.000000
12,-60,19,1625340509.0,32.000000
12,-60,19,1625340509.0,32.000000
11,-60,18,1625340509.0,32.000000
9,-60,18,1625340509.0,32.000000
8,-60,18,1625340509.0,32.000000
8,-60,16,1625340509.0,32.000000
9,-60,15,1625340509.0,32.000000
9,-60,13,1625340509.0,32.000000
11,-61,11,1625340509.0,32.000000
11,-61,11,1625340509.0,32.000000
11,-62,8,1625340509.0,32.000000
11,-62,7,1625340509.0,32.000000
10,-62,7,1625340509.0,32.000000
8,-62,8,1625340509.0,32.000000
7,-62,7,1625340509.0,32.000000
7,-62,9,1625340509.0,32.000000
7,-61,10,1625340509.0,32.000000
6,-61,11,1625340509.0,32.000000
6,-61,12,1625340509.0,32.000000
6,-61,13,1625340509.0,32.000000
7,-61,14,1625340509.0,32.000000
6,-61,14,1625340509.0,32.000000
6,-61,16,1625340509.0,32.000000
6,-61,16,1625340509.0,32.000000
5,-61,16,1625340509.0,32.000000
5,-60,17,1625340509.0,32.000000
4,-60,17,1625340509.0,32.000000
5,-60,17,1625340509.0,32.000000
6,-60,17,1625340509.0,32.000000
7,-61,14,1625340509.0,32.000000
5,-65,0,1625340509.0,32.000000
3,-64,2,1625340509.0,32.000000
16,-58,25,1625340509.0,32.000000
5,-59,22,1625340509.0,32.000000
-3,-57,23,1625340509.0,32.000000
0,-57,22,1625340509.0,32.000000
1,-58,21,1625340509.0,32.000000
3,-59,18,1625340509.0,32.000000
3,-58,22,1625340509.0,32.000000
3,-57,25,1625340509.0,32.000000
0,-55,27,1625340509.0,32.000000
0,-55,29,1625340509.0,32.000000
-4,-53,31,1625340509.0,32.000000
-4,-54,33,1625340509.0,32.000000
-7,-53,37,1625340509.0,32.000000
-5,-52,41,1625340509.0,32.000000
-5,-51,38,1625340509.0,32.000000
-8,-50,49,1625340509.0,32.000000
-12,-50,45,1625340509.0,32.000000
-7,-50,42,1625340509.0,32.000000
-8,-51,40,1625340509.0,32.000000
-11,-51,35,1625340509.0,32.000000
-5,-51,40,1625340509.0,32.000000
-7,-50,39,1625340509.0,32.000000
-24,-52,25,1625340509.0,32.000000
-29,-54,17,1625340509.0,32.000000
-28,-57,5,1625340509.0,32.000000
-19,-57,17,1625340509.0,32.000000
-18,-56,19,1625340509.0,32.000000
-24,-53,17,1625340509.0,32.000000
-38,-47,32,1625340509.0,32.000000
-44,-47,36,1625340509.0,32.000000
-18,-52,30,1625340509.0,32.000000
-19,-51,25,1625340509.0,32.000000
-27,-52,23,1625340509.0,32.000000
-29,-51,26,1625340509.0,32.000000
-36,-49,32,1625340509.0,32.000000
-32,-48,30,1625340509.0,32.000000
-33,-49,29,1625340509.0,32.000000
-36,-50,27,1625340509.0,32.000000
-35,-49,29,1625340509.0,32.000000
-36,-49,29,1625340509.0,32.000000
-33,-48,31,1625340509.0,32.000000
-30,-48,30,1625340509.0,32.000000
-16,-49,34,1625340509.0,32.000000
-12,-51,34,1625340509.0,32.000000
-8,-51,36,1625340509.0,32.000000
-5,-51,38,1625340509.0,32.000000
-11,-50,35,1625340509.0,32.000000
-9,-51,34,1625340509.0,32.000000
-17,-51,34,1625340509.0,32.000000
-9,-51,38,1625340509.0,32.000000
-8,-51,36,1625340509.0,32.000000
-6,-51,37,1625340509.0,32.000000
-8,-51,37,1625340509.0,32.000000
-4,-50,39,1625340509.0,32.000000
-13,-49,39,1625340509.0,32.000000
-11,-50,39,1625340509.0,32.000000
-9,-50,38,1625340509.0,32.000000
-11,-49,42,1625340509.0,32.000000
-7,-49,41,1625340509.0,32.000000
-10,-49,39,1625340509.0,32.000000
-13,-49,41,1625340509.0,32.000000
-9,-48,42,1625340509.0,32.000000
-8,-48,40,1625340509.0,32.000000
-10,-47,42,1625340509.0,32.000000
-8,-48,43,1625340509.0,32.000000
-8,-49,41,1625340509.0,32.000000
-9,-49,40,1625340509.0,32.000000
-7,-49,41,1625340509.0,32.000000
-6,-49,41,1625340509.0,32.000000
-7,-49,43,1625340509.0,32.000000
-7,-49,41,1625340509.0,32.000000
-6,-50,38,1625340509.0,32.000000
-3,-50,39,1625340509.0,32.000000
-6,-50,36,1625340509.0,32.000000
-12,-51,33,1625340509.0,32.000000
-10,-52,36,1625340509.0,32.000000
-13,-51,34,1625340509.0,32.000000
-12,-50,38,1625340509.0,32.000000
-10,-50,40,1625340509.0,32.000000
-5,-50,39,1625340509.0,32.000000
-6,-50,37,1625340509.0,32.000000
-6,-50,34,1625340509.0,32.000000
-10,-51,37,1625340509.0,32.000000
-12,-50,36,1625340509.0,32.000000
-18,-49,37,1625340509.0,32.000000
-22,-47,41,1625340509.0,32.000000
-15,-46,46,1625340509.0,32.000000
-20,-46,47,1625340509.0,32.000000
-20,-46,48,1625340509.0,32.000000
-14,-48,40,1625340509.0,32.000000
-13,-48,42,1625340509.0,32.000000
-10,-48,39,1625340509.0,32.000000
-9,-49,38,1625340509.0,32.000000
-10,-48,40,1625340509.0,32.000000
-7,-48,40,1625340509.0,32.000000
-6,-48,42,1625340509.0,32.000000
-7,-48,41,1625340509.0,32.000000
-4,-49,39,1625340509.0,32.000000
-5,-49,40,1625340509.0,32.000000
-5,-47,42,1625340509.0,32.000000
-6,-48,41,1625340509.0,32.000000
-4,-48,42,1625340509.0,32.000000
-3,-49,41,1625340509.0,32.000000
-5,-49,40,1625340509.0,32.000000
-4,-49,40,1625340509.0,32.000000
-3,-49,40,1625340509.0,32.000000
-4,-49,41,1625340509.0,32.000000
-6,-49,39,1625340509.0,32.000000
-6,-48,40,1625340509.0,32.000000
-3,-48,40,1625340509.0,32.000000
-3,-49,39,1625340509.0,32.000000
-6,-50,46,1625340509.0,32.000000
-7,-48,46,1625340509.0,32.000000
-5,-48,42,1625340509.0,32.000000
-5,-50,40,1625340509.0,32.000000
-4,-50,40,1625340509.0,32.000000
-11,-50,37,1625340509.0,32.000000
-8,-49,40,1625340509.0,32.000000
-12,-47,42,1625340509.0,32.000000
-21,-49,27,1625340509.0,32.000000
-30,-51,21,1625340509.0,32.000000
-31,-50,25,1625340509.0,32.000000
-32,-49,24,1625340509.0,32.000000
-33,-51,21,1625340509.0,32.000000
-38,-49,22,1625340509.0,32.000000
-40,-48,22,1625340509.0,32.000000
-39,-49,24,1625340509.0,32.000000
-39,-49,23,1625340509.0,32.000000
-30,-49,27,1625340509.0,32.000000
-27,-48,31,1625340509.0,32.000000
-27,-50,32,1625340509.0,32.000000
-21,-47,36,1625340509.0,32.000000
-20,-49,34,1625340509.0,32.000000
-21,-49,35,1625340509.0,32.000000
-15,-48,41,1625340509.0,32.000000
-15,-48,42,1625340509.0,32.000000
-14,-48,40,1625340509.0,32.000000
-16,-48,39,1625340509.0,32.000000
-16,-48,41,1625340509.0,32.000000
-14,-49,39,1625340509.0,32.000000
-14,-49,39,1625340509.0,32.000000
-13,-49,38,1625340509.0,32.000000
-14,-49,38,1625340509.0,32.000000
-14,-49,38,1625340509.0,32.000000
-13,-49,38,1625340509.0,32.000000
-13,-49,39,1625340509.0,32.000000
-15,-48,39,1625340509.0,32.000000
-17,-49,40,1625340509.0,32.000000
-14,-48,39,1625340509.0,32.000000
-12,-49,38,1625340509.0,32.000000
-12,-50,38,1625340509.0,32.000000
-14,-49,37,1625340509.0,32.000000
-17,-49,37,1625340509.0,32.000000
-20,-49,36,1625340509.0,32.000000
-20,-48,37,1625340509.0,32.000000
-18,-48,38,1625340509.0,32.000000
-17,-48,39,1625340509.0,32.000000
-18,-48,38,1625340509.0,32.000000
-19,-48,38,1625340509.0,32.000000
-19,-48,38,1625340509.0,32.000000
-19,-48,39,1625340509.0,32.000000
-18,-48,38,1625340509.0,32.000000
-19,-48,38,1625340509.0,32.000000
-14,-48,42,1625340509.0,32.000000
-13,-48,45,1625340509.0,32.000000
-22,-48,39,1625340509.0,32.000000
-18,-48,42,1625340509.0,32.000000
-19,-47,43,1625340509.0,32.000000
-22,-47,37,1625340509.0,32.000000
-20,-42,38,1625340509.0,32.000000
-24,-49,34,1625340509.0,32.000000
-20,-51,28,1625340509.0,32.000000
-20,-53,27,1625340509.0,32.000000
-22,-52,25,1625340509.0,32.000000
-23,-53,23,1625340509.0,32.000000
-26,-53,21,1625340509.0,32.000000
-28,-52,21,1625340509.0,32.000000
-29,-52,20,1625340509.0,32.000000
-29,-52,21,1625340509.0,32.000000
-31,-52,21,1625340509.0,32.000000
-31,-52,23,1625340509.0,32.000000
-31,-52,23,1625340509.0,32.000000
-31,-50,26,1625340509.0,32.000000
-31,-51,24,1625340509.0,32.000000
-31,-51,24,1625340509.0,32.000000
-36,-50,21,1625340509.0,32.000000
-35,-52,14,1625340509.0,32.000000
-37,-51,13,1625340509.0,32.000000
-35,-51,10,1625340509.0,32.000000
-38,-53,5,1625340509.0,32.000000
-38,-52,4,1625340509.0,32.000000
-34,-53,1,1625340509.0,32.000000
-38,-49,3,1625340509.0,32.000000
-49,-50,-1,1625340509.0,32.000000
-47,-50,1,1625340509.0,32.000000
-33,-50,3,1625340509.0,32.000000
-33,-51,2,1625340509.0,32.000000
-39,-54,-8,1625340509.0,32.000000
-41,-52,-5,1625340509.0,32.000000
-36,-51,2,1625340509.0,32.000000
-39,-50,4,1625340509.0,32.000000
-39,-52,0,1625340509.0,32.000000
-34,-52,-1,1625340509.0,32.000000
-40,-53,1,1625340509.0,32.000000
-40,-53,1,1625340509.0,32.000000
-36,-52,3,1625340509.0,32.000000
-38,-51,3,1625340509.0,32.000000
-38,-52,1,1625340509.0,32.000000
-38,-52,3,1625340509.0,32.000000
-38,-51,4,1625340509.0,32.000000
-37,-51,3,1625340509.0,32.000000
-37,-52,3,1625340509.0,32.000000
-37,-52,4,1625340509.0,32.000000
-37,-52,4,1625340509.0,32.000000
-37,-52,4,1625340509.0,32.000000
-38,-52,5,1625340509.0,32.000000
-37,-52,4,1625340509.0,32.000000
-38,-52,4,1625340509.0,32.000000
-37,-52,4,1625340509.0,32.000000
-36,-52,4,1625340509.0,32.000000
-36,-52,5,1625340509.0,32.000000
-37,-52,6,1625340509.0,32.000000
-36,-52,7,1625340509.0,32.000000
-36,-52,8,1625340509.0,32.000000
-36,-52,8,1625340509.0,32.000000
-35,-50,10,1625340509.0,32.000000
-35,-51,10,1625340509.0,32.000000
-38,-52,4,1625340509.0,32.000000
-39,-52,4,1625340509.0,32.000000
-39,-52,3,1625340509.0,32.000000
-39,-53,0,1625340509.0,32.000000
-36,-52,3,1625340509.0,32.000000
-39,-52,5,1625340509.0,32.000000
-38,-52,5,1625340509.0,32.000000
-39,-52,4,1625340509.0,32.000000
-36,-51,5,1625340509.0,32.000000
-36,-52,4,1625340509.0,32.000000
-40,-50,6,1625340509.0,32.000000
-40,-51,6,1625340509.0,32.000000
-39,-51,5,1625340509.0,32.000000
-43,-50,7,1625340509.0,32.000000
-42,-50,8,1625340509.0,32.000000
-36,-53,4,1625340509.0,32.000000
-39,-52,2,1625340509.0,32.000000
-40,-51,4,1625340509.0,32.000000
-31,-52,4,1625340509.0,32.000000
-32,-53,3,1625340509.0,32.000000
-33,-54,3,1625340509.0,32.000000
-34,-53,5,1625340509.0,32.000000
-36,-52,11,1625340509.0,32.000000
-41,-50,15,1625340509.0,32.000000
-41,-50,15,1625340509.0,32.000000
-37,-51,14,1625340509.0,32.000000
-36,-51,16,1625340509.0,32.000000
-31,-50,23,1625340509.0,32.000000
-35,-51,19,1625340509.0,32.000000
-35,-51,17,1625340509.0,32.000000
-32,-52,17,1625340509.0,32.000000
-32,-51,17,1625340509.0,32.000000
-32,-51,16,1625340509.0,32.000000
-35,-52,17,1625340509.0,32.000000
-35,-51,17,1625340509.0,32.000000
-37,-51,17,1625340509.0,32.000000
-35,-50,19,1625340509.0,32.000000
-35,-50,21,1625340509.0,32.000000
-35,-50,21,1625340509.0,32.000000
-35,-50,19,1625340509.0,32.000000
-36,-51,16,1625340509.0,32.000000
-35,-52,14,1625340509.0,32.000000
-34,-53,9,1625340509.0,32.000000
-39,-51,9,1625340509.0,32.000000
-34,-52,14,1625340509.0,32.000000
-29,-50,22,1625340509.0,32.000000
-36,-47,24,1625340509.0,32.000000
-39,-47,26,1625340509.0,32.000000
-41,-49,22,1625340509.0,32.000000
-35,-49,23,1625340509.0,32.000000
-34,-50,26,1625340509.0,32.000000
-36,-49,28,1625340509.0,32.000000
-34,-50,26,1625340509.0,32.000000
-32,-50,28,1625340509.0,32.000000
-28,-52,17,1625340509.0,32.000000
-31,-55,12,1625340509.0,32.000000
-32,-51,10,1625340509.0,32.000000
-31,-57,-2,1625340509.0,32.000000
-23,-55,5,1625340509.0,32.000000
-20,-42,37,1625340509.0,32.000000
-50,-44,64,1625340509.0,32.000000
-51,-43,32,1625340509.0,32.000000
-26,-47,22,1625340509.0,32.000000
-19,-52,28,1625340509.0,32.000000
-31,-53,25,1625340509.0,32.000000
-11,-49,39,1625340509.0,32.000000
-16,-47,35,1625340509.0,32.000000
-10,-48,41,1625340509.0,32.000000
-7,-48,48,1625340509.0,32.000000
-19,-48,43,1625340509.0,32.000000
-10,-46,45,1625340509.0,32.000000
-17,-47,40,1625340509.0,32.000000
-21,-49,33,1625340509.0,32.000000
-22,-50,29,1625340509.0,32.000000
-30,-52,22,1625340509.0,32.000000
-30,-51,23,1625340509.0,32.000000
-25,-49,35,1625340509.0,32.000000
-35,-53,17,1625340509.0,32.000000
-32,-52,11,1625340509.0,32.000000
-34,-54,10,1625340509.0,32.000000
-32,-54,14,1625340509.0,32.000000
-16,-51,33,1625340509.0,32.000000
-31,-48,35,1625340509.0,32.000000
-35,-48,35,1625340509.0,32.000000
-31,-48,31,1625340509.0,32.000000
-34,-51,24,1625340509.0,32.000000
-33,-51,22,1625340509.0,32.000000
-30,-50,28,1625340509.0,32.000000
-31,-49,30,1625340509.0,32.000000
-33,-49,30,1625340509.0,32.000000
-29,-49,32,1625340509.0,32.000000
-23,-50,32,1625340509.0,32.000000
-22,-50,32,1625340509.0,32.000000
-25,-48,29,1625340509.0,32.000000
-23,-50,29,1625340509.0,32.000000
-15,-53,32,1625340509.0,32.000000
-22,-49,30,1625340509.0,32.000000
-5,-51,37,1625340509.0,32.000000
8,-52,39,1625340509.0,32.000000
3,-51,42,1625340509.0,32.000000
-3,-50,43,1625340509.0,32.000000
-1,-49,42,1625340509.0,32.000000
-9,-49,45,1625340509.0,32.000000
-10,-46,51,1625340509.0,32.000000
-7,-49,38,1625340509.0,32.000000
-16,-49,34,1625340509.0,32.000000
-24,-50,35,1625340509.0,32.000000
-9,-51,43,1625340509.0,32.000000
-6,-48,42,1625340509.0,32.000000
-8,-50,42,1625340509.0,32.000000
-4,-49,53,1625340509.0,32.000000
-11,-46,57,1625340509.0,32.000000
-19,-48,25,1625340509.0,32.000000
-9,-53,31,1625340509.0,32.000000
-23,-57,9,1625340509.0,32.000000
-24,-57,6,1625340509.0,32.000000
-22,-59,-3,1625340509.0,32.000000
-24,-59,5,1625340509.0,32.000000
-24,-57,18,1625340509.0,32.000000
-27,-54,21,1625340509.0,32.000000
-35,-51,21,1625340509.0,32.000000
-30,-50,21,1625340509.0,32.000000
-31,-51,23,1625340509.0,32.000000
-26,-51,26,1625340509.0,32.000000
-25,-50,28,1625340509.0,32.000000
-26,-49,25,1625340509.0,32.000000
-26,-49,25,1625340509.0,32.000000
-27,-48,30,1625340509.0,32.000000
-32,-47,48,1625340509.0,32.000000
-38,-38,46,1625340509.0,32.000000
-37,-39,38,1625340509.0,32.000000
-32,-46,33,1625340509.0,32.000000
-33,-46,33,1625340509.0,32.000000
-30,-46,33,1625340509.0,32.000000
-30,-44,37,1625340509.0,32.000000
-35,-44,40,1625340509.0,32.000000
-31,-41,43,1625340509.0,32.000000
-35,-42,35,1625340509.0,32.000000
-30,-46,36,1625340509.0,32.000000
-32,-45,39,1625340509.0,32.000000
-29,-44,40,1625340509.0,32.000000
-30,-47,28,1625340509.0,32.000000
-32,-48,23,1625340509.0,32.000000
-36,-48,15,1625340509.0,32.000000
-38,-52,14,1625340509.0,32.000000
-39,-52,17,1625340509.0,32.000000
-32,-49,19,1625340509.0,32.000000
-27,-49,17,1625340509.0,32.000000
-30,-52,12,1625340509.0,32.000000
-42,-48,26,1625340509.0,32.000000
-43,-45,32,1625340509.0,32.000000
-37,-46,29,1625340509.0,32.000000
-36,-47,27,1625340509.0,32.000000
-31,-49,28,1625340509.0,32.000000
-38,-49,24,1625340509.0,32.000000
-32,-47,29,1625340509.0,32.000000
-33,-49,23,1625340509.0,32.000000
-23,-50,30,1625340509.0,32.000000
-27,-49,30,1625340509.0,32.000000
-25,-47,36,1625340509.0,32.000000
-24,-47,37,1625340509.0,32.000000
-23,-47,37,1625340509.0,32.000000
-23,-48,39,1625340509.0,32.000000
-28,-46,37,1625340509.0,32.000000
-25,-48,39,1625340509.0,32.000000
-18,-47,36,1625340509.0,32.000000
-19,-47,41,1625340509.0,32.000000
-19,-47,41,1625340509.0,32.000000
-14,-48,40,1625340509.0,32.000000
-16,-48,38,1625340509.0,32.000000
-10,-48,42,1625340509.0,32.000000
-11,-48,38,1625340509.0,32.000000
-10,-48,41,1625340509.0,32.000000
-15,-49,38,1625340509.0,32.000000
-8,-48,41,1625340509.0,32.000000
-9,-48,42,1625340509.0,32.000000
-8,-48,44,1625340509.0,32.000000
-7,-48,41,1625340509.0,32.000000
-5,-48,43,1625340509.0,32.000000
-6,-48,47,1625340509.0,32.000000
-2,-47,47,1625340509.0,32.000000
-1,-47,44,1625340509.0,32.000000
-3,-48,42,1625340509.0,32.000000
-7,-50,36,1625340509.0,32.000000
-7,-52,35,1625340509.0,32.000000
-5,-54,33,1625340509.0,32.000000
-3,-53,41,1625340509.0,32.000000
-1,-52,46,1625340509.0,32.000000
0,-50,37,1625340509.0,32.000000
-3,-53,29,1625340509.0,32.000000
-7,-56,20,1625340509.0,32.000000
-9,-59,15,1625340509.0,32.000000
-6,-59,18,1625340509.0,32.000000
-1,-60,18,1625340509.0,32.000000
-2,-60,18,1625340509.0,32.000000
0,-59,21,1625340509.0,32.000000
1,-59,21,1625340509.0,32.000000
1,-59,20,1625340509.0,32.000000
2,-59,19,1625340509.0,32.000000
3,-60,19,1625340509.0,32.000000
3,-60,17,1625340509.0,32.000000
3,-60,18,1625340509.0,32.000000
3,-60,18,1625340509.0,32.000000
2,-60,19,1625340509.0,32.000000
2,-60,18,1625340509.0,32.000000
3,-59,21,1625340509.0,32.000000
2,-60,21,1625340509.0,32.000000
2,-60,21,1625340509.0,32.000000
2,-60,21,1625340509.0,32.000000
2,-60,20,1625340509.0,32.000000
2,-60,20,1625340509.0,32.000000
2,-60,19,1625340509.0,32.000000
2,-60,18,1625340509.0,32.000000
2,-60,18,1625340509.0,32.000000
2,-60,18,1625340509.0,32.000000
1,-60,18,1625340509.0,32.000000
2,-60,17,1625340509.0,32.000000
2,-60,18,1625340509.0,32.000000
2,-60,19,1625340509.0,32.000000
3,-60,19,1625340509.0,32.000000
2,-60,19,1625340509.0,32.000000
1,-60,19,1625340509.0,32.000000
1,-59,21,1625340509.0,32.000000
2,-59,21,1625340509.0,32.000000
3,-59,22,1625340509.0,32.000000
2,-59,21,1625340509.0,32.000000
1,-59,21,1625340509.0,32.000000
4,-59,23,1625340509.0,32.000000
3,-60,19,1625340509.0,32.000000
4,-59,20,1625340509.0,32.000000
4,-59,20,1625340509.0,32.000000
5,-59,20,1625340509.0,32.000000
5,-59,19,1625340509.0,32.000000
7,-59,19,1625340509.0,32.000000
8,-59,19,1625340509.0,32.000000
7,-59,20,1625340509.0,32.000000
7,-59,21,1625340509.0,32.000000
7,-59,21,1625340509.0,32.000000
7,-59,21,1625340509.0,32.000000
7,-59,22,1625340509.0,32.000000
5,-59,22,1625340509.0,32.000000
7,-58,23,1625340509.0,32.000000
6,-59,22,1625340509.0,32.000000
6,-59,22,1625340509.0,32.000000
7,-59,22,1625340509.0,32.000000
6,-59,21,1625340509.0,32.000000
7,-59,20,1625340509.0,32.000000
6,-59,21,1625340509.0,32.000000
6,-59,21,1625340509.0,32.000000
6,-59,21,1625340509.0,32.000000
6,-59,21,1625340509.0,32.000000
6,-59,21,1625340509.0,32.000000
5,-59,21,1625340509.0,32.000000
5,-59,21,1625340509.0,32.000000
5,-59,22,1625340509.0,32.000000
5,-59,22,1625340509.0,32.000000
5,-59,22,1625340509.0,32.000000
6,-59,22,1625340509.0,32.000000
6,-59,22,1625340509.0,32.000000
6,-59,22,1625340509.0,32.000000
6,-58,22,1625340509.0,32.000000
6,-59,22,1625340509.0,32.000000
6,-58,22,1625340509.0,32.000000
6,-59,22,1625340509.0,32.000000
6,-58,23,1625340509.0,32.000000
6,-58,22,1625340509.0,32.000000
6,-59,22,1625340509.0,32.000000
6,-59,21,1625340509.0,32.000000
4,-59,20,1625340509.0,32.000000
7,-59,16,1625340509.0,32.000000
8,-60,12,1625340509.0,32.000000
6,-59,11,1625340509.0,32.000000
3,-57,15,1625340509.0,32.000000
3,-54,18,1625340509.0,32.000000
5,-53,23,1625340509.0,32.000000
7,-50,29,1625340509.0,32.000000
11,-49,32,1625340509.0,32.000000
13,-46,37,1625340509.0,32.000000
15,-43,41,1625340509.0,32.000000
12,-39,51,1625340509.0,32.000000
11,-37,55,1625340509.0,32.000000
17,-37,53,1625340509.0,32.000000
16,-34,55,1625340509.0,32.000000
18,-34,59,1625340509.0,32.000000
21,-33,63,1625340509.0,32.000000
23,-33,65,1625340509.0,32.000000
23,-32,63,1625340509.0,32.000000
26,-32,60,1625340509.0,32.000000
25,-32,60,1625340509.0,32.000000
25,-36,64,1625340509.0,32.000000
20,-34,69,1625340509.0,32.000000
10,-33,62,1625340509.0,32.000000
-21,-36,50,1625340509.0,32.000000
-27,-41,38,1625340509.0,32.000000
-29,-46,23,1625340509.0,32.000000
-29,-49,20,1625340509.0,32.000000
-13,-51,17,1625340509.0,32.000000
-17,-55,7,1625340509.0,32.000000
-13,-56,8,1625340509.0,32.000000
-2,-55,21,1625340509.0,32.000000
1,-54,24,1625340509.0,32.000000
8,-54,27,1625340509.0,32.000000
16,-52,42,1625340509.0,32.000000
21,-51,45,1625340509.0,32.000000
16,-50,38,1625340509.0,32.000000
12,-48,42,1625340509.0,32.000000
5,-47,48,1625340509.0,32.000000
-4,-48,46,1625340509.0,32.000000
-2,-49,43,1625340509.0,32.000000
4,-51,40,1625340509.0,32.000000
4,-51,37,1625340509.0,32.000000
2,-52,35,1625340509.0,32.000000
2,-53,34,1625340509.0,32.000000
3,-54,33,1625340509.0,32.000000
3,-54,32,1625340509.0,32.000000
4,-54,30,1625340509.0,32.000000
4,-54,31,1625340509.0,32.000000
5,-54,32,1625340509.0,32.000000
3,-54,31,1625340509.0,32.000000
3,-54,31,1625340509.0,32.000000
3,-54,31,1625340509.0,32.000000
4,-54,31,1625340509.0,32.000000
5,-54,32,1625340509.0,32.000000
5,-54,33,1625340509.0,32.000000
5,-54,34,1625340509.0,32.000000
6,-54,34,1625340509.0,32.000000
6,-53,34,1625340509.0,32.000000
6,-53,34,1625340509.0,32.000000
6,-53,33,1625340509.0,32.000000
5,-54,33,1625340509.0,32.000000
6,-53,33,1625340509.0,32.000000
6,-54,32,1625340509.0,32.000000
6,-54,32,1625340509.0,32.000000
4,-53,33,1625340509.0,32.000000
4,-53,33,1625340509.0,32.000000
5,-53,33,1625340509.0,32.000000
7,-53,34,1625340509.0,32.000000
6,-52,35,1625340509.0,32.000000
6,-52,34,1625340509.0,32.000000
4,-53,28,1625340509.0,32.000000
6,-54,27,1625340509.0,32.000000
6,-55,18,1625340509.0,32.000000
4,-55,18,1625340509.0,32.000000
-4,-50,30,1625340509.0,32.000000
0,-44,36,1625340509.0,32.000000
1,-42,37,1625340509.0,32.000000
6,-38,41,1625340509.0,32.000000
16,-36,48,1625340509.0,32.000000
21,-31,57,1625340509.0,32.000000
19,-28,69,1625340509.0,32.000000
17,-27,72,1625340509.0,32.000000
17,-28,70,1625340509.0,32.000000
16,-28,67,1625340509.0,32.000000
14,-29,61,1625340509.0,32.000000
14,-30,58,1625340509.0,32.000000
12,-31,55,1625340509.0,32.000000
9,-32,52,1625340509.0,32.000000
8,-32,51,1625340509.0,32.000000
10,-32,53,1625340509.0,32.000000
11,-32,54,1625340509.0,32.000000
11,-32,53,1625340509.0,32.000000
10,-32,54,1625340509.0,32.000000
10,-31,55,1625340509.0,32.000000
10,-32,55,1625340509.0,32.000000
10,-32,54,1625340509.0,32.000000
10,-32,54,1625340509.0,32.000000
10,-32,53,1625340509.0,32.000000
10,-32,53,1625340509.0,32.000000
10,-32,53,1625340509.0,32.000000
10,-32,53,1625340509.0,32.000000
10,-32,54,1625340509.0,32.000000
9,-32,54,1625340509.0,32.000000
10,-32,55,1625340509.0,32.000000
10,-32,54,1625340509.0,32.000000
9,-32,54,1625340509.0,32.000000
9,-32,54,1625340509.0,32.000000
9,-32,54,1625340509.0,32.000000
10,-32,54,1625340509.0,32.000000
10,-32,53,1625340509.0,32.000000
10,-32,53,1625340509.0,32.000000
12,-32,51,1625340509.0,32.000000
16,-31,49,1625340509.0,32.000000
20,-29,47,1625340509.0,32.000000
17,-34,46,1625340509.0,32.000000
23,-39,51,1625340509.0,32.000000
25,-29,60,1625340509.0,32.000000
22,-22,62,1625340509.0,32.000000
26,-20,61,1625340509.0,32.000000
25,-13,54,1625340509.0,32.000000
25,-9,56,1625340509.0,32.000000
29,-6,54,1625340509.0,32.000000
34,-5,53,1625340509.0,32.000000
36,-4,55,1625340509.0,32.000000
37,-5,55,1625340509.0,32.000000
39,-5,55,1625340509.0,32.000000
41,-6,51,1625340509.0,32.000000
37,-5,51,1625340509.0,32.000000
35,-5,50,1625340509.0,32.000000
35,-4,51,1625340509.0,32.000000
36,-2,53,1625340509.0,32.000000
36,0,52,1625340509.0,32.000000
35,0,51,1625340509.0,32.000000
36,0,52,1625340509.0,32.000000
36,-1,53,1625340509.0,32.000000
36,1,52,1625340509.0,32.000000
36,1,54,1625340509.0,32.000000
37,2,55,1625340509.0,32.000000
38,2,53,1625340509.0,32.000000
39,3,54,1625340509.0,32.000000
40,2,54,1625340509.0,32.000000
38,1,51,1625340509.0,32.000000
35,0,51,1625340509.0,32.000000
33,0,53,1625340509.0,32.000000
33,0,53,1625340509.0,32.000000
34,0,53,1625340509.0,32.000000
36,0,54,1625340509.0,32.000000
37,0,54,1625340509.0,32.000000
36,-1,53,1625340509.0,32.000000
34,0,52,1625340509.0,32.000000
35,-3,52,1625340509.0,32.000000
32,-2,52,1625340509.0,32.000000
34,-3,51,1625340509.0,32.000000
33,-5,50,1625340509.0,32.000000
32,-3,54,1625340509.0,32.000000
32,-3,53,1625340509.0,32.000000
29,1,55,1625340509.0,32.000000
32,4,58,1625340509.0,32.000000
29,1,57,1625340509.0,32.000000
25,1,59,1625340509.0,32.000000
24,1,62,1625340509.0,32.000000
21,-3,65,1625340509.0,32.000000
18,4,60,1625340509.0,32.000000
27,12,65,1625340509.0,32.000000
25,8,53,1625340509.0,32.000000
25,7,53,1625340509.0,32.000000
20,1,47,1625340509.0,32.000000
16,-2,47,1625340509.0,32.000000
1,-6,51,1625340509.0,32.000000
-3,-11,54,1625340509.0,32.000000
9,-18,57,1625340509.0,32.000000
-5,-23,62,1625340509.0,32.000000
-2,-24,65,1625340509.0,32.000000
-3,-25,68,1625340509.0,32.000000
-9,-21,74,1625340509.0,32.000000
-10,-20,76,1625340509.0,32.000000
-6,-12,92,1625340509.0,32.000000
-11,-5,86,1625340509.0,32.000000
-10,-1,63,1625340509.0,32.000000
-15,-1,55,1625340509.0,32.000000
-18,-1,56,1625340509.0,32.000000
-13,2,55,1625340509.0,32.000000
-15,1,57,1625340509.0,32.000000
-16,3,77,1625340509.0,32.000000
-27,5,73,1625340509.0,32.000000
-27,-1,63,1625340509.0,32.000000
-24,-4,63,1625340509.0,32.000000
-28,-4,61,1625340509.0,32.000000
-28,0,60,1625340509.0,32.000000
-28,0,60,1625340509.0,32.000000
-26,-1,58,1625340509.0,32.000000
-29,-1,58,1625340509.0,32.000000
-28,-1,59,1625340509.0,32.000000
-32,-1,58,1625340509.0,32.000000
-40,-2,54,1625340509.0,32.000000
-37,-3,54,1625340509.0,32.000000
-34,-2,55,1625340509.0,32.000000
-37,-1,53,1625340509.0,32.000000
-41,0,53,1625340509.0,32.000000
-42,1,53,1625340509.0,32.000000
-36,4,56,1625340509.0,32.000000
-36,1,54,1625340509.0,32.000000
-40,1,52,1625340509.0,32.000000
-38,0,53,1625340509.0,32.000000
-35,1,55,1625340509.0,32.000000
-38,0,54,1625340509.0,32.000000
-37,-2,54,1625340509.0,32.000000
-38,-2,54,1625340509.0,32.000000
-38,2,53,1625340509.0,32.000000
-36,2,54,1625340509.0,32.000000
-32,4,57,1625340509.0,32.000000
-33,2,55,1625340509.0,32.000000
-37,1,53,1625340509.0,32.000000
-39,2,53,1625340509.0,32.000000
-40,2,54,1625340509.0,32.000000
-40,1,53,1625340509.0,32.000000
-41,1,52,1625340509.0,32.000000
-42,1,51,1625340509.0,32.000000
-43,-1,51,1625340509.0,32.000000
-42,0,51,1625340509.0,32.000000
-40,0,52,1625340509.0,32.000000
-41,-1,50,1625340509.0,32.000000
-43,-1,51,1625340509.0,32.000000
-39,0,53,1625340509.0,32.000000
-40,1,52,1625340509.0,32.000000
-41,1,52,1625340509.0,32.000000
-40,1,52,1625340509.0,32.000000
-38,1,53,1625340509.0,32.000000
-39,0,52,1625340509.0,32.000000
-39,1,54,1625340509.0,32.000000
-38,1,53,1625340509.0,32.000000
-38,0,54,1625340509.0,32.000000
-39,0,53,1625340509.0,32.000000
-40,0,52,1625340509.0,32.000000
-39,-1,53,1625340509.0,32.000000
-40,-1,53,1625340509.0,32.000000
-39,0,53,1625340509.0,32.000000
-39,0,53,1625340509.0,32.000000
-40,1,52,1625340509.0,32.000000
-42,1,51,1625340509.0,32.000000
-44,1,50,1625340509.0,32.000000
-44,0,50,1625340509.0,32.000000
-42,0,51,1625340509.0,32.000000
-42,1,51,1625340509.0,32.000000
-42,1,51,1625340509.0,32.000000
-42,1,50,1625340509.0,32.000000
-42,1,51,1625340509.0,32.000000
-42,1,51,1625340509.0,32.000000
-42,0,50,1625340509.0,32.000000
-43,0,50,1625340509.0,32.000000
-42,0,50,1625340509.0,32.000000
-42,0,51,1625340509.0,32.000000
-43,0,50,1625340509.0,32.000000
-42,0,51,1625340509.0,32.000000
-43,0,50,1625340509.0,32.000000
-43,1,50,1625340509.0,32.000000
-43,0,50,1625340509.0,32.000000
-43,0,50,1625340509.0,32.000000
-44,0,50,1625340509.0,32.000000
-44,2,49,1625340509.0,32.000000
-45,1,49,1625340509.0,32.000000
-44,1,49,1625340509.0,32.000000
-44,0,49,1625340509.0,32.000000
-44,0,50,1625340509.0,32.000000
-44,1,49,1625340509.0,32.000000
-43,1,50,1625340509.0,32.000000
-44,1,49,1625340509.0,32.000000
-43,0,50,1625340509.0,32.000000
-44,0,50,1625340509.0,32.000000
-43,0,50,1625340509.0,32.000000
-44,1,49,1625340509.0,32.000000
-43,1,50,1625340509.0,32.000000
-44,1,49,1625340509.0,32.000000
-44,1,49,1625340509.0,32.000000
-44,0,49,1625340509.0,32.000000
-44,1,49,1625340509.0,32.000000
-43,1,50,1625340509.0,32.000000
-43,1,50,1625340509.0,32.000000
-43,1,50,1625340509.0,32.000000
-43,1,49,1625340509.0,32.000000
-44,0,50,1625340509.0,32.000000
-43,0,50,1625340509.0,32.000000
-43,0,50,1625340509.0,32.000000
-44,1,50,1625340509.0,32.000000
-44,0,49,1625340509.0,32.000000
-44,2,49,1625340509.0,32.000000
-45,2,48,1625340509.0,32.000000
-45,1,49,1625340509.0,32.000000
-44,1,49,1625340509.0,32.000000
-44,0,49,1625340509.0,32.000000
-44,1,49,1625340509.0,32.000000
-43,0,50,1625340509.0,32.000000
-44,0,50,1625340509.0,32.000000
-43,0,50,1625340509.0,32.000000
-44,0,49,1625340509.0,32.000000
-44,0,49,1625340509.0,32.000000
-44,1,49,1625340509.0,32.000000
-44,1,49,1625340509.0,32.000000
-44,1,49,1625340509.0,32.000000
-44,1,49,1625340509.0,32.000000
-45,1,49,1625340509.0,32.000000
-44,1,49,1625340509.0,32.000000
-44,1,49,1625340509.0,32.000000
-44,1,49,1625340509.0,32.000000
-44,1,49,1625340509.0,32.000000
-44,1,49,1625340509.0,32.000000
-44,1,49,1625340509.0,32.000000
-44,0,49,1625340509.0,32.000000
-44,0,49,1625340509.0,32.000000
-44,1,49,1625340509.0,32.000000
-44,1,49,1625340509.0,32.000000
-44,1,49,1625340509.0,32.000000
-44,1,49,1625340509.0,32.000000
-44,1,49,1625340509.0,32.000000
-44,1,49,1625340509.0,32.000000
-44,1,49,1625340509.0,32.000000
-44,1,49,1625340509.0,32.000000
-44,1,49,1625340509.0,32.000000
-44,1,49,1625340509.0,32.000000
-44,1,49,1625340509.0,32.000000
-44,0,49,1625340509.0,32.000000
-44,1,49,1625340509.0,32.000000
-44,1,49,1625340509.0,32.000000
-44,1,49,1625340509.0,32.000000
-44,1,49,1625340509.0,32.000000
-44,1,49,1625340509.0,32.000000
-44,1,49,1625340509.0,32.000000
-44,1,49,1625340509.0,32.000000
-44,1,49,1625340509.0,32.000000
-44,1,49,1625340509.0,32.000000
-44,1,49,1625340509.0,32.000000
-44,1,49,1625340509.0,32.000000
-44,1,49,1625340509.0,32.000000
-45,1,49,1625340509.0,32.000000
-44,1,49,1625340509.0,32.000000
-44,1,49,1625340509.0,32.000000
-45,1,49,1625340509.0,32.000000
-45,0,49,1625340509.0,32.000000
-44,1,49,1625340509.0,32.000000
-43,0,49,1625340509.0,32.000000
-45,0,49,1625340509.0,32.000000
-44,1,49,1625340509.0,32.000000
-44,1,49,1625340509.0,32.000000
-44,1,49,1625340509.0,32.000000
-44,0,49,1625340509.0,32.000000
-44,1,49,1625340509.0,32.000000
-44,1,49,1625340509.0,32.000000
-45,0,48,1625340509.0,32.000000
-44,1,49,1625340509.0,32.000000
-44,1,49,1625340509.0,32.000000
-44,1,49,1625340509.0,32.000000
-44,1,49,1625340509.0,32.000000
-45,1,49,1625340509.0,32.000000
-44,1,49,1625340509.0,32.000000
-44,1,49,1625340509.0,32.000000
-45,1,48,1625340509.0,32.000000
-43,1,50,1625340509.0,32.000000
-44,1,49,1625340509.0,32.000000
-44,1,49,1625340509.0,32.000000
-44,1,50,1625340509.0,32.000000
-43,1,50,1625340509.0,32.000000
-44,1,49,1625340509.0,32.000000
-44,1,49,1625340509.0,32.000000
-44,1,50,1625340509.0,32.000000
-43,1,49,1625340509.0,32.000000
-44,1,50,1625340509.0,32.000000
-44,1,49,1625340509.0,32.000000
-44,1,49,1625340509.0,32.000000
-44,0,50,1625340509.0,32.000000
-44,1,49,1625340509.0,32.000000
-44,0,49,1625340509.0,32.000000
-44,1,49,1625340509.0,32.000000
-44,1,49,1625340509.0,32.000000
-44,1,49,1625340509.0,32.000000
-44,1,49,1625340509.0,32.000000
-44,1,49,1625340509.0,32.000000
-44,1,49,1625340509.0,32.000000
-44,1,49,1625340509.0,32.000000
-44,1,49,1625340509.0,32.000000
-44,1,49,1625340509.0,32.000000
-44,1,49,1625340509.0,32.000000
-44,1,49,1625340509.0,32.000000
-44,1,49,1625340509.0,32.000000
-44,1,49,1625340509.0,32.000000
-44,1,49,1625340509.0,32.000000
-45,1,49,1625340509.0,32.000000
-44,1,49,1625340509.0,32.000000
-44,1,49,1625340509.0,32.000000
-44,1,49,1625340509.0,32.000000
-44,1,49,1625340509.0,32.000000
-44,1,49,1625340509.0,32.000000
-44,1,49,1625340509.0,32.000000
-44,1,49,1625340509.0,32.000000
-44,1,49,1625340509.0,32.000000
-44,1,49,1625340509.0,32.000000
-44,1,49,1625340509.0,32.000000
-44,1,49,1625340509.0,32.000000
-44,1,49,1625340509.0,32.000000
-44,1,49,1625340509.0,32.000000
-44,1,49,1625340509.0,32.000000
-44,1,49,1625340509.0,32.000000
-44,1,49,1625340509.0,32.000000
-44,1,49,1625340509.0,32.000000
-44,1,49,1625340509.0,32.000000
-44,1,49,1625340509.0,32.000000
-44,1,49,1625340509.0,32.000000
-44,1,49,1625340509.0,32.000000
-44,1,49,1625340509.0,32.000000
-44,1,49,1625340509.0,32.000000
-44,1,49,1625340509.0,32.000000
-44,1,49,1625340509.0,32.000000
-44,1,49,1625340509.0,32.000000
-44,1,49,1625340509.0,32.000000
-44,1,49,1625340509.0,32.000000
-44,1,49,1625340509.0,32.000000
-44,1,49,1625340509.0,32.000000
-44,1,49,1625340509.0,32.000000
-44,1,49,1625340509.0,32.000000
-44,1,49,1625340509.0,32.000000
-44,1,49,1625340509.0,32.000000
-44,1,49,1625340509.0,32.000000
-44,1,49,1625340509.0,32.000000
-44,1,49,1625340509.0,32.000000
-44,1,49,1625340509.0,32.000000
-44,1,49,1625340509.0,32.000000
-44,1,49,1625340509.0,32.000000
-44,1,49,1625340509.0,32.000000
-44,1,49,1625340509.0,32.000000
-44,1,49,1625340509.0,32.000000
-44,1,49,1625340509.0,32.000000
-44,1,49,1625340509.0,32.000000
-44,1,49,1625340509.0,32.000000
-44,1,49,1625340509.0,32.000000
-44,1,49,1625340509.0,32.000000
-44,1,49,1625340509.0,32.000000
-44,1,49,1625340509.0,32.000000
-44,1,49,1625340509.0,32.000000
-44,1,49,1625340509.0,32.000000
-44,1,49,1625340509.0,32.000000
-44,1,49,1625340509.0,32.000000
-44,1,49,1625340509.0,32.000000
-44,1,49,1625340509.0,32.000000
-44,1,49,1625340509.0,32.000000
-44,1,49,1625340509.0,32.000000
-44,1,49,1625340509.0,32.000000
-44,1,49,1625340509.0,32.000000
-44,1,49,1625340509.0,32.000000
-44,1,49,1625340509.0,32.000000
-44,1,49,1625340509.0,32.000000
-44,1,49,1625340509.0,32.000000
-44,1,49,1625340509.0,32.000000
-44,1,49,1625340509.0,32.000000
-44,1,49,1625340509.0,32.000000
-44,1,49,1625340509.0,32.000000
-44,1,49,1625340509.0,32.000000
-44,1,49,1625340509.0,32.000000
-44,1,49,1625340509.0,32.000000
-44,1,49,1625340509.0,32.000000
-44,1,49,1625340509.0,32.000000
-44,1,49,1625340509.0,32.000000
-44,1,49,1625340509.0,32.000000
-44,1,49,1625340509.0,32.000000
-44,1,49,1625340509.0,32.000000
-44,1,49,1625340509.0,32.000000
-44,1,49,1625340509.0,32.000000
-44,1,49,1625340509.0,32.000000
-44,1,49,1625340509.0,32.000000
-44,1,49,1625340509.0,32.000000
-44,1,49,1625340509.0,32.000000
-44,1,49,1625340509.0,32.000000
-44,1,49,1625340509.0,32.000000
-44,1,49,1625340509.0,32.000000
-44,1,49,1625340509.0,32.000000
-44,1,49,1625340509.0,32.000000
-44,1,49,1625340509.0,32.000000
-44,1,49,1625340509.0,32.000000
-44,1,49,1625340509.0,32.000000
-44,1,49,1625340509.0,32.000000
-44,1,49,1625340509.0,32.000000
-44,1,49,1625340509.0,32.000000
-44,1,49,1625340509.0,32.000000
-44,1,49,1625340509.0,32.000000
-44,1,49,1625340509.0,32.000000
-44,1,49,1625340509.0,32.000000
-44,1,49,1625340509.0,32.000000
-44,1,49,1625340509.0,32.000000
-44,1,49,1625340509.0,32.000000
-44,1,49,1625340509.0,32.000000
-44,1,49,1625340509.0,32.000000
-44,1,49,1625340509.0,32.000000
-44,1,49,1625340509.0,32.000000
-44,1,49,1625340509.0,32.000000
-44,1,49,1625340509.0,32.000000
-44,1,49,1625340509.0,32.000000
-44,1,49,1625340509.0,32.000000
-44,1,49,1625340509.0,32.000000
-44,1,49,1625340509.0,32.000000
-44,1,49,1625340509.0,32.000000
-44,1,49,1625340509.0,32.000000
-44,1,49,1625340509.0,32.000000
-44,1,49,1625340509.0,32.000000
-44,1,49,1625340509.0,32.000000
-44,1,49,1625340509.0,32.000000
-44,1,49,1625340509.0,32.000000
-44,1,49,1625340509.0,32.000000
-44,1,49,1625340509.0,32.000000
-44,1,49,1625340509.0,32.000000
-44,1,49,1625340509.0,32.000000
-44,1,49,1625340509.0,32.000000
-44,1,49,1625340509.0,32.000000
-44,1,49,1625340509.0,32.000000
-44,1,49,1625340509.0,32.000000
-44,1,49,1625340509.0,32.000000
-44,1,49,1625340509.0,32.000000
-44,1,49,1625340509.0,32.000000
-44,1,49,1625340509.0,32.000000
-44,1,49,1625340509.0,32.000000
-44,1,49,1625340509.0,32.000000
-44,1,49,1625340509.0,32.000000
-44,1,49,1625340509.0,32.000000
-44,1,49,1625340509.0,32.000000
-44,1,49,1625340509.0,32.000000
-44,1,49,1625340509.0,32.000000
-44,1,49,1625340509.0,32.000000
-44,1,49,1625340509.0,32.000000
-44,1,49,1625340509.0,32.000000
-44,1,49,1625340509.0,32.000000
-44,1,49,1625340509.0,32.000000
-44,1,49,1625340509.0,32.000000
-44,1,49,1625340509.0,32.000000
-44,1,49,1625340509.0,32.000000
-44,1,49,1625340509.0,32.000000
-44,1,49,1625340509.0,32.000000
-44,1,49,1625340509.0,32.000000
-44,1,49,1625340509.0,32.000000
-44,1,49,1625340509.0,32.000000
-44,1,49,1625340509.0,32.000000
-44,1,49,1625340509.0,32.000000
-44,1,49,1625340509.0,32.000000
-44,1,49,1625340509.0,32.000000
-44,1,49,1625340509.0,32.000000
-44,1,49,1625340509.0,32.000000
-44,1,49,1625340509.0,32.000000
-44,1,49,1625340509.0,32.000000
-44,1,49,1625340509.0,32.000000
-44,1,49,1625340509.0,32.000000
-44,1,49,1625340509.0,32.000000
-44,1,49,1625340509.0,32.000000
-44,1,49,1625340509.0,32.000000
-44,1,49,1625340509.0,32.000000
-44,1,49,1625340509.0,32.000000
-44,1,49,1625340509.0,32.000000
-45,1,49,1625340509.0,32.000000
-45,1,50,1625340509.0,32.000000
-45,0,49,1625340509.0,32.000000
-44,1,50,1625340509.0,32.000000
-44,0,50,1625340509.0,32.000000
-44,0,50,1625340509.0,32.000000
-42,0,51,1625340509.0,32.000000
-42,0,51,1625340509.0,32.000000
-43,0,53,1625340509.0,32.000000
-41,0,51,1625340509.0,32.000000
-39,0,54,1625340509.0,32.000000
-40,1,55,1625340509.0,32.000000
-36,-1,57,1625340509.0,32.000000
-35,-2,56,1625340509.0,32.000000
-28,-2,55,1625340509.0,32.000000
-25,-2,55,1625340509.0,32.000000
-32,-1,54,1625340509.0,32.000000
-17,-1,63,1625340509.0,32.000000
-13,0,66,1625340509.0,32.000000
-22,-1,63,1625340509.0,32.000000
-24,-3,61,1625340509.0,32.000000
-24,-3,58,1625340509.0,32.000000
-22,-3,61,1625340509.0,32.000000
-21,-3,62,1625340509.0,32.000000
-21,-2,62,1625340509.0,32.000000
-21,-2,62,1625340509.0,32.000000
-23,-2,61,1625340509.0,32.000000
-25,-2,59,1625340509.0,32.000000
-26,-2,59,1625340509.0,32.000000
-27,-2,60,1625340509.0,32.000000
-27,-1,59,1625340509.0,32.000000
-29,-1,59,1625340509.0,32.000000
-30,-1,58,1625340509.0,32.000000
-33,-2,57,1625340509.0,32.000000
-36,0,58,1625340509.0,32.000000
-36,-1,57,1625340509.0,32.000000
-32,-1,55,1625340509.0,32.000000
-34,-1,55,1625340509.0,32.000000
-37,-2,54,1625340509.0,32.000000
-35,-1,55,1625340509.0,32.000000
-35,-1,55,1625340509.0,32.000000
-37,-1,55,1625340509.0,32.000000
-40,-1,53,1625340509.0,32.000000
-41,-1,52,1625340509.0,32.000000
-40,-1,52,1625340509.0,32.000000
-40,-1,52,1625340509.0,32.000000
-42,-1,51,1625340509.0,32.000000
-42,-1,51,1625340509.0,32.000000
-42,-1,50,1625340509.0,32.000000
-42,-1,51,1625340509.0,32.000000
-42,-1,50,1625340509.0,32.000000
-43,-1,50,1625340509.0,32.000000
-44,-1,50,1625340509.0,32.000000
-43,-1,50,1625340509.0,32.000000
-43,-1,50,1625340509.0,32.000000
-43,-1,50,1625340509.0,32.000000
-43,-1,50,1625340509.0,32.000000
-43,-1,50,1625340509.0,32.000000
-43,-1,50,1625340509.0,32.000000
-43,-1,50,1625340509.0,32.000000
-43,-1,50,1625340509.0,32.000000
-43,-1,50,1625340509.0,32.000000
-43,-1,50,1625340509.0,32.000000
-43,-1,50,1625340509.0,32.000000
-43,-1,50,1625340509.0,32.000000
-43,-1,50,1625340509.0,32.000000
-43,-1,50,1625340509.0,32.000000
-43,-1,50,1625340509.0,32.000000
-44,-1,50,1625340509.0,32.000000
-43,-1,50,1625340509.0,32.000000
-44,-1,49,1625340509.0,32.000000
-44,0,49,1625340509.0,32.000000
-43,-1,50,1625340509.0,32.000000
-45,-1,49,1625340509.0,32.000000
-44,-1,49,1625340509.0,32.000000
-44,-2,50,1625340509.0,32.000000
-45,1,50,1625340509.0,32.000000
-43,1,52,1625340509.0,32.000000
-40,3,53,1625340509.0,32.000000
-40,3,52,1625340509.0,32.000000
-40,2,53,1625340509.0,32.000000
-36,3,56,1625340509.0,32.000000
-35,2,56,1625340509.0,32.000000
-32,2,56,1625340509.0,32.000000
-32,2,56,1625340509.0,32.000000
-31,2,56,1625340509.0,32.000000
-33,3,57,1625340509.0,32.000000
-31,2,57,1625340509.0,32.000000
-28,3,58,1625340509.0,32.000000
-29,3,59,1625340509.0,32.000000
-30,3,59,1625340509.0,32.000000
-27,5,59,1625340509.0,32.000000
-26,5,60,1625340509.0,32.000000
-22,4,62,1625340509.0,32.000000
-21,4,62,1625340509.0,32.000000
-19,4,62,1625340509.0,32.000000
-21,4,61,1625340509.0,32.000000
-22,5,61,1625340509.0,32.000000
-22,5,62,1625340509.0,32.000000
-21,5,61,1625340509.0,32.000000
-22,5,61,1625340509.0,32.000000
-23,5,61,1625340509.0,32.000000
-23,5,61,1625340509.0,32.000000
-24,5,62,1625340509.0,32.000000
-24,5,62,1625340509.0,32.000000
-24,4,64,1625340509.0,32.000000
-23,3,64,1625340509.0,32.000000
-25,3,66,1625340509.0,32.000000
-29,1,63,1625340509.0,32.000000
-31,1,60,1625340509.0,32.000000
-17,-3,59,1625340509.0,32.000000
-15,-4,55,1625340509.0,32.000000
-20,-2,52,1625340509.0,32.000000
-23,1,59,1625340509.0,32.000000
-24,1,61,1625340509.0,32.000000
-31,3,60,1625340509.0,32.000000
-35,2,60,1625340509.0,32.000000
-33,0,61,1625340509.0,32.000000
-30,-1,63,1625340509.0,32.000000
-31,-4,63,1625340509.0,32.000000
-27,-2,63,1625340509.0,32.000000
-26,-2,61,1625340509.0,32.000000
-27,0,62,1625340509.0,32.000000
-27,1,62,1625340509.0,32.000000
-24,1,61,1625340509.0,32.000000
-17,1,58,1625340509.0,32.000000
-19,2,55,1625340509.0,32.000000
-16,1,53,1625340509.0,32.000000
-11,2,57,1625340509.0,32.000000
-12,1,54,1625340509.0,32.000000
-8,3,60,1625340509.0,32.000000
-3,2,71,1625340509.0,32.000000
-14,2,69,1625340509.0,32.000000
-46,-3,68,1625340509.0,32.000000
-11,3,72,1625340509.0,32.000000
-5,8,59,1625340509.0,32.000000
-8,8,56,1625340509.0,32.000000
-15,4,65,1625340509.0,32.000000
-18,-3,58,1625340509.0,32.000000
-16,-5,56,1625340509.0,32.000000
-8,-8,75,1625340509.0,32.000000
-11,-5,69,1625340509.0,32.000000
-22,-7,65,1625340509.0,32.000000
-12,-4,67,1625340509.0,32.000000
-18,-2,64,1625340509.0,32.000000
-19,1,61,1625340509.0,32.000000
-15,0,65,1625340509.0,32.000000
-7,-1,64,1625340509.0,32.000000
-17,-2,61,1625340509.0,32.000000
-13,-2,59,1625340509.0,32.000000
-8,-1,65,1625340509.0,32.000000
-12,0,64,1625340509.0,32.000000
-7,-2,64,1625340509.0,32.000000
-5,-1,63,1625340509.0,32.000000
-9,-7,61,1625340509.0,32.000000
-12,-8,60,1625340509.0,32.000000
-12,-6,59,1625340509.0,32.000000
-3,-11,64,1625340509.0,32.000000
4,-11,62,1625340509.0,32.000000
-2,-24,67,1625340509.0,32.000000
9,-18,65,1625340509.0,32.000000
2,-19,66,1625340509.0,32.000000
-1,-19,64,1625340509.0,32.000000
-1,-18,62,1625340509.0,32.000000
0,-16,64,1625340509.0,32.000000
-1,-15,62,1625340509.0,32.000000
1,-14,64,1625340509.0,32.000000
-4,-13,60,1625340509.0,32.000000
-8,-13,59,1625340509.0,32.000000
-2,-13,64,1625340509.0,32.000000
-6,-14,62,1625340509.0,32.000000
-1,-14,64,1625340509.0,32.000000
-4,-14,63,1625340509.0,32.000000
0,-14,64,1625340509.0,32.000000
-1,-13,63,1625340509.0,32.000000
-2,-12,63,1625340509.0,32.000000
-4,-13,61,1625340509.0,32.000000
-4,-13,63,1625340509.0,32.000000
-2,-12,63,1625340509.0,32.000000
-7,-14,61,1625340509.0,32.000000
-2,-14,64,1625340509.0,32.000000
-1,-15,63,1625340509.0,32.000000
-3,-15,63,1625340509.0,32.000000
-3,-15,63,1625340509.0,32.000000
-2,-15,63,1625340509.0,32.000000
-2,-14,63,1625340509.0,32.000000
-2,-15,64,1625340509.0,32.000000
-3,-15,62,1625340509.0,32.000000
-4,-15,62,1625340509.0,32.000000
-2,-14,64,1625340509.0,32.000000
-2,-12,64,1625340509.0,32.000000
-5,-12,61,1625340509.0,32.000000
-3,-11,63,1625340509.0,32.000000
-1,-12,64,1625340509.0,32.000000
0,-13,67,1625340509.0,32.000000
-7,-14,63,1625340509.0,32.000000
-8,-11,65,1625340509.0,32.000000
-13,-16,59,1625340509.0,32.000000
-15,-17,60,1625340509.0,32.000000
-18,-19,59,1625340509.0,32.000000
-16,-19,62,1625340509.0,32.000000
-15,-19,68,1625340509.0,32.000000
-27,-21,61,1625340509.0,32.000000
-32,-22,60,1625340509.0,32.000000
-39,-22,59,1625340509.0,32.000000
-31,-31,62,1625340509.0,32.000000
-36,-31,60,1625340509.0,32.000000
-29,-31,59,1625340509.0,32.000000
-28,-32,57,1625340509.0,32.000000
-25,-32,56,1625340509.0,32.000000
-22,-30,58,1625340509.0,32.000000
-19,-31,56,1625340509.0,32.000000
-16,-30,52,1625340509.0,32.000000
-12,-30,50,1625340509.0,32.000000
1,-30,45,1625340509.0,32.000000
4,-30,43,1625340509.0,32.000000
10,-32,39,1625340509.0,32.000000
12,-33,41,1625340509.0,32.000000
11,-35,38,1625340509.0,32.000000
5,-36,40,1625340509.0,32.000000
0,-37,42,1625340509.0,32.000000
1,-32,56,1625340509.0,32.000000
-9,-31,58,1625340509.0,32.000000
-16,-31,48,1625340509.0,32.000000
-37,-32,25,1625340509.0,32.000000
-45,-27,25,1625340509.0,32.000000
-45,-25,19,1625340509.0,32.000000
-47,-19,10,1625340509.0,32.000000
-53,-16,8,1625340509.0,32.000000
-53,-9,20,1625340509.0,32.000000
-58,-8,20,1625340509.0,32.000000
-64,-6,26,1625340509.0,32.000000
-71,-8,26,1625340509.0,32.000000
-71,-24,27,1625340509.0,32.000000
-82,-12,34,1625340509.0,32.000000
-83,-11,28,1625340509.0,32.000000
-82,-9,26,1625340509.0,32.000000
-88,-5,28,1625340509.0,32.000000
-86,-2,35,1625340509.0,32.000000
-91,-3,36,1625340509.0,32.000000
-89,-5,38,1625340509.0,32.000000
-80,-7,38,1625340509.0,32.000000
-71,-9,34,1625340509.0,32.000000
-48,-12,26,1625340509.0,32.000000
-25,-24,7,1625340509.0,32.000000
-20,-29,4,1625340509.0,32.000000
-12,-26,15,1625340509.0,32.000000
-10,-28,18,1625340509.0,32.000000
-13,-38,13,1625340509.0,32.000000
-13,-35,23,1625340509.0,32.000000
-14,-37,26,1625340509.0,32.000000
-16,-27,40,1625340509.0,32.000000
-16,-24,46,1625340509.0,32.000000
-14,-18,52,1625340509.0,32.000000
-12,-4,64,1625340509.0,32.000000
1,-2,70,1625340509.0,32.000000
13,-3,80,1625340509.0,32.000000
15,-5,84,1625340509.0,32.000000
14,-4,90,1625340509.0,32.000000
0,1,89,1625340509.0,32.000000
-9,0,75,1625340509.0,32.000000
-15,-1,58,1625340509.0,32.000000
-17,-1,58,1625340509.0,32.000000
-14,1,57,1625340509.0,32.000000
-16,4,62,1625340509.0,32.000000
-16,6,71,1625340509.0,32.000000
-17,3,71,1625340509.0,32.000000
-19,2,66,1625340509.0,32.000000
-17,0,62,1625340509.0,32.000000
-17,0,62,1625340509.0,32.000000
-16,1,62,1625340509.0,32.000000
-20,2,63,1625340509.0,32.000000
-20,1,62,1625340509.0,32.000000
-17,1,62,1625340509.0,32.000000
-17,1,62,1625340509.0,32.000000
-18,1,63,1625340509.0,32.000000
-18,0,62,1625340509.0,32.000000
-17,0,63,1625340509.0,32.000000
-17,1,63,1625340509.0,32.000000
-17,1,63,1625340509.0,32.000000
-18,1,63,1625340509.0,32.000000
-19,1,63,1625340509.0,32.000000
-18,1,63,1625340509.0,32.000000
-17,1,62,1625340509.0,32.000000
-16,0,62,1625340509.0,32.000000
-16,1,63,1625340509.0,32.000000
-18,1,63,1625340509.0,32.000000
-19,1,62,1625340509.0,32.000000
-19,1,63,1625340509.0,32.000000
-20,1,63,1625340509.0,32.000000
-20,1,62,1625340509.0,32.000000
-19,1,62,1625340509.0,32.000000
-19,1,62,1625340509.0,32.000000
-19,1,62,1625340509.0,32.000000
-19,1,62,1625340509.0,32.000000
-19,1,62,1625340509.0,32.000000
-19,1,62,1625340509.0,32.000000
-19,1,62,1625340509.0,32.000000
-19,1,62,1625340509.0,32.000000
-19,1,62,1625340509.0,32.000000
-19,1,62,1625340509.0,32.000000
-19,1,62,1625340509.0,32.000000
-19,1,62,1625340509.0,32.000000
-19,1,62,1625340509.0,32.000000
-19,1,62,1625340509.0,32.000000
-20,1,62,1625340509.0,32.000000
-19,1,62,1625340509.0,32.000000
-19,1,62,1625340509.0,32.000000
-19,1,62,1625340509.0,32.000000
-19,1,62,1625340509.0,32.000000
-19,1,62,1625340509.0,32.000000
-19,1,62,1625340509.0,32.000000
-19,1,62,1625340509.0,32.000000
-19,1,62,1625340509.0,32.000000
-19,1,62,1625340509.0,32.000000
-19,1,62,1625340509.0,32.000000
-19,1,62,1625340509.0,32.000000
-19,1,62,1625340509.0,32.000000
-19,1,62,1625340509.0,32.000000
-19,1,62,1625340509.0,32.000000
-19,1,62,1625340509.0,32.000000
-19,1,62,1625340509.0,32.000000
-19,1,62,1625340509.0,32.000000
-19,1,62,1625340509.0,32.000000
-20,1,62,1625340509.0,32.000000
-19,1,62,1625340509.0,32.000000
-19,1,62,1625340509.0,32.000000
-18,1,63,1625340509.0,32.000000
-18,1,62,1625340509.0,32.000000
-19,1,63,1625340509.0,32.000000
-20,1,62,1625340509.0,32.000000
-20,1,62,1625340509.0,32.000000
-21,1,62,1625340509.0,32.000000
-19,1,62,1625340509.0,32.000000
-18,1,62,1625340509.0,32.000000
-18,1,62,1625340509.0,32.000000
-19,1,63,1625340509.0,32.000000
-19,1,62,1625340509.0,32.000000
-19,1,62,1625340509.0,32.000000
-19,1,62,1625340509.0,32.000000
-19,1,63,1625340509.0,32.000000
-18,1,63,1625340509.0,32.000000
-18,1,62,1625340509.0,32.000000
-19,1,62,1625340509.0,32.000000
-19,1,62,1625340509.0,32.000000
-19,1,62,1625340509.0,32.000000
-19,1,62,1625340509.0,32.000000
-19,1,63,1625340509.0,32.000000
-19,1,62,1625340509.0,32.000000
-19,1,62,1625340509.0,32.000000
-19,1,62,1625340509.0,32.000000
-19,1,62,1625340509.0,32.000000
-19,1,62,1625340509.0,32.000000
-19,1,62,1625340509.0,32.000000
-19,1,62,1625340509.0,32.000000
-19,1,62,1625340509.0,32.000000
-19,1,62,1625340509.0,32.000000
-18,1,62,1625340509.0,32.000000
-19,1,62,1625340509.0,32.000000
-19,1,62,1625340509.0,32.000000
-19,1,62,1625340509.0,32.000000
-19,1,62,1625340509.0,32.000000
-19,1,62,1625340509.0,32.000000
-19,1,62,1625340509.0,32.000000
-19,1,62,1625340509.0,32.000000
-19,1,62,1625340509.0,32.000000
-19,1,62,1625340509.0,32.000000
-18,1,63,1625340509.0,32.000000
-19,1,62,1625340509.0,32.000000
-19,1,62,1625340509.0,32.000000
-20,1,62,1625340509.0,32.000000
-19,1,62,1625340509.0,32.000000
-19,1,62,1625340509.0,32.000000
-19,1,62,1625340509.0,32.000000
-19,1,62,1625340509.0,32.000000
-19,1,62,1625340509.0,32.000000
-19,1,62,1625340509.0,32.000000
-19,1,62,1625340509.0,32.000000
-19,1,62,1625340509.0,32.000000
-19,1,62,1625340509.0,32.000000
-19,1,62,1625340509.0,32.000000
-19,1,62,1625340509.0,32.000000
-19,1,62,1625340509.0,32.000000
-19,1,63,1625340509.0,32.000000
-19,1,62,1625340509.0,32.000000
-19,1,62,1625340509.0,32.000000
-19,1,62,1625340509.0,32.000000
-19,1,62,1625340509.0,32.000000
-19,1,62,1625340509.0,32.000000
-19,1,62,1625340509.0,32.000000
-19,1,62,1625340509.0,32.000000
-19,1,62,1625340509.0,32.000000
-19,1,62,1625340509.0,32.000000
-19,1,62,1625340509.0,32.000000
-19,1,63,1625340509.0,32.000000
-19,1,62,1625340509.0,32.000000
-19,1,62,1625340509.0,32.000000
-19,1,62,1625340509.0,32.000000
-19,1,63,1625340509.0,32.000000
-19,1,62,1625340509.0,32.000000
-19,1,62,1625340509.0,32.000000
-19,1,62,1625340509.0,32.000000
-19,1,62,1625340509.0,32.000000
-19,1,62,1625340509.0,32.000000
-19,1,62,1625340509.0,32.000000
-19,1,62,1625340509.0,32.000000
-19,1,62,1625340509.0,32.000000
-19,1,62,1625340509.0,32.000000
-19,1,62,1625340509.0,32.000000
-19,1,62,1625340509.0,32.000000
-19,1,62,1625340509.0,32.000000
-19,1,62,1625340509.0,32.000000
-19,1,62,1625340509.0,32.000000
-19,1,62,1625340509.0,32.000000
-19,1,62,1625340509.0,32.000000
-19,1,62,1625340509.0,32.000000
-19,1,62,1625340509.0,32.000000
-19,1,63,1625340509.0,32.000000
-19,1,62,1625340509.0,32.000000
-19,1,62,1625340509.0,32.000000
-19,1,62,1625340509.0,32.000000
-19,1,62,1625340509.0,32.000000
-19,1,63,1625340509.0,32.000000
-19,1,62,1625340509.0,32.000000
-19,1,62,1625340509.0,32.000000
-19,1,62,1625340509.0,32.000000
-19,1,62,1625340509.0,32.000000
-19,1,62,1625340509.0,32.000000
-19,1,62,1625340509.0,32.000000
-18,1,63,1625340509.0,32.000000
-18,1,62,1625340509.0,32.000000
-18,1,62,1625340509.0,32.000000
-18,1,64,1625340509.0,32.000000
-19,0,62,1625340509.0,32.000000
-22,1,62,1625340509.0,32.000000
-22,2,62,1625340509.0,32.000000
-18,2,63,1625340509.0,32.000000
-16,1,62,1625340509.0,32.000000
-17,0,63,1625340509.0,32.000000
-18,0,62,1625340509.0,32.000000
-18,1,63,1625340509.0,32.000000
-19,1,63,1625340509.0,32.000000
-19,2,63,1625340509.0,32.000000
-18,1,62,1625340509.0,32.000000
-19,0,62,1625340509.0,32.000000
-19,1,63,1625340509.0,32.000000
-19,1,62,1625340509.0,32.000000
-18,1,62,1625340509.0,32.000000
-18,1,62,1625340509.0,32.000000
-18,1,63,1625340509.0,32.000000
-18,1,63,1625340509.0,32.000000
-18,1,62,1625340509.0,32.000000
-18,1,62,1625340509.0,32.000000
-18,1,63,1625340509.0,32.000000
-18,1,62,1625340509.0,32.000000
-18,1,62,1625340509.0,32.000000
-19,1,63,1625340509.0,32.000000
-19,1,63,1625340509.0,32.000000
-18,1,62,1625340509.0,32.000000
-19,1,63,1625340509.0,32.000000
-19,1,63,1625340509.0,32.000000
-18,1,62,1625340509.0,32.000000
-18,1,63,1625340509.0,32.000000
-18,1,62,1625340509.0,32.000000
-18,1,62,1625340509.0,32.000000
-18,1,62,1625340509.0,32.000000
-18,1,63,1625340509.0,32.000000
-18,1,63,1625340509.0,32.000000
-18,1,62,1625340509.0,32.000000
-18,1,63,1625340509.0,32.000000
-18,1,62,1625340509.0,32.000000
-18,1,62,1625340509.0,32.000000
-18,1,62,1625340509.0,32.000000
-18,1,63,1625340509.0,32.000000
-18,1,62,1625340509.0,32.000000
-18,1,62,1625340509.0,32.000000
-18,1,62,1625340509.0,32.000000
-19,1,63,1625340509.0,32.000000
-18,1,62,1625340509.0,32.000000
-18,1,62,1625340509.0,32.000000
-18,1,62,1625340509.0,32.000000
-18,1,63,1625340509.0,32.000000
-18,1,63,1625340509.0,32.000000
-18,1,62,1625340509.0,32.000000
-18,1,62,1625340509.0,32.000000
-18,1,63,1625340509.0,32.000000
-18,1,62,1625340509.0,32.000000
-18,1,62,1625340509.0,32.000000
-18,1,62,1625340509.0,32.000000
-18,1,62,1625340509.0,32.000000
-19,1,62,1625340509.0,32.000000
-18,1,63,1625340509.0,32.000000
-18,0,62,1625340509.0,32.000000
-20,2,63,1625340509.0,32.000000
-21,1,62,1625340509.0,32.000000
-18,2,62,1625340509.0,32.000000
-16,1,62,1625340509.0,32.000000
-16,1,63,1625340509.0,32.000000
-19,1,63,1625340509.0,32.000000
-19,0,63,1625340509.0,32.000000
-19,1,62,1625340509.0,32.000000
-19,2,63,1625340509.0,32.000000
-18,1,63,1625340509.0,32.000000
-18,0,62,1625340509.0,32.000000
-19,0,62,1625340509.0,32.000000
-19,1,63,1625340509.0,32.000000
-18,1,62,1625340509.0,32.000000
-18,1,62,1625340509.0,32.000000
-18,1,62,1625340509.0,32.000000
-18,1,63,1625340509.0,32.000000
-18,0,63,1625340509.0,32.000000
-18,1,63,1625340509.0,32.000000
-19,1,62,1625340509.0,32.000000
-19,1,62,1625340509.0,32.000000
-19,1,62,1625340509.0,32.000000
-19,1,62,1625340509.0,32.000000
-19,1,62,1625340509.0,32.000000
-18,1,63,1625340509.0,32.000000
-19,1,62,1625340509.0,32.000000
-18,1,63,1625340509.0,32.000000
-18,1,62,1625340509.0,32.000000
-18,1,62,1625340509.0,32.000000
-18,1,62,1625340509.0,32.000000
-18,1,62,1625340509.0,32.000000
-18,1,62,1625340509.0,32.000000
-19,1,62,1625340509.0,32.000000
-19,1,62,1625340509.0,32.000000
-18,1,62,1625340509.0,32.000000
-18,1,62,1625340509.0,32.000000
-18,1,62,1625340509.0,32.000000
-18,1,63,1625340509.0,32.000000
-18,1,62,1625340509.0,32.000000
-18,1,62,1625340509.0,32.000000
-18,1,62,1625340509.0,32.000000
-18,1,62,1625340509.0,32.000000
-18,1,63,1625340509.0,32.000000
-18,1,62,1625340509.0,32.000000
-18,1,63,1625340509.0,32.000000
-18,1,62,1625340509.0,32.000000
-18,1,63,1625340509.0,32.000000
-18,1,62,1625340509.0,32.000000
-18,1,63,1625340509.0,32.000000
-18,1,62,1625340509.0,32.000000
-18,1,62,1625340509.0,32.000000
-18,1,63,1625340509.0,32.000000
-18,1,63,1625340509.0,32.000000
-18,1,63,1625340509.0,32.000000
-18,1,62,1625340509.0,32.000000
-18,1,63,1625340509.0,32.000000
-19,1,62,1625340509.0,32.000000
-18,1,62,1625340509.0,32.000000
-18,1,63,1625340509.0,32.000000
-18,1,62,1625340509.0,32.000000
-18,1,62,1625340509.0,32.000000
-18,1,62,1625340509.0,32.000000
-18,1,63,1625340509.0,32.000000
-18,1,62,1625340509.0,32.000000
-18,1,62,1625340509.0,32.000000
-18,1,63,1625340509.0,32.000000
-18,0,62,1625340509.0,32.000000
-21,2,62,1625340509.0,32.000000
-21,1,62,1625340509.0,32.000000
-17,1,62,1625340509.0,32.000000
-16,1,63,1625340509.0,32.000000
-18,0,62,1625340509.0,32.000000
-19,1,62,1625340509.0,32.000000
-19,1,62,1625340509.0,32.000000
-19,1,62,1625340509.0,32.000000
-19,1,62,1625340509.0,32.000000
-19,1,62,1625340509.0,32.000000
-19,1,63,1625340509.0,32.000000
-19,1,62,1625340509.0,32.000000
-19,1,62,1625340509.0,32.000000
-18,1,62,1625340509.0,32.000000
-19,1,62,1625340509.0,32.000000
-18,1,63,1625340509.0,32.000000
-18,1,62,1625340509.0,32.000000
-19,1,62,1625340509.0,32.000000
-19,1,63,1625340509.0,32.000000
-19,1,62,1625340509.0,32.000000
-19,1,62,1625340509.0,32.000000
-19,1,62,1625340509.0,32.000000
-19,1,62,1625340509.0,32.000000
-19,1,62,1625340509.0,32.000000
-19,1,62,1625340509.0,32.000000
-19,1,62,1625340509.0,32.000000
-19,1,62,1625340509.0,32.000000
-18,1,62,1625340509.0,32.000000
-18,1,62,1625340509.0,32.000000
-19,1,63,1625340509.0,32.000000
-19,1,62,1625340509.0,32.000000
-19,1,62,1625340509.0,32.000000
-19,1,62,1625340509.0,32.000000
-19,1,62,1625340509.0,32.000000
-18,1,62,1625340509.0,32.000000
-19,1,63,1625340509.0,32.000000
-19,1,62,1625340509.0,32.000000
-18,1,62,1625340509.0,32.000000
-19,1,62,1625340509.0,32.000000
-19,1,62,1625340509.0,32.000000
-18,1,62,1625340509.0,32.000000
-19,1,62,1625340509.0,32.000000
-19,1,62,1625340509.0,32.000000
-19,1,62,1625340509.0,32.000000
-19,1,62,1625340509.0,32.000000
-19,1,62,1625340509.0,32.000000
-19,1,62,1625340509.0,32.000000
-18,1,62,1625340509.0,32.000000
-18,1,62,1625340509.0,32.000000
-19,1,63,1625340509.0,32.000000
-18,1,63,1625340509.0,32.000000
-18,1,62,1625340509.0,32.000000
-19,1,62,1625340509.0,32.000000
-19,1,62,1625340509.0,32.000000
-19,1,62,1625340509.0,32.000000
-19,1,62,1625340509.0,32.000000
-18,1,62,1625340509.0,32.000000
-18,1,62,1625340509.0,32.000000
-18,1,63,1625340509.0,32.000000
-18,1,62,1625340509.0,32.000000
-18,1,62,1625340509.0,32.000000
-18,1,62,1625340509.0,32.000000
-18,1,62,1625340509.0,32.000000
-19,1,62,1625340509.0,32.000000
-19,1,63,1625340509.0,32.000000
-18,1,62,1625340509.0,32.000000
-18,1,62,1625340509.0,32.000000
-19,1,62,1625340509.0,32.000000
-18,1,62,1625340509.0,32.000000
-18,1,63,1625340509.0,32.000000
-18,1,63,1625340509.0,32.000000
-18,1,62,1625340509.0,32.000000
-18,1,63,1625340509.0,32.000000
-18,1,63,1625340509.0,32.000000
-18,1,62,1625340509.0,32.000000
-18,1,63,1625340509.0,32.000000
-18,0,62,1625340509.0,32.000000
-19,1,62,1625340509.0,32.000000
-20,1,63,1625340509.0,32.000000
-18,2,63,1625340509.0,32.000000
-17,1,63,1625340509.0,32.000000
-17,0,62,1625340509.0,32.000000
-17,0,62,1625340509.0,32.000000
-17,1,63,1625340509.0,32.000000
-18,1,63,1625340509.0,32.000000
-18,1,63,1625340509.0,32.000000
-19,1,62,1625340509.0,32.000000
-19,1,63,1625340509.0,32.000000
-19,1,63,1625340509.0,32.000000
-18,1,63,1625340509.0,32.000000
-18,1,63,1625340509.0,32.000000
-17,1,62,1625340509.0,32.000000
-17,1,63,1625340509.0,32.000000
-17,0,63,1625340509.0,32.000000
-18,1,63,1625340509.0,32.000000
-18,1,63,1625340509.0,32.000000
-18,1,63,1625340509.0,32.000000
-18,1,62,1625340509.0,32.000000
-18,1,63,1625340509.0,32.000000
-18,1,62,1625340509.0,32.000000
-18,1,63,1625340509.0,32.000000
-19,1,63,1625340509.0,32.000000
-18,1,62,1625340509.0,32.000000
-17,1,63,1625340509.0,32.000000
-17,1,62,1625340509.0,32.000000
-17,1,63,1625340509.0,32.000000
-18,1,63,1625340509.0,32.000000
-18,1,63,1625340509.0,32.000000
-18,1,63,1625340509.0,32.000000
-18,1,63,1625340509.0,32.000000
-18,1,63,1625340509.0,32.000000
-18,1,62,1625340509.0,32.000000
-19,1,63,1625340509.0,32.000000
-19,1,63,1625340509.0,32.000000
-19,1,62,1625340509.0,32.000000
-19,1,63,1625340509.0,32.000000
-19,1,62,1625340509.0,32.000000
-19,1,62,1625340509.0,32.000000
-20,1,62,1625340509.0,32.000000
-20,1,62,1625340509.0,32.000000
-20,1,62,1625340509.0,32.000000
-20,1,62,1625340509.0,32.000000
-20,1,62,1625340509.0,32.000000
-20,1,62,1625340509.0,32.000000
-20,1,63,1625340509.0,32.000000
-20,0,61,1625340509.0,32.000000
-21,2,61,1625340509.0,32.000000
-22,2,62,1625340509.0,32.000000
-21,2,62,1625340509.0,32.000000
-19,1,62,1625340509.0,32.000000
-17,0,63,1625340509.0,32.000000
-18,0,62,1625340509.0,32.000000
-18,1,62,1625340509.0,32.000000
-19,2,62,1625340509.0,32.000000
-19,2,63,1625340509.0,32.000000
-18,1,62,1625340509.0,32.000000
-19,1,62,1625340509.0,32.000000
-19,1,62,1625340509.0,32.000000
-19,1,62,1625340509.0,32.000000
-19,1,62,1625340509.0,32.000000
-19,1,62,1625340509.0,32.000000
-19,1,62,1625340509.0,32.000000
-20,1,62,1625340509.0,32.000000
-19,1,62,1625340509.0,32.000000
-19,1,62,1625340509.0,32.000000
-20,1,62,1625340509.0,32.000000
-20,1,62,1625340509.0,32.000000
-20,1,62,1625340509.0,32.000000
-20,1,62,1625340509.0,32.000000
-21,1,61,1625340509.0,32.000000
-21,1,62,1625340509.0,32.000000
-21,1,62,1625340509.0,32.000000
-21,1,62,1625340509.0,32.000000
-20,1,62,1625340509.0,32.000000
-20,1,62,1625340509.0,32.000000
-20,1,62,1625340509.0,32.000000
-21,1,61,1625340509.0,32.000000
-21,2,62,1625340509.0,32.000000
-22,1,61,1625340509.0,32.000000
-20,1,62,1625340509.0,32.000000
-10,1,65,1625340509.0,32.000000
-8,0,64,1625340509.0,32.000000
-4,0,64,1625340509.0,32.000000
-5,-1,66,1625340509.0,32.000000
-6,0,65,1625340509.0,32.000000
-2,0,65,1625340509.0,32.000000
-1,-1,65,1625340509.0,32.000000
-1,0,68,1625340509.0,32.000000
-1,2,72,1625340509.0,32.000000
7,0,76,1625340509.0,32.000000
5,-5,85,1625340509.0,32.000000
19,-11,92,1625340509.0,32.000000
15,-7,88,1625340509.0,32.000000
2,-12,70,1625340509.0,32.000000
-1,-14,65,1625340509.0,32.000000
7,-17,64,1625340509.0,32.000000
9,-18,62,1625340509.0,32.000000
11,-21,50,1625340509.0,32.000000
15,-23,40,1625340509.0,32.000000
16,-24,34,1625340509.0,32.000000
11,-29,19,1625340509.0,32.000000
10,-32,15,1625340509.0,32.000000
15,-37,16,1625340509.0,32.000000
18,-43,17,1625340509.0,32.000000
19,-46,16,1625340509.0,32.000000
19,-57,14,1625340509.0,32.000000
18,-84,22,1625340509.0,32.000000
9,-53,10,1625340509.0,32.000000
16,-59,17,1625340509.0,32.000000
14,-59,15,1625340509.0,32.000000
16,-62,13,1625340509.0,32.000000
15,-62,12,1625340509.0,32.000000
15,-61,13,1625340509.0,32.000000
13,-60,12,1625340509.0,32.000000
13,-60,14,1625340509.0,32.000000
14,-59,14,1625340509.0,32.000000
15,-59,12,1625340509.0,32.000000
17,-58,12,1625340509.0,32.000000
16,-59,12,1625340509.0,32.000000
17,-60,9,1625340509.0,32.000000
19,-57,9,1625340509.0,32.000000
19,-58,10,1625340509.0,32.000000
18,-60,9,1625340509.0,32.000000
19,-59,10,1625340509.0,32.000000
18,-60,10,1625340509.0,32.000000
17,-61,10,1625340509.0,32.000000
16,-61,10,1625340509.0,32.000000
13,-61,11,1625340509.0,32.000000
12,-60,12,1625340509.0,32.000000
10,-60,13,1625340509.0,32.000000
11,-60,15,1625340509.0,32.000000
11,-59,16,1625340509.0,32.000000
14,-59,16,1625340509.0,32.000000
15,-59,16,1625340509.0,32.000000
15,-59,14,1625340509.0,32.000000
15,-59,13,1625340509.0,32.000000
15,-60,12,1625340509.0,32.000000
15,-59,12,1625340509.0,32.000000
15,-59,13,1625340509.0,32.000000
15,-59,13,1625340509.0,32.000000
15,-59,14,1625340509.0,32.000000
15,-58,14,1625340509.0,32.000000
16,-59,15,1625340509.0,32.000000
17,-59,15,1625340509.0,32.000000
17,-59,15,1625340509.0,32.000000
16,-59,15,1625340509.0,32.000000
16,-59,15,1625340509.0,32.000000
16,-59,14,1625340509.0,32.000000
16,-59,14,1625340509.0,32.000000
16,-59,13,1625340509.0,32.000000
16,-59,13,1625340509.0,32.000000
16,-59,12,1625340509.0,32.000000
16,-59,13,1625340509.0,32.000000
16,-59,12,1625340509.0,32.000000
16,-59,13,1625340509.0,32.000000
17,-59,13,1625340509.0,32.000000
17,-59,13,1625340509.0,32.000000
18,-59,13,1625340509.0,32.000000
18,-58,13,1625340509.0,32.000000
18,-58,14,1625340509.0,32.000000
18,-58,14,1625340509.0,32.000000
18,-58,14,1625340509.0,32.000000
18,-59,13,1625340509.0,32.000000
18,-59,13,1625340509.0,32.000000
17,-59,13,1625340509.0,32.000000
16,-59,12,1625340509.0,32.000000
16,-59,12,1625340509.0,32.000000
16,-60,12,1625340509.0,32.000000
15,-60,12,1625340509.0,32.000000
16,-59,12,1625340509.0,32.000000
16,-60,12,1625340509.0,32.000000
16,-59,12,1625340509.0,32.000000
17,-60,12,1625340509.0,32.000000
17,-59,12,1625340509.0,32.000000
17,-60,13,1625340509.0,32.000000
17,-59,13,1625340509.0,32.000000
17,-59,15,1625340509.0,32.000000
17,-58,14,1625340509.0,32.000000
17,-58,14,1625340509.0,32.000000
18,-58,13,1625340509.0,32.000000
17,-58,13,1625340509.0,32.000000
17,-59,12,1625340509.0,32.000000
17,-59,12,1625340509.0,32.000000
17,-59,12,1625340509.0,32.000000
18,-59,13,1625340509.0,32.000000
19,-59,13,1625340509.0,32.000000
18,-59,13,1625340509.0,32.000000
19,-58,14,1625340509.0,32.000000
19,-58,14,1625340509.0,32.000000
19,-58,14,1625340509.0,32.000000
18,-58,14,1625340509.0,32.000000
17,-58,14,1625340509.0,32.000000
17,-59,14,1625340509.0,32.000000
17,-59,14,1625340509.0,32.000000
16,-59,14,1625340509.0,32.000000
16,-59,14,1625340509.0,32.000000
16,-59,14,1625340509.0,32.000000
15,-59,14,1625340509.0,32.000000
15,-59,15,1625340509.0,32.000000
15,-59,14,1625340509.0,32.000000
15,-59,14,1625340509.0,32.000000
14,-59,14,1625340509.0,32.000000
15,-59,14,1625340509.0,32.000000
15,-59,14,1625340509.0,32.000000
17,-58,14,1625340509.0,32.000000
18,-58,14,1625340509.0,32.000000
19,-58,13,1625340509.0,32.000000
19,-59,13,1625340509.0,32.000000
19,-59,13,1625340509.0,32.000000
19,-59,13,1625340509.0,32.000000
19,-58,13,1625340509.0,32.000000
19,-58,14,1625340509.0,32.000000
19,-58,13,1625340509.0,32.000000
19,-58,14,1625340509.0,32.000000
19,-58,14,1625340509.0,32.000000
19,-58,14,1625340509.0,32.000000
18,-58,14,1625340509.0,32.000000
18,-58,14,1625340509.0,32.000000
18,-58,14,1625340509.0,32.000000
18,-59,14,1625340509.0,32.000000
18,-58,14,1625340509.0,32.000000
17,-59,13,1625340509.0,32.000000
17,-58,14,1625340509.0,32.000000
18,-58,13,1625340509.0,32.000000
18,-59,13,1625340509.0,32.000000
18,-59,13,1625340509.0,32.000000
18,-58,14,1625340509.0,32.000000
18,-58,14,1625340509.0,32.000000
18,-58,14,1625340509.0,32.000000
18,-58,14,1625340509.0,32.000000
18,-59,14,1625340509.0,32.000000
18,-58,14,1625340509.0,32.000000
18,-59,14,1625340509.0,32.000000
17,-59,14,1625340509.0,32.000000
17,-58,14,1625340509.0,32.000000
17,-58,14,1625340509.0,32.000000
18,-59,14,1625340509.0,32.000000
18,-59,14,1625340509.0,32.000000
18,-58,13,1625340509.0,32.000000
19,-60,13,1625340509.0,32.000000
18,-60,13,1625340509.0,32.000000
17,-59,13,1625340509.0,32.000000
16,-58,14,1625340509.0,32.000000
17,-59,15,1625340509.0,32.000000
17,-58,16,1625340509.0,32.000000
18,-58,16,1625340509.0,32.000000
18,-58,14,1625340509.0,32.000000
18,-60,14,1625340509.0,32.000000
18,-59,13,1625340509.0,32.000000
17,-59,13,1625340509.0,32.000000
18,-59,13,1625340509.0,32.000000
18,-59,14,1625340509.0,32.000000
18,-59,14,1625340509.0,32.000000
17,-58,14,1625340509.0,32.000000
17,-58,14,1625340509.0,32.000000
17,-58,14,1625340509.0,32.000000
18,-58,14,1625340509.0,32.000000
18,-58,14,1625340509.0,32.000000
18,-59,13,1625340509.0,32.000000
18,-59,13,1625340509.0,32.000000
18,-58,13,1625340509.0,32.000000
19,-59,13,1625340509.0,32.000000
19,-59,13,1625340509.0,32.000000
18,-58,13,1625340509.0,32.000000
18,-59,13,1625340509.0,32.000000
17,-59,14,1625340509.0,32.000000
17,-58,14,1625340509.0,32.000000
18,-58,14,1625340509.0,32.000000
18,-58,14,1625340509.0,32.000000
18,-58,14,1625340509.0,32.000000
18,-58,13,1625340509.0,32.000000
18,-59,14,1625340509.0,32.000000
17,-59,14,1625340509.0,32.000000
17,-59,13,1625340509.0,32.000000
17,-58,13,1625340509.0,32.000000
17,-59,14,1625340509.0,32.000000
17,-59,13,1625340509.0,32.000000
18,-59,13,1625340509.0,32.000000
18,-58,13,1625340509.0,32.000000
19,-58,14,1625340509.0,32.000000
19,-59,13,1625340509.0,32.000000
19,-59,13,1625340509.0,32.000000
18,-59,13,1625340509.0,32.000000
19,-59,11,1625340509.0,32.000000
18,-59,11,1625340509.0,32.000000
19,-59,14,1625340509.0,32.000000
23,-60,11,1625340509.0,32.000000
17,-59,13,1625340509.0,32.000000
20,-56,16,1625340509.0,32.000000
17,-58,15,1625340509.0,32.000000
17,-56,15,1625340509.0,32.000000
18,-59,10,1625340509.0,32.000000
19,-59,8,1625340509.0,32.000000
20,-59,7,1625340509.0,32.000000
20,-59,7,1625340509.0,32.000000
19,-59,8,1625340509.0,32.000000
19,-59,8,1625340509.0,32.000000
19,-59,9,1625340509.0,32.000000
19,-60,9,1625340509.0,32.000000
19,-59,10,1625340509.0,32.000000
18,-59,10,1625340509.0,32.000000
18,-58,10,1625340509.0,32.000000
17,-59,13,1625340509.0,32.000000
18,-59,12,1625340509.0,32.000000
19,-59,11,1625340509.0,32.000000
19,-59,11,1625340509.0,32.000000
18,-60,10,1625340509.0,32.000000
18,-59,10,1625340509.0,32.000000
18,-59,12,1625340509.0,32.000000
18,-58,12,1625340509.0,32.000000
18,-59,11,1625340509.0,32.000000
18,-58,11,1625340509.0,32.000000
18,-58,10,1625340509.0,32.000000
19,-59,8,1625340509.0,32.000000
19,-59,8,1625340509.0,32.000000
19,-59,9,1625340509.0,32.000000
18,-59,9,1625340509.0,32.000000
18,-59,10,1625340509.0,32.000000
18,-59,12,1625340509.0,32.000000
17,-59,12,1625340509.0,32.000000
17,-59,12,1625340509.0,32.000000
16,-59,12,1625340509.0,32.000000
16,-59,11,1625340509.0,32.000000
16,-60,11,1625340509.0,32.000000
16,-60,11,1625340509.0,32.000000
16,-59,11,1625340509.0,32.000000
16,-59,12,1625340509.0,32.000000
17,-59,11,1625340509.0,32.000000
18,-59,11,1625340509.0,32.000000
18,-59,10,1625340509.0,32.000000
18,-59,10,1625340509.0,32.000000
18,-59,10,1625340509.0,32.000000
18,-59,10,1625340509.0,32.000000
19,-59,10,1625340509.0,32.000000
19,-59,10,1625340509.0,32.000000
19,-59,10,1625340509.0,32.000000
19,-59,10,1625340509.0,32.000000
19,-59,10,1625340509.0,32.000000
19,-59,10,1625340509.0,32.000000
18,-59,10,1625340509.0,32.000000
18,-59,11,1625340509.0,32.000000
18,-59,11,1625340509.0,32.000000
18,-59,11,1625340509.0,32.000000
17,-59,11,1625340509.0,32.000000
17,-59,11,1625340509.0,32.000000
16,-59,11,1625340509.0,32.000000
16,-59,11,1625340509.0,32.000000
16,-59,11,1625340509.0,32.000000
16,-59,11,1625340509.0,32.000000
16,-59,11,1625340509.0,32.000000
17,-59,12,1625340509.0,32.000000
17,-59,12,1625340509.0,32.000000
17,-59,12,1625340509.0,32.000000
17,-59,11,1625340509.0,32.000000
17,-59,11,1625340509.0,32.000000
17,-59,11,1625340509.0,32.000000
18,-59,11,1625340509.0,32.000000
18,-60,10,1625340509.0,32.000000
17,-59,10,1625340509.0,32.000000
17,-59,11,1625340509.0,32.000000
17,-60,12,1625340509.0,32.000000
17,-59,12,1625340509.0,32.000000
18,-59,12,1625340509.0,32.000000
18,-58,12,1625340509.0,32.000000
18,-60,11,1625340509.0,32.000000
18,-60,11,1625340509.0,32.000000
17,-59,11,1625340509.0,32.000000
17,-59,11,1625340509.0,32.000000
17,-59,11,1625340509.0,32.000000
16,-59,12,1625340509.0,32.000000
16,-59,12,1625340509.0,32.000000
15,-59,12,1625340509.0,32.000000
15,-59,12,1625340509.0,32.000000
15,-59,12,1625340509.0,32.000000
15,-60,12,1625340509.0,32.000000
16,-59,12,1625340509.0,32.000000
16,-59,12,1625340509.0,32.000000
16,-59,11,1625340509.0,32.000000
16,-59,11,1625340509.0,32.000000
17,-59,11,1625340509.0,32.000000
18,-59,11,1625340509.0,32.000000
18,-59,11,1625340509.0,32.000000
17,-59,11,1625340509.0,32.000000
17,-59,11,1625340509.0,32.000000
17,-59,11,1625340509.0,32.000000
17,-60,11,1625340509.0,32.000000
16,-59,11,1625340509.0,32.000000
16,-59,11,1625340509.0,32.000000
16,-59,11,1625340509.0,32.000000
17,-59,12,1625340509.0,32.000000
17,-59,12,1625340509.0,32.000000
17,-59,11,1625340509.0,32.000000
17,-59,11,1625340509.0,32.000000
17,-59,11,1625340509.0,32.000000
17,-59,11,1625340509.0,32.000000
17,-59,11,1625340509.0,32.000000
16,-59,11,1625340509.0,32.000000
17,-59,11,1625340509.0,32.000000
17,-59,11,1625340509.0,32.000000
16,-59,12,1625340509.0,32.000000
17,-59,11,1625340509.0,32.000000
17,-59,11,1625340509.0,32.000000
17,-59,11,1625340509.0,32.000000
17,-59,11,1625340509.0,32.000000
17,-59,11,1625340509.0,32.000000
17,-60,11,1625340509.0,32.000000
16,-59,11,1625340509.0,32.000000
17,-59,11,1625340509.0,32.000000
17,-59,11,1625340509.0,32.000000
17,-59,11,1625340509.0,32.000000
17,-59,11,1625340509.0,32.000000
17,-59,11,1625340509.0,32.000000
17,-59,11,1625340509.0,32.000000
17,-59,11,1625340509.0,32.000000
17,-59,11,1625340509.0,32.000000
17,-59,11,1625340509.0,32.000000
17,-59,11,1625340509.0,32.000000
17,-59,11,1625340509.0,32.000000
17,-59,11,1625340509.0,32.000000
17,-59,10,1625340509.0,32.000000
18,-60,10,1625340509.0,32.000000
16,-59,10,1625340509.0,32.000000
17,-60,11,1625340509.0,32.000000
17,-59,13,1625340509.0,32.000000
17,-58,15,1625340509.0,32.000000
18,-60,14,1625340509.0,32.000000
17,-57,12,1625340509.0,32.000000
18,-60,12,1625340509.0,32.000000
16,-60,11,1625340509.0,32.000000
15,-59,10,1625340509.0,32.000000
16,-59,10,1625340509.0,32.000000
16,-59,10,1625340509.0,32.000000
16,-60,11,1625340509.0,32.000000
15,-60,12,1625340509.0,32.000000
16,-59,12,1625340509.0,32.000000
16,-59,12,1625340509.0,32.000000
17,-59,13,1625340509.0,32.000000
17,-59,12,1625340509.0,32.000000
18,-59,12,1625340509.0,32.000000
18,-59,11,1625340509.0,32.000000
18,-59,11,1625340509.0,32.000000
18,-59,11,1625340509.0,32.000000
18,-59,11,1625340509.0,32.000000
17,-59,11,1625340509.0,32.000000
17,-60,11,1625340509.0,32.000000
16,-60,11,1625340509.0,32.000000
15,-59,12,1625340509.0,32.000000
15,-59,12,1625340509.0,32.000000
16,-59,12,1625340509.0,32.000000
17,-59,12,1625340509.0,32.000000
17,-59,12,1625340509.0,32.000000
17,-59,12,1625340509.0,32.000000
17,-59,12,1625340509.0,32.000000
17,-59,11,1625340509.0,32.000000
17,-59,11,1625340509.0,32.000000
17,-59,11,1625340509.0,32.000000
16,-59,11,1625340509.0,32.000000
16,-59,11,1625340509.0,32.000000
17,-59,11,1625340509.0,32.000000
17,-59,11,1625340509.0,32.000000
17,-59,11,1625340509.0,32.000000
17,-59,11,1625340509.0,32.000000
17,-59,11,1625340509.0,32.000000
17,-59,11,1625340509.0,32.000000
17,-59,11,1625340509.0,32.000000
17,-59,11,1625340509.0,32.000000
17,-59,11,1625340509.0,32.000000
17,-59,11,1625340509.0,32.000000
17,-59,11,1625340509.0,32.000000
17,-59,11,1625340509.0,32.000000
17,-59,11,1625340509.0,32.000000
17,-59,11,1625340509.0,32.000000
17,-59,11,1625340509.0,32.000000
17,-59,11,1625340509.0,32.000000
17,-59,11,1625340509.0,32.000000
17,-59,11,1625340509.0,32.000000
17,-59,11,1625340509.0,32.000000
17,-59,11,1625340509.0,32.000000
17,-59,11,1625340509.0,32.000000
17,-59,11,1625340509.0,32.000000
17,-59,11,1625340509.0,32.000000
17,-59,11,1625340509.0,32.000000
17,-59,11,1625340509.0,32.000000
17,-59,11,1625340509.0,32.000000
17,-59,11,1625340509.0,32.000000
17,-59,11,1625340509.0,32.000000
17,-60,11,1625340509.0,32.000000
17,-59,11,1625340509.0,32.000000
16,-58,10,1625340509.0,32.000000
17,-60,11,1625340509.0,32.000000
16,-59,12,1625340509.0,32.000000
15,-59,13,1625340509.0,32.000000
16,-59,13,1625340509.0,32.000000
15,-58,12,1625340509.0,32.000000
16,-60,12,1625340509.0,32.000000
16,-59,11,1625340509.0,32.000000
16,-61,11,1625340509.0,32.000000
17,-59,11,1625340509.0,32.000000
16,-59,11,1625340509.0,32.000000
17,-60,12,1625340509.0,32.000000
16,-59,12,1625340509.0,32.000000
17,-59,12,1625340509.0,32.000000
16,-59,12,1625340509.0,32.000000
16,-59,11,1625340509.0,32.000000
17,-59,11,1625340509.0,32.000000
17,-59,11,1625340509.0,32.000000
17,-59,11,1625340509.0,32.000000
17,-59,11,1625340509.0,32.000000
16,-59,11,1625340509.0,32.000000
16,-59,11,1625340509.0,32.000000
16,-59,11,1625340509.0,32.000000
16,-60,11,1625340509.0,32.000000
16,-59,11,1625340509.0,32.000000
16,-60,11,1625340509.0,32.000000
16,-59,11,1625340509.0,32.000000
16,-59,11,1625340509.0,32.000000
16,-59,11,1625340509.0,32.000000
17,-60,11,1625340509.0,32.000000
17,-59,11,1625340509.0,32.000000
17,-59,10,1625340509.0,32.000000
17,-59,10,1625340509.0,32.000000
17,-60,11,1625340509.0,32.000000
17,-60,11,1625340509.0,32.000000
17,-59,11,1625340509.0,32.000000
16,-60,10,1625340509.0,32.000000
16,-60,10,1625340509.0,32.000000
16,-60,11,1625340509.0,32.000000
16,-60,11,1625340509.0,32.000000
13,-60,11,1625340509.0,32.000000
14,-60,11,1625340509.0,32.000000
16,-59,13,1625340509.0,32.000000
16,-59,11,1625340509.0,32.000000
18,-59,10,1625340509.0,32.000000
18,-59,8,1625340509.0,32.000000
19,-59,7,1625340509.0,32.000000
20,-59,8,1625340509.0,32.000000
20,-59,9,1625340509.0,32.000000
20,-59,8,1625340509.0,32.000000
20,-58,10,1625340509.0,32.000000
20,-59,10,1625340509.0,32.000000
19,-59,10,1625340509.0,32.000000
19,-59,10,1625340509.0,32.000000
18,-59,11,1625340509.0,32.000000
17,-59,11,1625340509.0,32.000000
16,-59,11,1625340509.0,32.000000
16,-60,10,1625340509.0,32.000000
16,-59,10,1625340509.0,32.000000
16,-59,9,1625340509.0,32.000000
17,-59,9,1625340509.0,32.000000
18,-60,8,1625340509.0,32.000000
17,-59,8,1625340509.0,32.000000
17,-59,10,1625340509.0,32.000000
18,-60,12,1625340509.0,32.000000
17,-59,12,1625340509.0,32.000000
18,-59,12,1625340509.0,32.000000
19,-58,10,1625340509.0,32.000000
19,-60,9,1625340509.0,32.000000
19,-60,8,1625340509.0,32.000000
19,-59,8,1625340509.0,32.000000
19,-59,8,1625340509.0,32.000000
18,-59,8,1625340509.0,32.000000
18,-60,9,1625340509.0,32.000000
18,-59,9,1625340509.0,32.000000
19,-59,9,1625340509.0,32.000000
18,-60,9,1625340509.0,32.000000
16,-59,11,1625340509.0,32.000000
17,-59,11,1625340509.0,32.000000
15,-59,9,1625340509.0,32.000000
17,-59,10,1625340509.0,32.000000
19,-58,11,1625340509.0,32.000000
19,-59,10,1625340509.0,32.000000
19,-58,10,1625340509.0,32.000000
20,-60,5,1625340509.0,32.000000
20,-59,7,1625340509.0,32.000000
19,-59,8,1625340509.0,32.000000
18,-59,8,1625340509.0,32.000000
19,-59,7,1625340509.0,32.000000
19,-59,10,1625340509.0,32.000000
18,-59,10,1625340509.0,32.000000
18,-59,11,1625340509.0,32.000000
15,-60,10,1625340509.0,32.000000
15,-60,11,1625340509.0,32.000000
15,-60,11,1625340509.0,32.000000
15,-59,10,1625340509.0,32.000000
16,-60,9,1625340509.0,32.000000
16,-60,9,1625340509.0,32.000000
16,-59,10,1625340509.0,32.000000
17,-59,9,1625340509.0,32.000000
17,-60,9,1625340509.0,32.000000
18,-59,9,1625340509.0,32.000000
18,-60,9,1625340509.0,32.000000
18,-59,10,1625340509.0,32.000000
18,-59,10,1625340509.0,32.000000
18,-59,10,1625340509.0,32.000000
18,-59,10,1625340509.0,32.000000
17,-59,10,1625340509.0,32.000000
17,-59,10,1625340509.0,32.000000
17,-59,10,1625340509.0,32.000000
17,-60,10,1625340509.0,32.000000
17,-59,10,1625340509.0,32.000000
17,-59,10,1625340509.0,32.000000
17,-59,10,1625340509.0,32.000000
17,-59,10,1625340509.0,32.000000
17,-59,10,1625340509.0,32.000000
17,-59,10,1625340509.0,32.000000
17,-59,9,1625340509.0,32.000000
18,-60,9,1625340509.0,32.000000
17,-59,10,1625340509.0,32.000000
18,-59,10,1625340509.0,32.000000
18,-59,10,1625340509.0,32.000000
18,-60,10,1625340509.0,32.000000
17,-59,10,1625340509.0,32.000000
17,-59,10,1625340509.0,32.000000
17,-59,10,1625340509.0,32.000000
17,-59,10,1625340509.0,32.000000
17,-60,10,1625340509.0,32.000000
17,-61,11,1625340509.0,32.000000
16,-59,11,1625340509.0,32.000000
16,-59,11,1625340509.0,32.000000
15,-59,12,1625340509.0,32.000000
16,-60,13,1625340509.0,32.000000
16,-60,13,1625340509.0,32.000000
16,-59,13,1625340509.0,32.000000
17,-59,12,1625340509.0,32.000000
17,-59,12,1625340509.0,32.000000
17,-59,11,1625340509.0,32.000000
17,-59,11,1625340509.0,32.000000
17,-59,11,1625340509.0,32.000000
17,-60,11,1625340509.0,32.000000
17,-60,11,1625340509.0,32.000000
16,-59,11,1625340509.0,32.000000
16,-59,12,1625340509.0,32.000000
16,-59,12,1625340509.0,32.000000
17,-59,13,1625340509.0,32.000000
18,-59,12,1625340509.0,32.000000
18,-59,12,1625340509.0,32.000000
17,-59,12,1625340509.0,32.000000
17,-59,11,1625340509.0,32.000000
17,-59,11,1625340509.0,32.000000
16,-59,11,1625340509.0,32.000000
16,-59,11,1625340509.0,32.000000
16,-60,10,1625340509.0,32.000000
16,-60,10,1625340509.0,32.000000
16,-59,11,1625340509.0,32.000000
16,-59,12,1625340509.0,32.000000
16,-59,12,1625340509.0,32.000000
18,-59,12,1625340509.0,32.000000
18,-59,12,1625340509.0,32.000000
18,-59,12,1625340509.0,32.000000
17,-59,11,1625340509.0,32.000000
18,-60,10,1625340509.0,32.000000
16,-59,9,1625340509.0,32.000000
16,-60,9,1625340509.0,32.000000
15,-59,11,1625340509.0,32.000000
16,-60,12,1625340509.0,32.000000
16,-58,12,1625340509.0,32.000000
17,-59,12,1625340509.0,32.000000
18,-58,12,1625340509.0,32.000000
18,-60,11,1625340509.0,32.000000
17,-60,11,1625340509.0,32.000000
17,-58,11,1625340509.0,32.000000
17,-59,11,1625340509.0,32.000000
17,-60,11,1625340509.0,32.000000
17,-59,12,1625340509.0,32.000000
17,-59,12,1625340509.0,32.000000
17,-58,12,1625340509.0,32.000000
17,-59,12,1625340509.0,32.000000
17,-59,12,1625340509.0,32.000000
17,-59,12,1625340509.0,32.000000
18,-59,11,1625340509.0,32.000000
18,-59,10,1625340509.0,32.000000
18,-59,10,1625340509.0,32.000000
18,-59,9,1625340509.0,32.000000
17,-59,10,1625340509.0,32.000000
17,-59,10,1625340509.0,32.000000
18,-59,10,1625340509.0,32.000000
18,-59,11,1625340509.0,32.000000
18,-59,11,1625340509.0,32.000000
18,-59,11,1625340509.0,32.000000
17,-59,11,1625340509.0,32.000000
17,-59,11,1625340509.0,32.000000
17,-59,10,1625340509.0,32.000000
16,-59,11,1625340509.0,32.000000
16,-60,11,1625340509.0,32.000000
16,-60,11,1625340509.0,32.000000
16,-59,11,1625340509.0,32.000000
16,-59,11,1625340509.0,32.000000
16,-59,11,1625340509.0,32.000000
16,-60,10,1625340509.0,32.000000
16,-60,10,1625340509.0,32.000000
15,-60,11,1625340509.0,32.000000
16,-60,12,1625340509.0,32.000000
16,-60,12,1625340509.0,32.000000
16,-60,12,1625340509.0,32.000000
15,-59,11,1625340509.0,32.000000
16,-59,11,1625340509.0,32.000000
17,-59,10,1625340509.0,32.000000
17,-59,9,1625340509.0,32.000000
18,-59,9,1625340509.0,32.000000
19,-59,9,1625340509.0,32.000000
19,-59,10,1625340509.0,32.000000
18,-59,10,1625340509.0,32.000000
17,-59,11,1625340509.0,32.000000
15,-60,11,1625340509.0,32.000000
14,-60,11,1625340509.0,32.000000
14,-60,12,1625340509.0,32.000000
14,-60,12,1625340509.0,32.000000
14,-60,13,1625340509.0,32.000000
14,-60,13,1625340509.0,32.000000
14,-59,13,1625340509.0,32.000000
15,-60,12,1625340509.0,32.000000
16,-59,12,1625340509.0,32.000000
16,-59,11,1625340509.0,32.000000
17,-59,10,1625340509.0,32.000000
18,-59,9,1625340509.0,32.000000
19,-59,8,1625340509.0,32.000000
19,-59,8,1625340509.0,32.000000
17,-60,8,1625340509.0,32.000000
18,-60,9,1625340509.0,32.000000
17,-60,9,1625340509.0,32.000000
16,-60,11,1625340509.0,32.000000
15,-59,11,1625340509.0,32.000000
15,-59,11,1625340509.0,32.000000
15,-59,11,1625340509.0,32.000000
16,-59,11,1625340509.0,32.000000
16,-60,11,1625340509.0,32.000000
17,-59,11,1625340509.0,32.000000
17,-60,11,1625340509.0,32.000000
17,-59,10,1625340509.0,32.000000
17,-60,10,1625340509.0,32.000000
16,-60,10,1625340509.0,32.000000
16,-60,10,1625340509.0,32.000000
15,-60,10,1625340509.0,32.000000
16,-60,10,1625340509.0,32.000000
16,-59,10,1625340509.0,32.000000
17,-59,10,1625340509.0,32.000000
17,-59,10,1625340509.0,32.000000
17,-59,10,1625340509.0,32.000000
17,-60,10,1625340509.0,32.000000
17,-59,10,1625340509.0,32.000000
17,-60,10,1625340509.0,32.000000
17,-60,10,1625340509.0,32.000000
16,-60,10,1625340509.0,32.000000
16,-60,10,1625340509.0,32.000000
16,-60,10,1625340509.0,32.000000
16,-59,10,1625340509.0,32.000000
16,-59,10,1625340509.0,32.000000
16,-60,10,1625340509.0,32.000000
17,-59,10,1625340509.0,32.000000
17,-59,10,1625340509.0,32.000000
17,-60,10,1625340509.0,32.000000
18,-59,9,1625340509.0,32.000000
18,-59,9,1625340509.0,32.000000
19,-60,9,1625340509.0,32.000000
18,-59,9,1625340509.0,32.000000
17,-59,9,1625340509.0,32.000000
17,-60,9,1625340509.0,32.000000
16,-60,9,1625340509.0,32.000000
16,-61,9,1625340509.0,32.000000
13,-59,10,1625340509.0,32.000000
12,-61,9,1625340509.0,32.000000
11,-61,10,1625340509.0,32.000000
11,-60,12,1625340509.0,32.000000
11,-60,11,1625340509.0,32.000000
12,-60,12,1625340509.0,32.000000
12,-60,13,1625340509.0,32.000000
13,-60,13,1625340509.0,32.000000
13,-60,12,1625340509.0,32.000000
13,-60,11,1625340509.0,32.000000
14,-60,10,1625340509.0,32.000000
14,-60,9,1625340509.0,32.000000
14,-61,10,1625340509.0,32.000000
14,-61,10,1625340509.0,32.000000
13,-61,10,1625340509.0,32.000000
13,-60,11,1625340509.0,32.000000
13,-60,11,1625340509.0,32.000000
14,-61,11,1625340509.0,32.000000
13,-60,11,1625340509.0,32.000000
13,-60,11,1625340509.0,32.000000
13,-60,11,1625340509.0,32.000000
13,-60,10,1625340509.0,32.000000
14,-60,10,1625340509.0,32.000000
13,-61,10,1625340509.0,32.000000
13,-60,10,1625340509.0,32.000000
13,-60,11,1625340509.0,32.000000
13,-60,11,1625340509.0,32.000000
14,-60,11,1625340509.0,32.000000
13,-61,10,1625340509.0,32.000000
13,-61,11,1625340509.0,32.000000
13,-60,11,1625340509.0,32.000000
13,-60,11,1625340509.0,32.000000
13,-60,11,1625340509.0,32.000000
13,-60,11,1625340509.0,32.000000
14,-60,11,1625340509.0,32.000000
14,-60,11,1625340509.0,32.000000
14,-60,11,1625340509.0,32.000000
14,-60,11,1625340509.0,32.000000
14,-60,11,1625340509.0,32.000000
14,-60,10,1625340509.0,32.000000
14,-60,11,1625340509.0,32.000000
13,-61,11,1625340509.0,32.000000
13,-60,11,1625340509.0,32.000000
13,-60,11,1625340509.0,32.000000
13,-60,11,1625340509.0,32.000000
14,-60,11,1625340509.0,32.000000
14,-60,11,1625340509.0,32.000000
14,-60,10,1625340509.0,32.000000
13,-60,9,1625340509.0,32.000000
13,-60,10,1625340509.0,32.000000
13,-60,11,1625340509.0,32.000000
13,-61,12,1625340509.0,32.000000
13,-59,13,1625340509.0,32.000000
15,-60,13,1625340509.0,32.000000
14,-59,12,1625340509.0,32.000000
15,-60,11,1625340509.0,32.000000
14,-60,11,1625340509.0,32.000000
14,-60,11,1625340509.0,32.000000
15,-60,11,1625340509.0,32.000000
14,-60,11,1625340509.0,32.000000
14,-60,11,1625340509.0,32.000000
14,-60,11,1625340509.0,32.000000
13,-60,11,1625340509.0,32.000000
13,-60,11,1625340509.0,32.000000
13,-60,11,1625340509.0,32.000000
13,-60,11,1625340509.0,32.000000
13,-60,11,1625340509.0,32.000000
14,-60,10,1625340509.0,32.000000
14,-60,11,1625340509.0,32.000000
13,-60,12,1625340509.0,32.000000
14,-60,12,1625340509.0,32.000000
13,-60,11,1625340509.0,32.000000
14,-60,11,1625340509.0,32.000000
14,-60,11,1625340509.0,32.000000
14,-60,11,1625340509.0,32.000000
14,-60,10,1625340509.0,32.000000
14,-60,10,1625340509.0,32.000000
14,-60,11,1625340509.0,32.000000
14,-60,11,1625340509.0,32.000000
13,-60,11,1625340509.0,32.000000
13,-60,11,1625340509.0,32.000000
13,-60,10,1625340509.0,32.000000
14,-60,11,1625340509.0,32.000000
14,-60,12,1625340509.0,32.000000
14,-60,12,1625340509.0,32.000000
15,-60,11,1625340509.0,32.000000
14,-60,10,1625340509.0,32.000000
15,-61,9,1625340509.0,32.000000
15,-60,9,1625340509.0,32.000000
14,-60,10,1625340509.0,32.000000
14,-60,10,1625340509.0,32.000000
14,-60,10,1625340509.0,32.000000
14,-60,11,1625340509.0,32.000000
14,-60,11,1625340509.0,32.000000
14,-60,11,1625340509.0,32.000000
14,-60,11,1625340509.0,32.000000
14,-60,11,1625340509.0,32.000000
14,-60,11,1625340509.0,32.000000
14,-60,11,1625340509.0,32.000000
14,-60,11,1625340509.0,32.000000
14,-60,11,1625340509.0,32.000000
14,-60,11,1625340509.0,32.000000
14,-60,11,1625340509.0,32.000000
15,-60,11,1625340509.0,32.000000
14,-60,11,1625340509.0,32.000000
14,-60,11,1625340509.0,32.000000
14,-60,11,1625340509.0,32.000000
14,-60,9,1625340509.0,32.000000
14,-62,9,1625340509.0,32.000000
13,-60,9,1625340509.0,32.000000
13,-59,11,1625340509.0,32.000000
13,-60,12,1625340509.0,32.000000
13,-59,14,1625340509.0,32.000000
15,-60,14,1625340509.0,32.000000
15,-58,12,1625340509.0,32.000000
15,-60,11,1625340509.0,32.000000
16,-61,11,1625340509.0,32.000000
15,-59,10,1625340509.0,32.000000
15,-60,10,1625340509.0,32.000000
14,-60,10,1625340509.0,32.000000
14,-61,10,1625340509.0,32.000000
14,-60,10,1625340509.0,32.000000
13,-60,11,1625340509.0,32.000000
13,-60,11,1625340509.0,32.000000
13,-60,11,1625340509.0,32.000000
14,-60,11,1625340509.0,32.000000
14,-60,11,1625340509.0,32.000000
15,-60,11,1625340509.0,32.000000
15,-60,11,1625340509.0,32.000000
15,-60,11,1625340509.0,32.000000
15,-60,11,1625340509.0,32.000000
13,-60,10,1625340509.0,32.000000
13,-61,10,1625340509.0,32.000000
13,-61,10,1625340509.0,32.000000
13,-60,11,1625340509.0,32.000000
13,-60,10,1625340509.0,32.000000
14,-60,10,1625340509.0,32.000000
14,-60,11,1625340509.0,32.000000
14,-60,11,1625340509.0,32.000000
14,-60,11,1625340509.0,32.000000
14,-60,11,1625340509.0,32.000000
14,-60,10,1625340509.0,32.000000
15,-60,10,1625340509.0,32.000000
15,-60,10,1625340509.0,32.000000
15,-60,10,1625340509.0,32.000000
15,-60,10,1625340509.0,32.000000
14,-60,10,1625340509.0,32.000000
14,-60,11,1625340509.0,32.000000
15,-60,11,1625340509.0,32.000000
14,-60,11,1625340509.0,32.000000
14,-60,11,1625340509.0,32.000000
14,-60,11,1625340509.0,32.000000
13,-60,11,1625340509.0,32.000000
13,-60,11,1625340509.0,32.000000
13,-60,11,1625340509.0,32.000000
13,-60,11,1625340509.0,32.000000
14,-60,11,1625340509.0,32.000000
14,-60,10,1625340509.0,32.000000
14,-60,10,1625340509.0,32.000000
14,-60,10,1625340509.0,32.000000
14,-60,10,1625340509.0,32.000000
15,-60,10,1625340509.0,32.000000
15,-60,11,1625340509.0,32.000000
14,-60,10,1625340509.0,32.000000
14,-60,11,1625340509.0,32.000000
14,-60,11,1625340509.0,32.000000
14,-60,11,1625340509.0,32.000000
14,-60,11,1625340509.0,32.000000
14,-60,10,1625340509.0,32.000000
13,-60,10,1625340509.0,32.000000
14,-60,9,1625340509.0,32.000000
13,-60,11,1625340509.0,32.000000
14,-61,12,1625340509.0,32.000000
13,-59,13,1625340509.0,32.000000
14,-59,13,1625340509.0,32.000000
16,-59,12,1625340509.0,32.000000
15,-60,11,1625340509.0,32.000000
15,-60,11,1625340509.0,32.000000
14,-60,10,1625340509.0,32.000000
13,-60,10,1625340509.0,32.000000
14,-61,10,1625340509.0,32.000000
13,-60,10,1625340509.0,32.000000
13,-60,11,1625340509.0,32.000000
13,-60,11,1625340509.0,32.000000
13,-60,11,1625340509.0,32.000000
14,-60,11,1625340509.0,32.000000
14,-60,11,1625340509.0,32.000000
14,-60,10,1625340509.0,32.000000
15,-60,10,1625340509.0,32.000000
15,-60,10,1625340509.0,32.000000
15,-60,10,1625340509.0,32.000000
14,-60,10,1625340509.0,32.000000
14,-60,11,1625340509.0,32.000000
14,-60,11,1625340509.0,32.000000
13,-60,11,1625340509.0,32.000000
14,-60,11,1625340509.0,32.000000
15,-60,11,1625340509.0,32.000000
15,-60,10,1625340509.0,32.000000
14,-60,10,1625340509.0,32.000000
14,-60,10,1625340509.0,32.000000
13,-60,11,1625340509.0,32.000000
14,-60,11,1625340509.0,32.000000
14,-60,11,1625340509.0,32.000000
15,-60,11,1625340509.0,32.000000
14,-60,11,1625340509.0,32.000000
14,-60,11,1625340509.0,32.000000
14,-60,11,1625340509.0,32.000000
14,-60,11,1625340509.0,32.000000
14,-60,10,1625340509.0,32.000000
14,-60,10,1625340509.0,32.000000
14,-60,10,1625340509.0,32.000000
14,-60,10,1625340509.0,32.000000
14,-60,10,1625340509.0,32.000000
14,-60,10,1625340509.0,32.000000
15,-60,10,1625340509.0,32.000000
15,-60,10,1625340509.0,32.000000
14,-60,11,1625340509.0,32.000000
14,-60,11,1625340509.0,32.000000
14,-60,11,1625340509.0,32.000000
14,-60,11,1625340509.0,32.000000
14,-60,11,1625340509.0,32.000000
14,-60,11,1625340509.0,32.000000
14,-60,11,1625340509.0,32.000000
14,-60,11,1625340509.0,32.000000
14,-60,10,1625340509.0,32.000000
14,-60,10,1625340509.0,32.000000
15,-60,10,1625340509.0,32.000000
15,-60,10,1625340509.0,32.000000
14,-60,11,1625340509.0,32.000000
14,-60,11,1625340509.0,32.000000
14,-60,11,1625340509.0,32.000000
14,-60,11,1625340509.0,32.000000
14,-60,11,1625340509.0,32.000000
14,-60,10,1625340509.0,32.000000
14,-60,10,1625340509.0,32.000000
14,-60,10,1625340509.0,32.000000
14,-60,10,1625340509.0,32.000000
14,-60,10,1625340509.0,32.000000
14,-60,11,1625340509.0,32.000000
14,-60,11,1625340509.0,32.000000
14,-60,11,1625340509.0,32.000000
14,-60,11,1625340509.0,32.000000
14,-61,11,1625340509.0,32.000000
14,-60,11,1625340509.0,32.000000
13,-60,12,1625340509.0,32.000000
13,-60,10,1625340509.0,32.000000
14,-59,14,1625340509.0,32.000000
13,-60,14,1625340509.0,32.000000
14,-60,12,1625340509.0,32.000000
14,-60,11,1625340509.0,32.000000
15,-60,11,1625340509.0,32.000000
15,-60,11,1625340509.0,32.000000
14,-59,12,1625340509.0,32.000000
16,-60,11,1625340509.0,32.000000
15,-60,10,1625340509.0,32.000000
15,-59,12,1625340509.0,32.000000
15,-59,13,1625340509.0,32.000000
15,-60,12,1625340509.0,32.000000
15,-60,12,1625340509.0,32.000000
15,-60,12,1625340509.0,32.000000
15,-59,12,1625340509.0,32.000000
14,-60,10,1625340509.0,32.000000
16,-61,7,1625340509.0,32.000000
15,-60,7,1625340509.0,32.000000
15,-61,8,1625340509.0,32.000000
13,-61,9,1625340509.0,32.000000
13,-61,9,1625340509.0,32.000000
13,-60,8,1625340509.0,32.000000
15,-60,12,1625340509.0,32.000000
15,-60,13,1625340509.0,32.000000
15,-60,12,1625340509.0,32.000000
15,-60,12,1625340509.0,32.000000
15,-60,13,1625340509.0,32.000000
14,-60,12,1625340509.0,32.000000
14,-60,12,1625340509.0,32.000000
14,-60,11,1625340509.0,32.000000
14,-60,11,1625340509.0,32.000000
14,-60,10,1625340509.0,32.000000
14,-60,10,1625340509.0,32.000000
14,-60,11,1625340509.0,32.000000
15,-60,11,1625340509.0,32.000000
15,-60,11,1625340509.0,32.000000
15,-60,11,1625340509.0,32.000000
15,-60,11,1625340509.0,32.000000
15,-60,11,1625340509.0,32.000000
14,-60,12,1625340509.0,32.000000
14,-60,12,1625340509.0,32.000000
14,-60,12,1625340509.0,32.000000
14,-60,12,1625340509.0,32.000000
14,-60,12,1625340509.0,32.000000
13,-60,12,1625340509.0,32.000000
14,-60,12,1625340509.0,32.000000
15,-60,11,1625340509.0,32.000000
15,-60,11,1625340509.0,32.000000
15,-60,11,1625340509.0,32.000000
14,-60,11,1625340509.0,32.000000
13,-60,12,1625340509.0,32.000000
11,-60,13,1625340509.0,32.000000
12,-60,14,1625340509.0,32.000000
11,-60,14,1625340509.0,32.000000
18,-58,27,1625340509.0,32.000000
26,-56,29,1625340509.0,32.000000
14,-58,13,1625340509.0,32.000000
10,-58,21,1625340509.0,32.000000
15,-57,13,1625340509.0,32.000000
11,-60,12,1625340509.0,32.000000
17,-60,12,1625340509.0,32.000000
15,-59,11,1625340509.0,32.000000
14,-59,15,1625340509.0,32.000000
15,-59,15,1625340509.0,32.000000
14,-57,17,1625340509.0,32.000000
18,-56,22,1625340509.0,32.000000
16,-57,24,1625340509.0,32.000000
17,-56,23,1625340509.0,32.000000
21,-57,21,1625340509.0,32.000000
20,-57,19,1625340509.0,32.000000
17,-58,17,1625340509.0,32.000000
15,-57,20,1625340509.0,32.000000
16,-57,21,1625340509.0,32.000000
16,-56,23,1625340509.0,32.000000
17,-56,24,1625340509.0,32.000000
17,-56,24,1625340509.0,32.000000
18,-56,23,1625340509.0,32.000000
18,-57,22,1625340509.0,32.000000
16,-57,20,1625340509.0,32.000000
15,-57,20,1625340509.0,32.000000
16,-57,20,1625340509.0,32.000000
18,-57,21,1625340509.0,32.000000
18,-56,22,1625340509.0,32.000000
17,-57,21,1625340509.0,32.000000
17,-57,21,1625340509.0,32.000000
14,-57,20,1625340509.0,32.000000
15,-56,22,1625340509.0,32.000000
17,-56,23,1625340509.0,32.000000
16,-56,23,1625340509.0,32.000000
15,-57,22,1625340509.0,32.000000
15,-57,22,1625340509.0,32.000000
14,-57,21,1625340509.0,32.000000
15,-57,21,1625340509.0,32.000000
15,-57,20,1625340509.0,32.000000
16,-57,20,1625340509.0,32.000000
17,-57,22,1625340509.0,32.000000
16,-57,21,1625340509.0,32.000000
15,-57,21,1625340509.0,32.000000
15,-57,21,1625340509.0,32.000000
16,-57,22,1625340509.0,32.000000
16,-57,22,1625340509.0,32.000000
16,-57,22,1625340509.0,32.000000
16,-57,22,1625340509.0,32.000000
16,-57,22,1625340509.0,32.000000
16,-57,22,1625340509.0,32.000000
15,-57,22,1625340509.0,32.000000
16,-57,22,1625340509.0,32.000000
16,-57,22,1625340509.0,32.000000
16,-57,22,1625340509.0,32.000000
16,-57,22,1625340509.0,32.000000
16,-57,21,1625340509.0,32.000000
16,-56,22,1625340509.0,32.000000
16,-56,22,1625340509.0,32.000000
16,-57,22,1625340509.0,32.000000
16,-57,22,1625340509.0,32.000000
15,-57,22,1625340509.0,32.000000
14,-57,22,1625340509.0,32.000000
15,-57,21,1625340509.0,32.000000
15,-57,21,1625340509.0,32.000000
15,-57,21,1625340509.0,32.000000
15,-57,21,1625340509.0,32.000000
16,-57,22,1625340509.0,32.000000
15,-57,22,1625340509.0,32.000000
16,-57,22,1625340509.0,32.000000
15,-57,22,1625340509.0,32.000000
15,-57,22,1625340509.0,32.000000
16,-57,22,1625340509.0,32.000000
15,-57,21,1625340509.0,32.000000
16,-57,22,1625340509.0,32.000000
15,-57,21,1625340509.0,32.000000
14,-57,22,1625340509.0,32.000000
14,-57,22,1625340509.0,32.000000
15,-57,22,1625340509.0,32.000000
15,-57,22,1625340509.0,32.000000
15,-57,22,1625340509.0,32.000000
16,-57,22,1625340509.0,32.000000
15,-57,22,1625340509.0,32.000000
16,-57,22,1625340509.0,32.000000
15,-57,21,1625340509.0,32.000000
14,-57,21,1625340509.0,32.000000
14,-57,21,1625340509.0,32.000000
14,-57,21,1625340509.0,32.000000
15,-57,21,1625340509.0,32.000000
15,-57,22,1625340509.0,32.000000
15,-57,22,1625340509.0,32.000000
15,-57,21,1625340509.0,32.000000
15,-57,21,1625340509.0,32.000000
15,-57,22,1625340509.0,32.000000
15,-57,22,1625340509.0,32.000000
15,-57,21,1625340509.0,32.000000
15,-57,22,1625340509.0,32.000000
15,-57,21,1625340509.0,32.000000
15,-57,22,1625340509.0,32.000000
15,-57,22,1625340509.0,32.000000
15,-57,22,1625340509.0,32.000000
15,-57,22,1625340509.0,32.000000
15,-57,22,1625340509.0,32.000000
15,-57,22,1625340509.0,32.000000
15,-57,22,1625340509.0,32.000000
15,-57,21,1625340509.0,32.000000
15,-57,21,1625340509.0,32.000000
15,-57,21,1625340509.0,32.000000
15,-57,22,1625340509.0,32.000000
15,-57,21,1625340509.0,32.000000
15,-57,22,1625340509.0,32.000000
15,-57,21,1625340509.0,32.000000
15,-57,22,1625340509.0,32.000000
15,-57,21,1625340509.0,32.000000
15,-57,21,1625340509.0,32.000000
15,-57,21,1625340509.0,32.000000
15,-57,21,1625340509.0,32.000000
15,-57,21,1625340509.0,32.000000
15,-57,21,1625340509.0,32.000000
15,-57,21,1625340509.0,32.000000
15,-57,21,1625340509.0,32.000000
15,-57,21,1625340509.0,32.000000
14,-57,22,1625340509.0,32.000000
15,-57,21,1625340509.0,32.000000
15,-57,21,1625340509.0,32.000000
15,-57,21,1625340509.0,32.000000
15,-57,22,1625340509.0,32.000000
15,-57,21,1625340509.0,32.000000
15,-57,22,1625340509.0,32.000000
15,-57,21,1625340509.0,32.000000
15,-57,21,1625340509.0,32.000000
15,-57,22,1625340509.0,32.000000
15,-57,21,1625340509.0,32.000000
15,-57,21,1625340509.0,32.000000
15,-57,22,1625340509.0,32.000000
15,-57,22,1625340509.0,32.000000
15,-57,21,1625340509.0,32.000000
