ACC_X,ACC_Y,ACC_Z,start_time_unix,sampling_rate
-51,6,39,1625340509.0,32.000000
-49,6,39,1625340509.0,32.000000
-50,8,38,1625340509.0,32.000000
-50,8,37,1625340509.0,32.000000
-52,8,37,1625340509.0,32.000000
-50,7,38,1625340509.0,32.000000
-49,7,38,1625340509.0,32.000000
-51,6,37,1625340509.0,32.000000
-51,7,36,1625340509.0,32.000000
-50,7,37,1625340509.0,32.000000
-49,7,38,1625340509.0,32.000000
-51,7,37,1625340509.0,32.000000
-50,7,37,1625340509.0,32.000000
-51,8,37,1625340509.0,32.000000
-52,7,36,1625340509.0,32.000000
-50,6,37,1625340509.0,32.000000
-51,6,37,1625340509.0,32.000000
-51,6,37,1625340509.0,32.000000
-51,6,37,1625340509.0,32.000000
-51,6,37,1625340509.0,32.000000
-51,6,37,1625340509.0,32.000000
-51,7,37,1625340509.0,32.000000
-51,7,37,1625340509.0,32.000000
-51,7,37,1625340509.0,32.000000
-51,7,37,1625340509.0,32.000000
-51,7,37,1625340509.0,32.000000
-51,7,37,1625340509.0,32.000000
-51,7,37,1625340509.0,32.000000
-51,7,37,1625340509.0,32.000000
-51,6,37,1625340509.0,32.000000
-51,7,37,1625340509.0,32.000000
-51,7,37,1625340509.0,32.000000
-51,7,37,1625340509.0,32.000000
-51,6,37,1625340509.0,32.000000
-51,7,37,1625340509.0,32.000000
-51,7,37,1625340509.0,32.000000
-51,6,37,1625340509.0,32.000000
-51,7,37,1625340509.0,32.000000
-51,7,37,1625340509.0,32.000000
-51,7,37,1625340509.0,32.000000
-50,6,37,1625340509.0,32.000000
-51,7,37,1625340509.0,32.000000
-50,6,37,1625340509.0,32.000000
-51,7,37,1625340509.0,32.000000
-51,7,37,1625340509.0,32.000000
-51,7,37,1625340509.0,32.000000
-51,6,37,1625340509.0,32.000000
-51,6,37,1625340509.0,32.000000
-51,6,37,1625340509.0,32.000000
-51,7,37,1625340509.0,32.000000
-51,7,37,1625340509.0,32.000000
-51,6,37,1625340509.0,32.000000
-51,6,37,1625340509.0,32.000000
-51,6,37,1625340509.0,32.000000
-51,7,37,1625340509.0,32.000000
-51,7,37,1625340509.0,32.000000
-51,6,37,1625340509.0,32.000000
-51,6,37,1625340509.0,32.000000
-51,7,37,1625340509.0,32.000000
-51,6,37,1625340509.0,32.000000
-51,6,37,1625340509.0,32.000000
-51,6,37,1625340509.0,32.000000
-51,6,37,1625340509.0,32.000000
-50,6,37,1625340509.0,32.000000
-51,7,37,1625340509.0,32.000000
-51,6,37,1625340509.0,32.000000
-51,7,37,1625340509.0,32.000000
-51,6,37,1625340509.0,32.000000
-51,6,37,1625340509.0,32.000000
-51,6,37,1625340509.0,32.000000
-51,6,37,1625340509.0,32.000000
-51,6,37,1625340509.0,32.000000
-51,6,37,1625340509.0,32.000000
-50,6,37,1625340509.0,32.000000
-50,6,37,1625340509.0,32.000000
-50,6,38,1625340509.0,32.000000
-51,7,37,1625340509.0,32.000000
-51,6,38,1625340509.0,32.000000
-50,6,37,1625340509.0,32.000000
-51,6,37,1625340509.0,32.000000
-50,6,37,1625340509.0,32.000000
-51,6,37,1625340509.0,32.000000
-50,6,37,1625340509.0,32.000000
-51,6,37,1625340509.0,32.000000
-51,6,37,1625340509.0,32.000000
-51,7,37,1625340509.0,32.000000
-51,6,37,1625340509.0,32.000000
-51,6,37,1625340509.0,32.000000
-51,6,37,1625340509.0,32.000000
-51,6,37,1625340509.0,32.000000
-50,6,37,1625340509.0,32.000000
-51,6,37,1625340509.0,32.000000
-50,7,38,1625340509.0,32.000000
-50,6,38,1625340509.0,32.000000
-51,6,37,1625340509.0,32.000000
-52,7,37,1625340509.0,32.000000
-51,7,37,1625340509.0,32.000000
-51,7,37,1625340509.0,32.000000
-51,6,37,1625340509.0,32.000000
-51,6,37,1625340509.0,32.000000
-51,6,37,1625340509.0,32.000000
-51,6,37,1625340509.0,32.000000
-51,6,37,1625340509.0,32.000000
-51,6,37,1625340509.0,32.000000
-51,6,37,1625340509.0,32.000000
-51,6,37,1625340509.0,32.000000
-50,7,37,1625340509.0,32.000000
-51,6,37,1625340509.0,32.000000
-51,6,37,1625340509.0,32.000000
-50,7,37,1625340509.0,32.000000
-51,6,37,1625340509.0,32.000000
-51,6,37,1625340509.0,32.000000
-50,6,38,1625340509.0,32.000000
-51,6,37,1625340509.0,32.000000
-50,6,37,1625340509.0,32.000000
-51,6,37,1625340509.0,32.000000
-51,6,37,1625340509.0,32.000000
-51,7,37,1625340509.0,32.000000
-51,7,37,1625340509.0,32.000000
-51,6,37,1625340509.0,32.000000
-51,6,37,1625340509.0,32.000000
-51,6,37,1625340509.0,32.000000
-50,6,38,1625340509.0,32.000000
-51,7,37,1625340509.0,32.000000
-51,6,37,1625340509.0,32.000000
-50,6,37,1625340509.0,32.000000
-51,7,37,1625340509.0,32.000000
-51,6,37,1625340509.0,32.000000
-50,6,37,1625340509.0,32.000000
-51,6,38,1625340509.0,32.000000
-51,6,37,1625340509.0,32.000000
-51,6,37,1625340509.0,32.000000
-50,7,37,1625340509.0,32.000000
-51,6,38,1625340509.0,32.000000
-51,6,37,1625340509.0,32.000000
-51,6,37,1625340509.0,32.000000
-50,6,37,1625340509.0,32.000000
-51,6,38,1625340509.0,32.000000
-51,7,37,1625340509.0,32.000000
-51,7,37,1625340509.0,32.000000
-50,6,37,1625340509.0,32.000000
-51,6,37,1625340509.0,32.000000
-51,6,37,1625340509.0,32.000000
-51,6,38,1625340509.0,32.000000
-51,6,37,1625340509.0,32.000000
-50,6,37,1625340509.0,32.000000
-50,6,38,1625340509.0,32.000000
-51,6,38,1625340509.0,32.000000
-51,6,37,1625340509.0,32.000000
-51,6,37,1625340509.0,32.000000
-51,6,37,1625340509.0,32.000000
-51,6,37,1625340509.0,32.000000
-50,6,37,1625340509.0,32.000000
-51,6,37,1625340509.0,32.000000
-50,6,37,1625340509.0,32.000000
-51,6,37,1625340509.0,32.000000
-50,6,38,1625340509.0,32.000000
-51,6,38,1625340509.0,32.000000
-50,6,38,1625340509.0,32.000000
-50,6,38,1625340509.0,32.000000
-50,6,38,1625340509.0,32.000000
-50,6,37,1625340509.0,32.000000
-50,6,38,1625340509.0,32.000000
-51,6,38,1625340509.0,32.000000
-50,7,38,1625340509.0,32.000000
-50,6,38,1625340509.0,32.000000
-51,7,37,1625340509.0,32.000000
-50,6,38,1625340509.0,32.000000
-51,6,37,1625340509.0,32.000000
-51,6,37,1625340509.0,32.000000
-51,6,37,1625340509.0,32.000000
-51,6,37,1625340509.0,32.000000
-51,6,37,1625340509.0,32.000000
-51,7,36,1625340509.0,32.000000
-51,7,37,1625340509.0,32.000000
-51,7,37,1625340509.0,32.000000
-51,7,37,1625340509.0,32.000000
-50,7,38,1625340509.0,32.000000
-50,7,38,1625340509.0,32.000000
-50,7,38,1625340509.0,32.000000
-50,7,38,1625340509.0,32.000000
-50,7,38,1625340509.0,32.000000
-50,7,38,1625340509.0,32.000000
-50,7,38,1625340509.0,32.000000
-50,7,38,1625340509.0,32.000000
-51,7,38,1625340509.0,32.000000
-50,7,38,1625340509.0,32.000000
-50,7,38,1625340509.0,32.000000
-50,6,38,1625340509.0,32.000000
-50,6,38,1625340509.0,32.000000
-50,7,38,1625340509.0,32.000000
-50,7,38,1625340509.0,32.000000
-50,7,37,1625340509.0,32.000000
-50,7,38,1625340509.0,32.000000
-50,7,38,1625340509.0,32.000000
-50,7,38,1625340509.0,32.000000
-50,7,38,1625340509.0,32.000000
-51,7,37,1625340509.0,32.000000
-50,7,38,1625340509.0,32.000000
-50,7,38,1625340509.0,32.000000
-50,7,38,1625340509.0,32.000000
-50,7,38,1625340509.0,32.000000
-50,7,38,1625340509.0,32.000000
-50,7,38,1625340509.0,32.000000
-50,7,38,1625340509.0,32.000000
-50,6,38,1625340509.0,32.000000
-50,7,38,1625340509.0,32.000000
-50,7,38,1625340509.0,32.000000
-50,7,38,1625340509.0,32.000000
-50,7,38,1625340509.0,32.000000
-50,7,38,1625340509.0,32.000000
-50,7,38,1625340509.0,32.000000
-50,7,38,1625340509.0,32.000000
-50,7,38,1625340509.0,32.000000
-50,7,38,1625340509.0,32.000000
-50,7,38,1625340509.0,32.000000
-50,7,38,1625340509.0,32.000000
-50,7,38,1625340509.0,32.000000
-50,7,38,1625340509.0,32.000000
-50,7,38,1625340509.0,32.000000
-50,7,38,1625340509.0,32.000000
-50,7,38,1625340509.0,32.000000
-50,7,38,1625340509.0,32.000000
-50,7,38,1625340509.0,32.000000
-50,7,38,1625340509.0,32.000000
-50,7,38,1625340509.0,32.000000
-50,7,38,1625340509.0,32.000000
-50,7,38,1625340509.0,32.000000
-50,7,38,1625340509.0,32.000000
-50,7,38,1625340509.0,32.000000
-50,7,38,1625340509.0,32.000000
-50,7,38,1625340509.0,32.000000
-50,7,38,1625340509.0,32.000000
-50,7,38,1625340509.0,32.000000
-50,7,38,1625340509.0,32.000000
-50,7,38,1625340509.0,32.000000
-50,7,38,1625340509.0,32.000000
-50,7,38,1625340509.0,32.000000
-50,7,38,1625340509.0,32.000000
-50,7,38,1625340509.0,32.000000
-50,7,38,1625340509.0,32.000000
-50,7,38,1625340509.0,32.000000
-50,7,38,1625340509.0,32.000000
-50,7,38,1625340509.0,32.000000
-50,7,38,1625340509.0,32.000000
-50,7,38,1625340509.0,32.000000
-50,7,38,1625340509.0,32.000000
-50,6,38,1625340509.0,32.000000
-50,7,38,1625340509.0,32.000000
-50,7,38,1625340509.0,32.000000
-50,7,38,1625340509.0,32.000000
-50,7,38,1625340509.0,32.000000
-50,7,38,1625340509.0,32.000000
-50,7,38,1625340509.0,32.000000
-50,7,38,1625340509.0,32.000000
-50,7,38,1625340509.0,32.000000
-50,7,38,1625340509.0,32.000000
-50,7,38,1625340509.0,32.000000
-50,7,38,1625340509.0,32.000000
-50,7,38,1625340509.0,32.000000
-50,7,38,1625340509.0,32.000000
-50,7,38,1625340509.0,32.000000
-50,7,38,1625340509.0,32.000000
-50,7,38,1625340509.0,32.000000
-50,7,38,1625340509.0,32.000000
-50,7,38,1625340509.0,32.000000
-49,7,39,1625340509.0,32.000000
-49,7,39,1625340509.0,32.000000
-49,6,39,1625340509.0,32.000000
-49,7,39,1625340509.0,32.000000
-50,6,39,1625340509.0,32.000000
-49,7,39,1625340509.0,32.000000
-50,7,39,1625340509.0,32.000000
-50,7,38,1625340509.0,32.000000
-50,7,38,1625340509.0,32.000000
-50,7,38,1625340509.0,32.000000
-50,7,38,1625340509.0,32.000000
-50,7,38,1625340509.0,32.000000
-50,7,38,1625340509.0,32.000000
-50,6,38,1625340509.0,32.000000
-50,7,38,1625340509.0,32.000000
-50,7,38,1625340509.0,32.000000
-50,7,38,1625340509.0,32.000000
-50,7,38,1625340509.0,32.000000
-50,6,38,1625340509.0,32.000000
-50,7,38,1625340509.0,32.000000
-50,7,38,1625340509.0,32.000000
-50,7,38,1625340509.0,32.000000
-50,7,38,1625340509.0,32.000000
-50,7,38,1625340509.0,32.000000
-50,6,38,1625340509.0,32.000000
-50,7,38,1625340509.0,32.000000
-50,7,38,1625340509.0,32.000000
-50,7,38,1625340509.0,32.000000
-50,7,38,1625340509.0,32.000000
-50,7,38,1625340509.0,32.000000
-50,7,38,1625340509.0,32.000000
-50,7,38,1625340509.0,32.000000
-50,7,38,1625340509.0,32.000000
-50,7,38,1625340509.0,32.000000
-51,7,38,1625340509.0,32.000000
-50,7,38,1625340509.0,32.000000
-50,7,38,1625340509.0,32.000000
-51,7,38,1625340509.0,32.000000
-50,7,38,1625340509.0,32.000000
-50,6,37,1625340509.0,32.000000
-51,7,38,1625340509.0,32.000000
-51,7,37,1625340509.0,32.000000
-50,7,38,1625340509.0,32.000000
-50,7,37,1625340509.0,32.000000
-50,6,38,1625340509.0,32.000000
-51,6,37,1625340509.0,32.000000
-50,7,38,1625340509.0,32.000000
-50,7,38,1625340509.0,32.000000
-50,7,37,1625340509.0,32.000000
-51,6,38,1625340509.0,32.000000
-50,7,37,1625340509.0,32.000000
-51,7,38,1625340509.0,32.000000
-50,6,38,1625340509.0,32.000000
-51,7,37,1625340509.0,32.000000
-50,7,38,1625340509.0,32.000000
-50,7,38,1625340509.0,32.000000
-50,7,38,1625340509.0,32.000000
-50,6,38,1625340509.0,32.000000
-50,7,38,1625340509.0,32.000000
-50,6,38,1625340509.0,32.000000
-50,7,38,1625340509.0,32.000000
-50,7,37,1625340509.0,32.000000
-50,7,37,1625340509.0,32.000000
-51,6,38,1625340509.0,32.000000
-51,6,38,1625340509.0,32.000000
-50,7,38,1625340509.0,32.000000
-50,7,38,1625340509.0,32.000000
-51,7,37,1625340509.0,32.000000
-50,6,37,1625340509.0,32.000000
-51,7,38,1625340509.0,32.000000
-50,7,38,1625340509.0,32.000000
-51,6,37,1625340509.0,32.000000
-51,7,37,1625340509.0,32.000000
-51,6,38,1625340509.0,32.000000
-50,6,38,1625340509.0,32.000000
-51,7,38,1625340509.0,32.000000
-50,6,37,1625340509.0,32.000000
-50,7,37,1625340509.0,32.000000
-51,7,38,1625340509.0,32.000000
-50,6,37,1625340509.0,32.000000
-50,6,38,1625340509.0,32.000000
-50,6,38,1625340509.0,32.000000
-51,7,37,1625340509.0,32.000000
-50,7,38,1625340509.0,32.000000
-51,7,38,1625340509.0,32.000000
-50,6,38,1625340509.0,32.000000
-51,6,37,1625340509.0,32.000000
-50,7,37,1625340509.0,32.000000
-51,7,37,1625340509.0,32.000000
-50,7,37,1625340509.0,32.000000
-51,6,37,1625340509.0,32.000000
-51,6,37,1625340509.0,32.000000
-51,7,37,1625340509.0,32.000000
-50,6,38,1625340509.0,32.000000
-50,7,37,1625340509.0,32.000000
-50,7,38,1625340509.0,32.000000
-50,7,37,1625340509.0,32.000000
-50,7,38,1625340509.0,32.000000
-50,7,38,1625340509.0,32.000000
-50,7,38,1625340509.0,32.000000
-50,7,38,1625340509.0,32.000000
-50,6,38,1625340509.0,32.000000
-50,6,38,1625340509.0,32.000000
-50,6,38,1625340509.0,32.000000
-50,7,38,1625340509.0,32.000000
-50,7,38,1625340509.0,32.000000
-50,7,38,1625340509.0,32.000000
-50,7,38,1625340509.0,32.000000
-50,6,38,1625340509.0,32.000000
-50,7,38,1625340509.0,32.000000
-50,7,38,1625340509.0,32.000000
-50,7,38,1625340509.0,32.000000
-50,7,38,1625340509.0,32.000000
-50,7,38,1625340509.0,32.000000
-50,7,38,1625340509.0,32.000000
-50,6,38,1625340509.0,32.000000
-50,6,38,1625340509.0,32.000000
-50,7,38,1625340509.0,32.000000
-50,7,38,1625340509.0,32.000000
-50,7,38,1625340509.0,32.000000
-50,7,38,1625340509.0,32.000000
-50,7,37,1625340509.0,32.000000
-50,7,37,1625340509.0,32.000000
-50,7,37,1625340509.0,32.000000
-51,6,38,1625340509.0,32.000000
-50,7,37,1625340509.0,32.000000
-50,6,37,1625340509.0,32.000000
-51,6,38,1625340509.0,32.000000
-51,6,37,1625340509.0,32.000000
-51,6,37,1625340509.0,32.000000
-51,7,37,1625340509.0,32.000000
-51,7,37,1625340509.0,32.000000
-51,7,37,1625340509.0,32.000000
-51,7,37,1625340509.0,32.000000
-50,7,37,1625340509.0,32.000000
-50,7,37,1625340509.0,32.000000
-50,7,37,1625340509.0,32.000000
-50,7,37,1625340509.0,32.000000
-50,7,38,1625340509.0,32.000000
-50,7,38,1625340509.0,32.000000
-50,7,37,1625340509.0,32.000000
-51,6,37,1625340509.0,32.000000
-51,6,37,1625340509.0,32.000000
-51,6,37,1625340509.0,32.000000
-51,7,37,1625340509.0,32.000000
-51,6,37,1625340509.0,32.000000
-51,6,37,1625340509.0,32.000000
-51,7,37,1625340509.0,32.000000
-51,7,38,1625340509.0,32.000000
-51,6,37,1625340509.0,32.000000
-50,7,37,1625340509.0,32.000000
-50,7,37,1625340509.0,32.000000
-50,7,38,1625340509.0,32.000000
-50,7,38,1625340509.0,32.000000
-50,7,38,1625340509.0,32.000000
-50,7,38,1625340509.0,32.000000
-50,6,37,1625340509.0,32.000000
-50,6,37,1625340509.0,32.000000
-50,7,37,1625340509.0,32.000000
-50,7,38,1625340509.0,32.000000
-50,7,38,1625340509.0,32.000000
-50,7,38,1625340509.0,32.000000
-50,7,38,1625340509.0,32.000000
-50,7,38,1625340509.0,32.000000
-50,7,38,1625340509.0,32.000000
-50,7,37,1625340509.0,32.000000
-50,6,38,1625340509.0,32.000000
-51,6,38,1625340509.0,32.000000
-50,7,38,1625340509.0,32.000000
-50,6,37,1625340509.0,32.000000
-50,6,38,1625340509.0,32.000000
-50,7,38,1625340509.0,32.000000
-50,7,38,1625340509.0,32.000000
-50,7,38,1625340509.0,32.000000
-50,7,38,1625340509.0,32.000000
-50,7,38,1625340509.0,32.000000
-50,7,38,1625340509.0,32.000000
-50,7,38,1625340509.0,32.000000
-50,7,38,1625340509.0,32.000000
-50,7,38,1625340509.0,32.000000
-50,7,38,1625340509.0,32.000000
-50,7,38,1625340509.0,32.000000
-50,7,38,1625340509.0,32.000000
-50,7,38,1625340509.0,32.000000
-49,7,38,1625340509.0,32.000000
-49,7,39,1625340509.0,32.000000
-50,7,39,1625340509.0,32.000000
-50,7,38,1625340509.0,32.000000
-50,7,38,1625340509.0,32.000000
-50,7,38,1625340509.0,32.000000
-50,7,38,1625340509.0,32.000000
-50,7,38,1625340509.0,32.000000
-50,7,38,1625340509.0,32.000000
-50,7,38,1625340509.0,32.000000
-50,7,38,1625340509.0,32.000000
-50,7,38,1625340509.0,32.000000
-50,7,38,1625340509.0,32.000000
-50,7,38,1625340509.0,32.000000
-49,7,39,1625340509.0,32.000000
-50,7,38,1625340509.0,32.000000
-50,7,38,1625340509.0,32.000000
-50,7,38,1625340509.0,32.000000
-50,7,39,1625340509.0,32.000000
-50,7,39,1625340509.0,32.000000
-49,7,38,1625340509.0,32.000000
-50,7,39,1625340509.0,32.000000
-50,7,39,1625340509.0,32.000000
-49,7,38,1625340509.0,32.000000
-49,7,39,1625340509.0,32.000000
-49,7,39,1625340509.0,32.000000
-50,7,38,1625340509.0,32.000000
-50,7,38,1625340509.0,32.000000
-50,7,39,1625340509.0,32.000000
-50,7,38,1625340509.0,32.000000
-49,7,39,1625340509.0,32.000000
-50,7,38,1625340509.0,32.000000
-50,7,38,1625340509.0,32.000000
-50,7,38,1625340509.0,32.000000
-50,7,38,1625340509.0,32.000000
-50,7,38,1625340509.0,32.000000
-50,7,39,1625340509.0,32.000000
-50,7,38,1625340509.0,32.000000
-50,7,38,1625340509.0,32.000000
-50,7,39,1625340509.0,32.000000
-50,7,39,1625340509.0,32.000000
-50,7,39,1625340509.0,32.000000
-50,7,38,1625340509.0,32.000000
-50,7,38,1625340509.0,32.000000
-49,7,38,1625340509.0,32.000000
-50,7,38,1625340509.0,32.000000
-50,7,38,1625340509.0,32.000000
-50,7,38,1625340509.0,32.000000
-50,7,38,1625340509.0,32.000000
-49,7,38,1625340509.0,32.000000
-50,7,38,1625340509.0,32.000000
-50,7,38,1625340509.0,32.000000
-50,7,38,1625340509.0,32.000000
-50,7,38,1625340509.0,32.000000
-50,7,38,1625340509.0,32.000000
-50,7,38,1625340509.0,32.000000
-49,7,39,1625340509.0,32.000000
-49,7,38,1625340509.0,32.000000
-49,7,39,1625340509.0,32.000000
-50,7,39,1625340509.0,32.000000
-50,7,39,1625340509.0,32.000000
-49,7,38,1625340509.0,32.000000
-50,7,39,1625340509.0,32.000000
-49,7,39,1625340509.0,32.000000
-49,7,39,1625340509.0,32.000000
-50,7,39,1625340509.0,32.000000
-50,7,38,1625340509.0,32.000000
-50,7,38,1625340509.0,32.000000
-50,7,38,1625340509.0,32.000000
-50,7,38,1625340509.0,32.000000
-50,7,38,1625340509.0,32.000000
-50,7,39,1625340509.0,32.000000
-49,7,38,1625340509.0,32.000000
-50,7,39,1625340509.0,32.000000
-50,7,39,1625340509.0,32.000000
-50,7,39,1625340509.0,32.000000
-50,7,39,1625340509.0,32.000000
-50,7,39,1625340509.0,32.000000
-50,7,38,1625340509.0,32.000000
-50,7,39,1625340509.0,32.000000
-50,7,39,1625340509.0,32.000000
-50,7,39,1625340509.0,32.000000
-49,7,39,1625340509.0,32.000000
-50,7,39,1625340509.0,32.000000
-50,7,38,1625340509.0,32.000000
-49,7,39,1625340509.0,32.000000
-49,7,38,1625340509.0,32.000000
-49,7,39,1625340509.0,32.000000
-49,7,39,1625340509.0,32.000000
-49,7,39,1625340509.0,32.000000
-50,7,38,1625340509.0,32.000000
-50,7,39,1625340509.0,32.000000
-49,7,38,1625340509.0,32.000000
-50,7,39,1625340509.0,32.000000
-49,7,39,1625340509.0,32.000000
-49,7,39,1625340509.0,32.000000
-50,7,39,1625340509.0,32.000000
-49,7,39,1625340509.0,32.000000
-50,7,39,1625340509.0,32.000000
-49,7,39,1625340509.0,32.000000
-50,7,39,1625340509.0,32.000000
-49,7,39,1625340509.0,32.000000
-49,7,39,1625340509.0,32.000000
-49,7,38,1625340509.0,32.000000
-50,7,39,1625340509.0,32.000000
-49,7,39,1625340509.0,32.000000
-49,7,39,1625340509.0,32.000000
-50,7,38,1625340509.0,32.000000
-50,7,39,1625340509.0,32.000000
-49,7,39,1625340509.0,32.000000
-50,7,38,1625340509.0,32.000000
-50,7,38,1625340509.0,32.000000
-49,7,39,1625340509.0,32.000000
-49,7,39,1625340509.0,32.000000
-49,7,38,1625340509.0,32.000000
-49,7,38,1625340509.0,32.000000
-50,7,39,1625340509.0,32.000000
-49,7,39,1625340509.0,32.000000
-49,7,39,1625340509.0,32.000000
-50,6,38,1625340509.0,32.000000
-50,7,39,1625340509.0,32.000000
-49,7,39,1625340509.0,32.000000
-49,7,39,1625340509.0,32.000000
-50,7,38,1625340509.0,32.000000
-50,7,39,1625340509.0,32.000000
-49,7,39,1625340509.0,32.000000
-49,7,39,1625340509.0,32.000000
-49,7,38,1625340509.0,32.000000
-49,7,39,1625340509.0,32.000000
-49,7,39,1625340509.0,32.000000
-49,7,40,1625340509.0,32.000000
-50,6,38,1625340509.0,32.000000
-50,7,38,1625340509.0,32.000000
-49,7,40,1625340509.0,32.000000
-48,7,39,1625340509.0,32.000000
-50,7,37,1625340509.0,32.000000
-50,7,39,1625340509.0,32.000000
-50,7,39,1625340509.0,32.000000
-49,7,39,1625340509.0,32.000000
-50,6,39,1625340509.0,32.000000
-50,6,38,1625340509.0,32.000000
-50,7,39,1625340509.0,32.000000
-49,7,39,1625340509.0,32.000000
-51,7,38,1625340509.0,32.000000
-50,6,39,1625340509.0,32.000000
-49,7,38,1625340509.0,32.000000
-50,7,38,1625340509.0,32.000000
-49,7,38,1625340509.0,32.000000
-50,7,38,1625340509.0,32.000000
-50,7,38,1625340509.0,32.000000
-50,7,38,1625340509.0,32.000000
-50,7,38,1625340509.0,32.000000
-50,7,39,1625340509.0,32.000000
-50,7,38,1625340509.0,32.000000
-50,7,39,1625340509.0,32.000000
-50,7,38,1625340509.0,32.000000
-50,7,38,1625340509.0,32.000000
-50,7,38,1625340509.0,32.000000
-49,7,38,1625340509.0,32.000000
-50,7,38,1625340509.0,32.000000
-50,7,38,1625340509.0,32.000000
-50,7,38,1625340509.0,32.000000
-49,6,38,1625340509.0,32.000000
-50,6,39,1625340509.0,32.000000
-50,6,38,1625340509.0,32.000000
-50,6,38,1625340509.0,32.000000
-50,7,38,1625340509.0,32.000000
-50,7,38,1625340509.0,32.000000
-50,7,38,1625340509.0,32.000000
-50,7,38,1625340509.0,32.000000
-50,7,38,1625340509.0,32.000000
-50,7,38,1625340509.0,32.000000
-50,7,39,1625340509.0,32.000000
-50,7,38,1625340509.0,32.000000
-49,7,38,1625340509.0,32.000000
-49,7,39,1625340509.0,32.000000
-49,7,39,1625340509.0,32.000000
-49,7,38,1625340509.0,32.000000
-50,7,38,1625340509.0,32.000000
-50,7,38,1625340509.0,32.000000
-50,7,38,1625340509.0,32.000000
-50,7,39,1625340509.0,32.000000
-50,7,39,1625340509.0,32.000000
-50,6,38,1625340509.0,32.000000
-50,7,38,1625340509.0,32.000000
-50,7,38,1625340509.0,32.000000
-49,7,39,1625340509.0,32.000000
-50,7,39,1625340509.0,32.000000
-50,7,39,1625340509.0,32.000000
-50,7,39,1625340509.0,32.000000
-49,8,40,1625340509.0,32.000000
-49,8,40,1625340509.0,32.000000
-49,7,41,1625340509.0,32.000000
-49,8,42,1625340509.0,32.000000
-49,8,42,1625340509.0,32.000000
-50,8,43,1625340509.0,32.000000
-49,8,42,1625340509.0,32.000000
-50,8,41,1625340509.0,32.000000
-51,8,40,1625340509.0,32.000000
-51,8,42,1625340509.0,32.000000
-50,9,44,1625340509.0,32.000000
-46,10,46,1625340509.0,32.000000
-44,11,45,1625340509.0,32.000000
-38,11,46,1625340509.0,32.000000
-36,11,45,1625340509.0,32.000000
-33,11,43,1625340509.0,32.000000
-30,12,46,1625340509.0,32.000000
-26,13,49,1625340509.0,32.000000
-23,12,55,1625340509.0,32.000000
-20,17,51,1625340509.0,32.000000
-18,16,51,1625340509.0,32.000000
-30,21,48,1625340509.0,32.000000
-26,21,51,1625340509.0,32.000000
-14,23,53,1625340509.0,32.000000
-15,23,50,1625340509.0,32.000000
-14,25,47,1625340509.0,32.000000
-11,23,50,1625340509.0,32.000000
-9,24,53,1625340509.0,32.000000
-18,23,57,1625340509.0,32.000000
-16,30,73,1625340509.0,32.000000
-5,29,81,1625340509.0,32.000000
2,26,71,1625340509.0,32.000000
-16,22,57,1625340509.0,32.000000
-17,22,57,1625340509.0,32.000000
-19,19,56,1625340509.0,32.000000
-20,19,59,1625340509.0,32.000000
-16,18,58,1625340509.0,32.000000
-15,17,56,1625340509.0,32.000000
-22,19,63,1625340509.0,32.000000
-19,21,63,1625340509.0,32.000000
-22,19,59,1625340509.0,32.000000
-23,19,53,1625340509.0,32.000000
-22,18,54,1625340509.0,32.000000
-21,17,58,1625340509.0,32.000000
-17,17,60,1625340509.0,32.000000
-18,16,59,1625340509.0,32.000000
-22,18,55,1625340509.0,32.000000
-21,18,58,1625340509.0,32.000000
-17,20,59,1625340509.0,32.000000
-20,20,57,1625340509.0,32.000000
-22,18,57,1625340509.0,32.000000
-19,16,58,1625340509.0,32.000000
-16,17,61,1625340509.0,32.000000
-18,17,61,1625340509.0,32.000000
-22,17,57,1625340509.0,32.000000
-17,14,58,1625340509.0,32.000000
-12,12,63,1625340509.0,32.000000
-17,3,62,1625340509.0,32.000000
-15,3,63,1625340509.0,32.000000
-6,2,62,1625340509.0,32.000000
-21,3,59,1625340509.0,32.000000
-21,3,64,1625340509.0,32.000000
-24,3,63,1625340509.0,32.000000
-25,3,63,1625340509.0,32.000000
-24,4,60,1625340509.0,32.000000
-23,1,61,1625340509.0,32.000000
-22,2,64,1625340509.0,32.000000
-17,3,64,1625340509.0,32.000000
-15,7,57,1625340509.0,32.000000
-9,4,52,1625340509.0,32.000000
-28,1,57,1625340509.0,32.000000
-32,1,63,1625340509.0,32.000000
-28,-3,69,1625340509.0,32.000000
-21,-7,63,1625340509.0,32.000000
-22,-7,60,1625340509.0,32.000000
-22,-7,61,1625340509.0,32.000000
-25,-5,61,1625340509.0,32.000000
-29,-3,59,1625340509.0,32.000000
-27,0,61,1625340509.0,32.000000
-26,1,61,1625340509.0,32.000000
-26,3,58,1625340509.0,32.000000
-26,4,57,1625340509.0,32.000000
-25,5,58,1625340509.0,32.000000
-24,7,59,1625340509.0,32.000000
-23,8,59,1625340509.0,32.000000
-18,11,58,1625340509.0,32.000000
-15,12,59,1625340509.0,32.000000
-13,13,59,1625340509.0,32.000000
-13,17,57,1625340509.0,32.000000
-13,18,56,1625340509.0,32.000000
-12,21,54,1625340509.0,32.000000
-12,22,53,1625340509.0,32.000000
-11,23,53,1625340509.0,32.000000
-13,24,57,1625340509.0,32.000000
-13,24,59,1625340509.0,32.000000
-11,26,62,1625340509.0,32.000000
-7,28,64,1625340509.0,32.000000
-5,30,65,1625340509.0,32.000000
2,34,66,1625340509.0,32.000000
3,35,64,1625340509.0,32.000000
3,36,64,1625340509.0,32.000000
8,38,57,1625340509.0,32.000000
10,37,51,1625340509.0,32.000000
-1,37,44,1625340509.0,32.000000
-4,38,40,1625340509.0,32.000000
-1,38,37,1625340509.0,32.000000
-1,39,29,1625340509.0,32.000000
0,39,29,1625340509.0,32.000000
2,43,29,1625340509.0,32.000000
0,48,27,1625340509.0,32.000000
0,53,26,1625340509.0,32.000000
-2,60,25,1625340509.0,32.000000
-3,66,26,1625340509.0,32.000000
-3,62,26,1625340509.0,32.000000
-5,54,26,1625340509.0,32.000000
-4,54,25,1625340509.0,32.000000
-2,53,24,1625340509.0,32.000000
-2,64,28,1625340509.0,32.000000
-6,62,29,1625340509.0,32.000000
-8,59,25,1625340509.0,32.000000
-4,61,23,1625340509.0,32.000000
0,59,23,1625340509.0,32.000000
-1,59,25,1625340509.0,32.000000
-3,59,25,1625340509.0,32.000000
1,58,25,1625340509.0,32.000000
4,58,26,1625340509.0,32.000000
3,58,27,1625340509.0,32.000000
3,58,26,1625340509.0,32.000000
4,58,26,1625340509.0,32.000000
5,57,27,1625340509.0,32.000000
6,57,28,1625340509.0,32.000000
6,57,29,1625340509.0,32.000000
8,56,29,1625340509.0,32.000000
8,56,30,1625340509.0,32.000000
6,55,31,1625340509.0,32.000000
5,55,32,1625340509.0,32.000000
5,55,32,1625340509.0,32.000000
4,55,33,1625340509.0,32.000000
2,55,33,1625340509.0,32.000000
3,55,33,1625340509.0,32.000000
3,54,34,1625340509.0,32.000000
4,54,34,1625340509.0,32.000000
5,54,34,1625340509.0,32.000000
6,54,33,1625340509.0,32.000000
7,54,33,1625340509.0,32.000000
7,55,32,1625340509.0,32.000000
7,55,31,1625340509.0,32.000000
5,55,30,1625340509.0,32.000000
5,56,31,1625340509.0,32.000000
6,56,31,1625340509.0,32.000000
5,56,31,1625340509.0,32.000000
5,56,31,1625340509.0,32.000000
6,56,31,1625340509.0,32.000000
6,56,30,1625340509.0,32.000000
7,56,29,1625340509.0,32.000000
7,56,28,1625340509.0,32.000000
7,57,28,1625340509.0,32.000000
6,58,27,1625340509.0,32.000000
4,57,26,1625340509.0,32.000000
3,58,26,1625340509.0,32.000000
3,56,28,1625340509.0,32.000000
3,56,28,1625340509.0,32.000000
3,56,29,1625340509.0,32.000000
3,56,34,1625340509.0,32.000000
1,55,33,1625340509.0,32.000000
-3,55,31,1625340509.0,32.000000
-1,54,34,1625340509.0,32.000000
-3,54,32,1625340509.0,32.000000
-2,54,34,1625340509.0,32.000000
-5,53,34,1625340509.0,32.000000
-7,54,35,1625340509.0,32.000000
-8,53,33,1625340509.0,32.000000
-2,53,37,1625340509.0,32.000000
-6,53,37,1625340509.0,32.000000
-9,53,36,1625340509.0,32.000000
-8,53,37,1625340509.0,32.000000
-10,52,36,1625340509.0,32.000000
-9,52,36,1625340509.0,32.000000
-13,53,35,1625340509.0,32.000000
-16,54,33,1625340509.0,32.000000
-12,53,28,1625340509.0,32.000000
-20,56,11,1625340509.0,32.000000
-19,56,26,1625340509.0,32.000000
-18,57,29,1625340509.0,32.000000
-11,52,31,1625340509.0,32.000000
-11,50,33,1625340509.0,32.000000
-15,46,49,1625340509.0,32.000000
-10,51,47,1625340509.0,32.000000
-11,52,38,1625340509.0,32.000000
-11,51,32,1625340509.0,32.000000
-12,51,32,1625340509.0,32.000000
-12,51,38,1625340509.0,32.000000
-11,51,37,1625340509.0,32.000000
-11,50,36,1625340509.0,32.000000
-13,51,34,1625340509.0,32.000000
-12,50,36,1625340509.0,32.000000
-12,50,39,1625340509.0,32.000000
-14,50,40,1625340509.0,32.000000
-17,51,40,1625340509.0,32.000000
-19,50,39,1625340509.0,32.000000
-19,51,36,1625340509.0,32.000000
-6,51,40,1625340509.0,32.000000
4,51,35,1625340509.0,32.000000
3,50,33,1625340509.0,32.000000
7,52,38,1625340509.0,32.000000
7,52,36,1625340509.0,32.000000
10,53,35,1625340509.0,32.000000
15,51,32,1625340509.0,32.000000
15,52,31,1625340509.0,32.000000
13,53,34,1625340509.0,32.000000
7,53,37,1625340509.0,32.000000
6,53,37,1625340509.0,32.000000
6,53,35,1625340509.0,32.000000
4,53,33,1625340509.0,32.000000
2,53,32,1625340509.0,32.000000
4,54,34,1625340509.0,32.000000
4,53,34,1625340509.0,32.000000
4,53,34,1625340509.0,32.000000
4,54,36,1625340509.0,32.000000
1,53,35,1625340509.0,32.000000
0,53,33,1625340509.0,32.000000
1,52,35,1625340509.0,32.000000
2,52,35,1625340509.0,32.000000
3,53,35,1625340509.0,32.000000
2,53,35,1625340509.0,32.000000
3,53,36,1625340509.0,32.000000
4,53,36,1625340509.0,32.000000
9,53,37,1625340509.0,32.000000
1,52,37,1625340509.0,32.000000
0,53,38,1625340509.0,32.000000
0,52,37,1625340509.0,32.000000
-1,53,36,1625340509.0,32.000000
1,52,38,1625340509.0,32.000000
2,53,36,1625340509.0,32.000000
6,53,35,1625340509.0,32.000000
5,52,35,1625340509.0,32.000000
2,52,32,1625340509.0,32.000000
6,56,33,1625340509.0,32.000000
9,53,32,1625340509.0,32.000000
6,53,33,1625340509.0,32.000000
0,53,36,1625340509.0,32.000000
7,53,35,1625340509.0,32.000000
6,52,35,1625340509.0,32.000000
3,54,33,1625340509.0,32.000000
5,53,31,1625340509.0,32.000000
4,54,29,1625340509.0,32.000000
8,53,33,1625340509.0,32.000000
7,54,33,1625340509.0,32.000000
6,53,35,1625340509.0,32.000000
8,52,36,1625340509.0,32.000000
9,52,37,1625340509.0,32.000000
9,52,37,1625340509.0,32.000000
10,52,36,1625340509.0,32.000000
9,52,34,1625340509.0,32.000000
11,52,36,1625340509.0,32.000000
9,52,35,1625340509.0,32.000000
11,52,35,1625340509.0,32.000000
12,52,34,1625340509.0,32.000000
12,52,34,1625340509.0,32.000000
11,52,34,1625340509.0,32.000000
12,52,35,1625340509.0,32.000000
12,51,36,1625340509.0,32.000000
12,51,36,1625340509.0,32.000000
12,51,36,1625340509.0,32.000000
15,51,36,1625340509.0,32.000000
14,51,35,1625340509.0,32.000000
9,52,34,1625340509.0,32.000000
7,53,34,1625340509.0,32.000000
7,53,34,1625340509.0,32.000000
11,52,37,1625340509.0,32.000000
10,52,36,1625340509.0,32.000000
8,52,33,1625340509.0,32.000000
12,53,37,1625340509.0,32.000000
8,53,36,1625340509.0,32.000000
13,52,36,1625340509.0,32.000000
5,52,35,1625340509.0,32.000000
4,53,36,1625340509.0,32.000000
8,53,33,1625340509.0,32.000000
9,52,31,1625340509.0,32.000000
10,52,36,1625340509.0,32.000000
7,52,35,1625340509.0,32.000000
10,53,34,1625340509.0,32.000000
8,52,35,1625340509.0,32.000000
8,52,35,1625340509.0,32.000000
8,53,35,1625340509.0,32.000000
8,52,35,1625340509.0,32.000000
4,52,35,1625340509.0,32.000000
4,53,36,1625340509.0,32.000000
5,52,35,1625340509.0,32.000000
5,53,35,1625340509.0,32.000000
1,53,34,1625340509.0,32.000000
3,53,36,1625340509.0,32.000000
4,52,36,1625340509.0,32.000000
3,53,34,1625340509.0,32.000000
4,53,34,1625340509.0,32.000000
4,53,35,1625340509.0,32.000000
6,52,37,1625340509.0,32.000000
5,52,36,1625340509.0,32.000000
4,52,36,1625340509.0,32.000000
4,52,35,1625340509.0,32.000000
5,52,36,1625340509.0,32.000000
5,52,36,1625340509.0,32.000000
4,52,36,1625340509.0,32.000000
5,52,36,1625340509.0,32.000000
6,52,36,1625340509.0,32.000000
5,52,35,1625340509.0,32.000000
1,53,34,1625340509.0,32.000000
-1,53,34,1625340509.0,32.000000
3,53,37,1625340509.0,32.000000
4,52,37,1625340509.0,32.000000
7,52,38,1625340509.0,32.000000
6,52,37,1625340509.0,32.000000
5,52,36,1625340509.0,32.000000
4,53,35,1625340509.0,32.000000
4,53,35,1625340509.0,32.000000
4,53,35,1625340509.0,32.000000
4,53,35,1625340509.0,32.000000
5,53,36,1625340509.0,32.000000
7,53,34,1625340509.0,32.000000
3,53,36,1625340509.0,32.000000
5,53,37,1625340509.0,32.000000
1,53,35,1625340509.0,32.000000
6,53,38,1625340509.0,32.000000
8,52,37,1625340509.0,32.000000
5,53,33,1625340509.0,32.000000
7,53,33,1625340509.0,32.000000
6,52,35,1625340509.0,32.000000
2,53,38,1625340509.0,32.000000
-1,53,35,1625340509.0,32.000000
2,53,37,1625340509.0,32.000000
1,53,37,1625340509.0,32.000000
-5,53,31,1625340509.0,32.000000
-5,55,30,1625340509.0,32.000000
-5,54,32,1625340509.0,32.000000
-7,56,28,1625340509.0,32.000000
-4,55,30,1625340509.0,32.000000
-5,55,30,1625340509.0,32.000000
-5,54,32,1625340509.0,32.000000
-6,54,32,1625340509.0,32.000000
-5,54,34,1625340509.0,32.000000
-4,54,34,1625340509.0,32.000000
-4,53,33,1625340509.0,32.000000
-6,53,34,1625340509.0,32.000000
-7,53,34,1625340509.0,32.000000
-5,54,35,1625340509.0,32.000000
-6,53,31,1625340509.0,32.000000
-6,53,32,1625340509.0,32.000000
-5,53,33,1625340509.0,32.000000
-4,53,33,1625340509.0,32.000000
-7,51,35,1625340509.0,32.000000
-6,50,38,1625340509.0,32.000000
0,48,41,1625340509.0,32.000000
6,49,46,1625340509.0,32.000000
-4,48,40,1625340509.0,32.000000
-4,49,41,1625340509.0,32.000000
-5,48,44,1625340509.0,32.000000
-3,47,44,1625340509.0,32.000000
-4,47,44,1625340509.0,32.000000
0,47,46,1625340509.0,32.000000
0,47,45,1625340509.0,32.000000
0,47,42,1625340509.0,32.000000
2,47,43,1625340509.0,32.000000
0,47,43,1625340509.0,32.000000
1,47,44,1625340509.0,32.000000
1,47,44,1625340509.0,32.000000
2,47,43,1625340509.0,32.000000
1,47,43,1625340509.0,32.000000
0,47,43,1625340509.0,32.000000
1,47,43,1625340509.0,32.000000
1,47,42,1625340509.0,32.000000
1,47,42,1625340509.0,32.000000
2,47,43,1625340509.0,32.000000
1,47,42,1625340509.0,32.000000
1,47,42,1625340509.0,32.000000
2,47,42,1625340509.0,32.000000
1,47,43,1625340509.0,32.000000
2,47,43,1625340509.0,32.000000
3,47,44,1625340509.0,32.000000
3,47,43,1625340509.0,32.000000
3,47,42,1625340509.0,32.000000
4,47,43,1625340509.0,32.000000
4,47,43,1625340509.0,32.000000
4,47,43,1625340509.0,32.000000
3,47,43,1625340509.0,32.000000
4,47,43,1625340509.0,32.000000
5,47,44,1625340509.0,32.000000
4,47,42,1625340509.0,32.000000
3,48,42,1625340509.0,32.000000
2,48,42,1625340509.0,32.000000
0,48,42,1625340509.0,32.000000
1,48,42,1625340509.0,32.000000
2,48,42,1625340509.0,32.000000
4,48,43,1625340509.0,32.000000
2,48,41,1625340509.0,32.000000
2,49,40,1625340509.0,32.000000
2,49,41,1625340509.0,32.000000
3,48,42,1625340509.0,32.000000
4,49,43,1625340509.0,32.000000
4,49,44,1625340509.0,32.000000
2,48,45,1625340509.0,32.000000
3,49,45,1625340509.0,32.000000
2,50,40,1625340509.0,32.000000
2,51,37,1625340509.0,32.000000
2,51,36,1625340509.0,32.000000
-5,52,35,1625340509.0,32.000000
-4,52,35,1625340509.0,32.000000
5,52,38,1625340509.0,32.000000
-4,53,34,1625340509.0,32.000000
-5,53,33,1625340509.0,32.000000
1,52,39,1625340509.0,32.000000
-7,53,34,1625340509.0,32.000000
-10,54,30,1625340509.0,32.000000
-6,55,31,1625340509.0,32.000000
-7,55,31,1625340509.0,32.000000
-8,56,30,1625340509.0,32.000000
-5,56,28,1625340509.0,32.000000
-4,57,29,1625340509.0,32.000000
-5,57,26,1625340509.0,32.000000
-6,57,27,1625340509.0,32.000000
-9,57,24,1625340509.0,32.000000
-12,57,23,1625340509.0,32.000000
-16,57,22,1625340509.0,32.000000
-13,56,26,1625340509.0,32.000000
-10,56,28,1625340509.0,32.000000
-6,56,29,1625340509.0,32.000000
-6,56,30,1625340509.0,32.000000
-7,56,30,1625340509.0,32.000000
-2,56,33,1625340509.0,32.000000
-5,57,25,1625340509.0,32.000000
-5,57,23,1625340509.0,32.000000
-7,57,20,1625340509.0,32.000000
-15,54,22,1625340509.0,32.000000
-3,52,55,1625340509.0,32.000000
-3,52,50,1625340509.0,32.000000
-1,49,38,1625340509.0,32.000000
-8,51,41,1625340509.0,32.000000
-11,53,43,1625340509.0,32.000000
-7,52,40,1625340509.0,32.000000
-6,56,25,1625340509.0,32.000000
-5,58,21,1625340509.0,32.000000
-7,59,8,1625340509.0,32.000000
-8,59,6,1625340509.0,32.000000
-3,58,11,1625340509.0,32.000000
-26,56,-6,1625340509.0,32.000000
-24,29,125,1625340509.0,32.000000
-29,38,59,1625340509.0,32.000000
-1,47,27,1625340509.0,32.000000
-1,51,24,1625340509.0,32.000000
-12,58,28,1625340509.0,32.000000
-13,56,33,1625340509.0,32.000000
-16,56,28,1625340509.0,32.000000
-21,54,27,1625340509.0,32.000000
-20,54,27,1625340509.0,32.000000
-19,56,23,1625340509.0,32.000000
-8,55,26,1625340509.0,32.000000
-8,59,24,1625340509.0,32.000000
-4,60,18,1625340509.0,32.000000
-3,60,18,1625340509.0,32.000000
-11,59,16,1625340509.0,32.000000
-14,57,17,1625340509.0,32.000000
-17,54,24,1625340509.0,32.000000
-6,59,22,1625340509.0,32.000000
-1,55,26,1625340509.0,32.000000
-11,56,20,1625340509.0,32.000000
-14,53,31,1625340509.0,32.000000
-12,52,36,1625340509.0,32.000000
-15,48,42,1625340509.0,32.000000
-21,47,43,1625340509.0,32.000000
-20,46,44,1625340509.0,32.000000
-17,47,52,1625340509.0,32.000000
-13,47,48,1625340509.0,32.000000
-18,48,35,1625340509.0,32.000000
-21,49,38,1625340509.0,32.000000
-15,49,44,1625340509.0,32.000000
-13,48,40,1625340509.0,32.000000
-12,49,39,1625340509.0,32.000000
-16,49,40,1625340509.0,32.000000
-13,47,42,1625340509.0,32.000000
-12,48,41,1625340509.0,32.000000
-16,49,39,1625340509.0,32.000000
-15,50,36,1625340509.0,32.000000
-14,50,38,1625340509.0,32.000000
-18,50,34,1625340509.0,32.000000
-21,50,31,1625340509.0,32.000000
-25,53,18,1625340509.0,32.000000
-14,53,24,1625340509.0,32.000000
-15,53,27,1625340509.0,32.000000
-18,49,35,1625340509.0,32.000000
-17,48,41,1625340509.0,32.000000
-21,47,43,1625340509.0,32.000000
-25,47,43,1625340509.0,32.000000
-24,46,45,1625340509.0,32.000000
-28,43,43,1625340509.0,32.000000
-26,45,35,1625340509.0,32.000000
-26,43,29,1625340509.0,32.000000
-22,45,28,1625340509.0,32.000000
-23,48,31,1625340509.0,32.000000
-29,49,32,1625340509.0,32.000000
-32,49,35,1625340509.0,32.000000
-26,46,34,1625340509.0,32.000000
-30,46,31,1625340509.0,32.000000
-29,46,36,1625340509.0,32.000000
-29,40,44,1625340509.0,32.000000
-27,42,47,1625340509.0,32.000000
-27,43,44,1625340509.0,32.000000
-26,44,36,1625340509.0,32.000000
-25,46,35,1625340509.0,32.000000
-28,47,35,1625340509.0,32.000000
-28,46,36,1625340509.0,32.000000
-26,46,39,1625340509.0,32.000000
-25,44,37,1625340509.0,32.000000
-24,48,42,1625340509.0,32.000000
-24,45,42,1625340509.0,32.000000
-31,39,34,1625340509.0,32.000000
-15,53,38,1625340509.0,32.000000
-18,52,29,1625340509.0,32.000000
-19,52,31,1625340509.0,32.000000
-18,51,32,1625340509.0,32.000000
-18,52,32,1625340509.0,32.000000
-18,51,30,1625340509.0,32.000000
-18,52,29,1625340509.0,32.000000
-13,54,33,1625340509.0,32.000000
-13,54,30,1625340509.0,32.000000
-18,53,29,1625340509.0,32.000000
-17,52,31,1625340509.0,32.000000
-19,53,30,1625340509.0,32.000000
-19,52,30,1625340509.0,32.000000
-19,52,30,1625340509.0,32.000000
-21,53,27,1625340509.0,32.000000
-22,53,28,1625340509.0,32.000000
-21,52,26,1625340509.0,32.000000
-19,54,25,1625340509.0,32.000000
-20,53,34,1625340509.0,32.000000
-20,49,38,1625340509.0,32.000000
-16,48,37,1625340509.0,32.000000
-16,50,38,1625340509.0,32.000000
-23,50,34,1625340509.0,32.000000
-20,50,34,1625340509.0,32.000000
-19,50,35,1625340509.0,32.000000
-21,50,38,1625340509.0,32.000000
-22,49,36,1625340509.0,32.000000
-19,49,33,1625340509.0,32.000000
-19,50,37,1625340509.0,32.000000
-20,49,39,1625340509.0,32.000000
-24,49,34,1625340509.0,32.000000
-23,50,32,1625340509.0,32.000000
-23,51,30,1625340509.0,32.000000
-19,50,34,1625340509.0,32.000000
-18,51,32,1625340509.0,32.000000
-23,51,31,1625340509.0,32.000000
-18,50,34,1625340509.0,32.000000
-20,50,34,1625340509.0,32.000000
-19,49,38,1625340509.0,32.000000
-21,48,36,1625340509.0,32.000000
-19,48,36,1625340509.0,32.000000
-13,50,39,1625340509.0,32.000000
-12,48,44,1625340509.0,32.000000
-16,47,42,1625340509.0,32.000000
-15,47,38,1625340509.0,32.000000
-12,50,36,1625340509.0,32.000000
-10,49,42,1625340509.0,32.000000
-11,48,43,1625340509.0,32.000000
-16,48,36,1625340509.0,32.000000
-17,48,35,1625340509.0,32.000000
-14,47,37,1625340509.0,32.000000
5,49,49,1625340509.0,32.000000
-2,49,48,1625340509.0,32.000000
-15,46,43,1625340509.0,32.000000
-15,49,44,1625340509.0,32.000000
-11,50,45,1625340509.0,32.000000
-9,47,46,1625340509.0,32.000000
-9,48,44,1625340509.0,32.000000
2,48,47,1625340509.0,32.000000
0,48,41,1625340509.0,32.000000
1,47,40,1625340509.0,32.000000
1,48,38,1625340509.0,32.000000
-1,48,38,1625340509.0,32.000000
-2,47,38,1625340509.0,32.000000
-4,48,36,1625340509.0,32.000000
-3,49,36,1625340509.0,32.000000
-3,46,38,1625340509.0,32.000000
-11,44,37,1625340509.0,32.000000
-8,43,38,1625340509.0,32.000000
-11,39,38,1625340509.0,32.000000
-15,39,37,1625340509.0,32.000000
-15,38,36,1625340509.0,32.000000
-22,34,37,1625340509.0,32.000000
-26,33,38,1625340509.0,32.000000
-26,32,43,1625340509.0,32.000000
-28,34,43,1625340509.0,32.000000
-36,30,46,1625340509.0,32.000000
-36,28,49,1625340509.0,32.000000
-38,27,49,1625340509.0,32.000000
-42,24,51,1625340509.0,32.000000
-40,20,54,1625340509.0,32.000000
-40,19,53,1625340509.0,32.000000
-40,19,55,1625340509.0,32.000000
-39,18,58,1625340509.0,32.000000
-35,14,61,1625340509.0,32.000000
-36,13,59,1625340509.0,32.000000
-33,13,57,1625340509.0,32.000000
-30,12,57,1625340509.0,32.000000
-29,13,56,1625340509.0,32.000000
-25,15,54,1625340509.0,32.000000
-28,15,55,1625340509.0,32.000000
-30,15,55,1625340509.0,32.000000
-32,15,55,1625340509.0,32.000000
-33,16,53,1625340509.0,32.000000
-37,16,50,1625340509.0,32.000000
-40,16,48,1625340509.0,32.000000
-38,17,49,1625340509.0,32.000000
-36,16,48,1625340509.0,32.000000
-38,16,48,1625340509.0,32.000000
-36,17,49,1625340509.0,32.000000
-36,16,49,1625340509.0,32.000000
-36,17,48,1625340509.0,32.000000
-37,17,47,1625340509.0,32.000000
-36,16,50,1625340509.0,32.000000
-36,16,51,1625340509.0,32.000000
-36,16,49,1625340509.0,32.000000
-37,15,49,1625340509.0,32.000000
-36,15,51,1625340509.0,32.000000
-36,14,51,1625340509.0,32.000000
-36,14,50,1625340509.0,32.000000
-36,15,50,1625340509.0,32.000000
-35,15,50,1625340509.0,32.000000
-35,15,51,1625340509.0,32.000000
-35,15,50,1625340509.0,32.000000
-36,15,50,1625340509.0,32.000000
-36,15,50,1625340509.0,32.000000
-36,15,50,1625340509.0,32.000000
-36,15,50,1625340509.0,32.000000
-35,15,50,1625340509.0,32.000000
-35,15,51,1625340509.0,32.000000
-35,15,50,1625340509.0,32.000000
-35,15,50,1625340509.0,32.000000
-35,15,51,1625340509.0,32.000000
-35,15,50,1625340509.0,32.000000
-35,15,50,1625340509.0,32.000000
-35,15,50,1625340509.0,32.000000
-36,15,50,1625340509.0,32.000000
-36,16,50,1625340509.0,32.000000
-35,16,50,1625340509.0,32.000000
-35,16,50,1625340509.0,32.000000
-35,16,50,1625340509.0,32.000000
-35,16,50,1625340509.0,32.000000
-35,16,50,1625340509.0,32.000000
-35,16,50,1625340509.0,32.000000
-35,16,51,1625340509.0,32.000000
-35,16,51,1625340509.0,32.000000
-35,15,51,1625340509.0,32.000000
-35,15,51,1625340509.0,32.000000
-36,16,50,1625340509.0,32.000000
-37,16,49,1625340509.0,32.000000
-37,16,52,1625340509.0,32.000000
-35,19,53,1625340509.0,32.000000
-41,19,61,1625340509.0,32.000000
-61,18,58,1625340509.0,32.000000
-67,21,58,1625340509.0,32.000000
-61,24,54,1625340509.0,32.000000
-46,30,46,1625340509.0,32.000000
-37,35,38,1625340509.0,32.000000
-25,36,37,1625340509.0,32.000000
-8,37,34,1625340509.0,32.000000
-2,32,31,1625340509.0,32.000000
4,30,36,1625340509.0,32.000000
13,27,39,1625340509.0,32.000000
15,27,38,1625340509.0,32.000000
20,25,50,1625340509.0,32.000000
28,23,62,1625340509.0,32.000000
27,20,57,1625340509.0,32.000000
10,15,68,1625340509.0,32.000000
18,30,83,1625340509.0,32.000000
13,29,77,1625340509.0,32.000000
2,32,56,1625340509.0,32.000000
2,34,46,1625340509.0,32.000000
-1,41,36,1625340509.0,32.000000
-3,42,28,1625340509.0,32.000000
-10,47,28,1625340509.0,32.000000
-1,52,26,1625340509.0,32.000000
0,54,20,1625340509.0,32.000000
-9,52,28,1625340509.0,32.000000
-5,51,42,1625340509.0,32.000000
1,47,47,1625340509.0,32.000000
4,41,51,1625340509.0,32.000000
5,39,55,1625340509.0,32.000000
3,37,58,1625340509.0,32.000000
-8,37,55,1625340509.0,32.000000
-12,37,53,1625340509.0,32.000000
-9,38,54,1625340509.0,32.000000
-5,39,54,1625340509.0,32.000000
0,39,54,1625340509.0,32.000000
-2,39,52,1625340509.0,32.000000
-1,40,51,1625340509.0,32.000000
-2,40,49,1625340509.0,32.000000
-1,41,48,1625340509.0,32.000000
-1,41,49,1625340509.0,32.000000
0,41,49,1625340509.0,32.000000
0,41,48,1625340509.0,32.000000
-2,41,49,1625340509.0,32.000000
-1,41,49,1625340509.0,32.000000
-1,41,49,1625340509.0,32.000000
0,42,48,1625340509.0,32.000000
0,42,47,1625340509.0,32.000000
-1,43,47,1625340509.0,32.000000
-2,44,46,1625340509.0,32.000000
-1,44,46,1625340509.0,32.000000
0,45,44,1625340509.0,32.000000
-2,45,43,1625340509.0,32.000000
-2,46,43,1625340509.0,32.000000
0,46,43,1625340509.0,32.000000
1,46,43,1625340509.0,32.000000
0,46,42,1625340509.0,32.000000
0,47,42,1625340509.0,32.000000
0,47,42,1625340509.0,32.000000
0,47,41,1625340509.0,32.000000
1,47,42,1625340509.0,32.000000
0,47,42,1625340509.0,32.000000
-4,47,42,1625340509.0,32.000000
-3,47,43,1625340509.0,32.000000
1,47,44,1625340509.0,32.000000
2,47,44,1625340509.0,32.000000
2,47,44,1625340509.0,32.000000
2,48,41,1625340509.0,32.000000
1,49,39,1625340509.0,32.000000
-4,49,34,1625340509.0,32.000000
-5,50,35,1625340509.0,32.000000
-4,49,37,1625340509.0,32.000000
-5,47,39,1625340509.0,32.000000
-8,47,39,1625340509.0,32.000000
-8,46,42,1625340509.0,32.000000
-6,44,47,1625340509.0,32.000000
-5,43,47,1625340509.0,32.000000
0,42,52,1625340509.0,32.000000
0,41,52,1625340509.0,32.000000
0,41,51,1625340509.0,32.000000
-1,42,50,1625340509.0,32.000000
-2,42,50,1625340509.0,32.000000
-1,42,49,1625340509.0,32.000000
-1,39,50,1625340509.0,32.000000
-1,43,48,1625340509.0,32.000000
-2,41,48,1625340509.0,32.000000
-3,42,48,1625340509.0,32.000000
-3,42,48,1625340509.0,32.000000
-2,42,48,1625340509.0,32.000000
-2,42,48,1625340509.0,32.000000
-2,42,47,1625340509.0,32.000000
-2,43,47,1625340509.0,32.000000
-2,42,47,1625340509.0,32.000000
-2,42,47,1625340509.0,32.000000
-1,42,47,1625340509.0,32.000000
-2,42,47,1625340509.0,32.000000
-2,42,48,1625340509.0,32.000000
-2,42,48,1625340509.0,32.000000
-2,42,48,1625340509.0,32.000000
-2,42,48,1625340509.0,32.000000
-2,42,48,1625340509.0,32.000000
-2,42,47,1625340509.0,32.000000
-3,42,48,1625340509.0,32.000000
-2,42,47,1625340509.0,32.000000
-2,42,47,1625340509.0,32.000000
-2,42,48,1625340509.0,32.000000
-1,42,47,1625340509.0,32.000000
-1,42,47,1625340509.0,32.000000
-2,43,47,1625340509.0,32.000000
-3,43,48,1625340509.0,32.000000
1,43,50,1625340509.0,32.000000
0,41,50,1625340509.0,32.000000
4,41,51,1625340509.0,32.000000
2,42,50,1625340509.0,32.000000
-8,43,47,1625340509.0,32.000000
-8,43,46,1625340509.0,32.000000
-5,45,47,1625340509.0,32.000000
-5,46,46,1625340509.0,32.000000
-3,46,45,1625340509.0,32.000000
-3,46,43,1625340509.0,32.000000
-5,47,41,1625340509.0,32.000000
-7,48,39,1625340509.0,32.000000
-7,49,38,1625340509.0,32.000000
-4,50,37,1625340509.0,32.000000
-5,50,37,1625340509.0,32.000000
-7,50,37,1625340509.0,32.000000
-8,50,34,1625340509.0,32.000000
-9,50,35,1625340509.0,32.000000
-8,49,39,1625340509.0,32.000000
-11,48,38,1625340509.0,32.000000
-9,49,40,1625340509.0,32.000000
-11,46,47,1625340509.0,32.000000
-13,44,43,1625340509.0,32.000000
-14,43,43,1625340509.0,32.000000
-6,45,48,1625340509.0,32.000000
-6,46,45,1625340509.0,32.000000
-6,46,45,1625340509.0,32.000000
-10,48,41,1625340509.0,32.000000
-12,46,40,1625340509.0,32.000000
-11,48,40,1625340509.0,32.000000
-7,46,42,1625340509.0,32.000000
-5,46,42,1625340509.0,32.000000
-3,45,45,1625340509.0,32.000000
-4,45,45,1625340509.0,32.000000
-5,44,45,1625340509.0,32.000000
-5,45,46,1625340509.0,32.000000
-3,44,46,1625340509.0,32.000000
-3,45,44,1625340509.0,32.000000
-4,44,45,1625340509.0,32.000000
-5,44,45,1625340509.0,32.000000
-2,41,53,1625340509.0,32.000000
-2,41,53,1625340509.0,32.000000
-3,42,47,1625340509.0,32.000000
0,43,46,1625340509.0,32.000000
-4,44,43,1625340509.0,32.000000
-5,44,46,1625340509.0,32.000000
-6,43,46,1625340509.0,32.000000
-8,42,47,1625340509.0,32.000000
-12,40,52,1625340509.0,32.000000
-13,38,57,1625340509.0,32.000000
-3,32,62,1625340509.0,32.000000
2,28,61,1625340509.0,32.000000
-1,28,57,1625340509.0,32.000000
-7,29,54,1625340509.0,32.000000
-9,28,51,1625340509.0,32.000000
-13,29,45,1625340509.0,32.000000
-10,29,40,1625340509.0,32.000000
-9,28,42,1625340509.0,32.000000
-13,28,47,1625340509.0,32.000000
-21,29,45,1625340509.0,32.000000
-18,35,45,1625340509.0,32.000000
-12,39,51,1625340509.0,32.000000
-11,39,47,1625340509.0,32.000000
-17,39,51,1625340509.0,32.000000
-21,40,52,1625340509.0,32.000000
-25,43,51,1625340509.0,32.000000
-32,41,58,1625340509.0,32.000000
-35,40,61,1625340509.0,32.000000
-33,38,52,1625340509.0,32.000000
-31,33,39,1625340509.0,32.000000
-33,31,36,1625340509.0,32.000000
-32,29,36,1625340509.0,32.000000
-36,27,39,1625340509.0,32.000000
-40,24,54,1625340509.0,32.000000
-39,24,52,1625340509.0,32.000000
-38,25,49,1625340509.0,32.000000
-38,25,48,1625340509.0,32.000000
-37,26,46,1625340509.0,32.000000
-38,23,44,1625340509.0,32.000000
-37,21,47,1625340509.0,32.000000
-38,21,47,1625340509.0,32.000000
-36,22,51,1625340509.0,32.000000
-28,22,56,1625340509.0,32.000000
-28,24,54,1625340509.0,32.000000
-34,27,42,1625340509.0,32.000000
-32,21,58,1625340509.0,32.000000
-33,28,59,1625340509.0,32.000000
-14,23,67,1625340509.0,32.000000
-19,20,60,1625340509.0,32.000000
-20,26,36,1625340509.0,32.000000
-17,30,33,1625340509.0,32.000000
-17,38,39,1625340509.0,32.000000
-18,42,47,1625340509.0,32.000000
-19,42,53,1625340509.0,32.000000
-20,41,52,1625340509.0,32.000000
-16,38,49,1625340509.0,32.000000
-20,28,51,1625340509.0,32.000000
-11,36,38,1625340509.0,32.000000
-21,33,21,1625340509.0,32.000000
-28,31,21,1625340509.0,32.000000
-37,20,48,1625340509.0,32.000000
-40,21,67,1625340509.0,32.000000
-38,27,59,1625340509.0,32.000000
-39,24,53,1625340509.0,32.000000
-40,20,48,1625340509.0,32.000000
-46,20,48,1625340509.0,32.000000
-48,17,48,1625340509.0,32.000000
-43,18,47,1625340509.0,32.000000
-40,18,47,1625340509.0,32.000000
-36,18,49,1625340509.0,32.000000
-34,19,47,1625340509.0,32.000000
-34,20,47,1625340509.0,32.000000
-35,21,46,1625340509.0,32.000000
-38,23,45,1625340509.0,32.000000
-39,24,44,1625340509.0,32.000000
-42,23,43,1625340509.0,32.000000
-44,22,43,1625340509.0,32.000000
-43,20,44,1625340509.0,32.000000
-42,19,43,1625340509.0,32.000000
-42,18,43,1625340509.0,32.000000
-42,17,43,1625340509.0,32.000000
-42,17,44,1625340509.0,32.000000
-41,18,45,1625340509.0,32.000000
-41,19,45,1625340509.0,32.000000
-41,19,45,1625340509.0,32.000000
-41,19,45,1625340509.0,32.000000
-41,18,45,1625340509.0,32.000000
-41,18,46,1625340509.0,32.000000
-41,18,45,1625340509.0,32.000000
-41,18,45,1625340509.0,32.000000
-40,18,45,1625340509.0,32.000000
-39,19,45,1625340509.0,32.000000
-38,20,45,1625340509.0,32.000000
-39,20,46,1625340509.0,32.000000
-39,20,46,1625340509.0,32.000000
-39,19,46,1625340509.0,32.000000
-40,18,46,1625340509.0,32.000000
-40,17,47,1625340509.0,32.000000
-40,16,47,1625340509.0,32.000000
-40,16,48,1625340509.0,32.000000
-39,17,47,1625340509.0,32.000000
-39,18,48,1625340509.0,32.000000
-40,18,48,1625340509.0,32.000000
-40,18,48,1625340509.0,32.000000
-39,18,47,1625340509.0,32.000000
-38,19,46,1625340509.0,32.000000
-37,21,44,1625340509.0,32.000000
-37,23,43,1625340509.0,32.000000
-37,25,44,1625340509.0,32.000000
-38,25,44,1625340509.0,32.000000
-38,24,44,1625340509.0,32.000000
-38,21,44,1625340509.0,32.000000
-39,19,45,1625340509.0,32.000000
-40,19,46,1625340509.0,32.000000
-40,20,47,1625340509.0,32.000000
-40,20,47,1625340509.0,32.000000
-39,21,47,1625340509.0,32.000000
-37,21,47,1625340509.0,32.000000
-36,21,46,1625340509.0,32.000000
-37,22,46,1625340509.0,32.000000
-37,22,45,1625340509.0,32.000000
-39,23,44,1625340509.0,32.000000
-39,22,45,1625340509.0,32.000000
-39,21,45,1625340509.0,32.000000
-38,21,45,1625340509.0,32.000000
-38,21,46,1625340509.0,32.000000
-39,20,46,1625340509.0,32.000000
-42,21,44,1625340509.0,32.000000
-41,21,44,1625340509.0,32.000000
-40,22,44,1625340509.0,32.000000
-35,13,59,1625340509.0,32.000000
-34,20,53,1625340509.0,32.000000
-36,21,40,1625340509.0,32.000000
-39,20,44,1625340509.0,32.000000
-36,23,44,1625340509.0,32.000000
-38,24,45,1625340509.0,32.000000
-37,24,44,1625340509.0,32.000000
-40,22,41,1625340509.0,32.000000
-41,19,42,1625340509.0,32.000000
-35,20,50,1625340509.0,32.000000
-43,19,45,1625340509.0,32.000000
-42,19,46,1625340509.0,32.000000
-37,18,50,1625340509.0,32.000000
-37,17,49,1625340509.0,32.000000
-37,18,48,1625340509.0,32.000000
-36,19,47,1625340509.0,32.000000
-36,20,47,1625340509.0,32.000000
-37,21,46,1625340509.0,32.000000
-38,20,46,1625340509.0,32.000000
-38,20,45,1625340509.0,32.000000
-39,20,45,1625340509.0,32.000000
-39,19,46,1625340509.0,32.000000
-38,19,47,1625340509.0,32.000000
-38,18,47,1625340509.0,32.000000
-38,18,47,1625340509.0,32.000000
-38,17,48,1625340509.0,32.000000
-37,17,48,1625340509.0,32.000000
-38,17,48,1625340509.0,32.000000
-38,18,48,1625340509.0,32.000000
-38,18,47,1625340509.0,32.000000
-38,17,47,1625340509.0,32.000000
-38,17,47,1625340509.0,32.000000
-38,18,47,1625340509.0,32.000000
-38,18,47,1625340509.0,32.000000
-38,18,47,1625340509.0,32.000000
-38,17,48,1625340509.0,32.000000
-38,18,47,1625340509.0,32.000000
-38,17,48,1625340509.0,32.000000
-38,18,47,1625340509.0,32.000000
-38,17,47,1625340509.0,32.000000
-38,17,47,1625340509.0,32.000000
-38,17,47,1625340509.0,32.000000
-38,17,47,1625340509.0,32.000000
-38,17,47,1625340509.0,32.000000
-38,17,47,1625340509.0,32.000000
-38,17,48,1625340509.0,32.000000
-38,17,48,1625340509.0,32.000000
-38,17,48,1625340509.0,32.000000
-38,17,47,1625340509.0,32.000000
-38,16,47,1625340509.0,32.000000
-38,16,48,1625340509.0,32.000000
-38,16,48,1625340509.0,32.000000
-38,16,48,1625340509.0,32.000000
-38,16,48,1625340509.0,32.000000
-38,16,48,1625340509.0,32.000000
-38,16,48,1625340509.0,32.000000
-38,16,48,1625340509.0,32.000000
-38,16,48,1625340509.0,32.000000
-37,16,48,1625340509.0,32.000000
-38,16,47,1625340509.0,32.000000
-38,16,48,1625340509.0,32.000000
-38,16,48,1625340509.0,32.000000
-38,16,47,1625340509.0,32.000000
-38,16,47,1625340509.0,32.000000
-38,16,48,1625340509.0,32.000000
-38,16,48,1625340509.0,32.000000
-38,16,48,1625340509.0,32.000000
-38,16,48,1625340509.0,32.000000
-38,16,48,1625340509.0,32.000000
-38,17,48,1625340509.0,32.000000
-38,16,48,1625340509.0,32.000000
-38,16,48,1625340509.0,32.000000
-38,16,48,1625340509.0,32.000000
-38,16,48,1625340509.0,32.000000
-38,17,48,1625340509.0,32.000000
-38,18,47,1625340509.0,32.000000
-38,18,47,1625340509.0,32.000000
-37,18,47,1625340509.0,32.000000
-37,18,47,1625340509.0,32.000000
-37,18,48,1625340509.0,32.000000
-37,18,48,1625340509.0,32.000000
-37,17,48,1625340509.0,32.000000
-37,17,48,1625340509.0,32.000000
-37,17,48,1625340509.0,32.000000
-37,17,49,1625340509.0,32.000000
-37,17,48,1625340509.0,32.000000
-37,17,48,1625340509.0,32.000000
-37,17,48,1625340509.0,32.000000
-37,17,48,1625340509.0,32.000000
-37,17,48,1625340509.0,32.000000
-37,17,48,1625340509.0,32.000000
-37,17,48,1625340509.0,32.000000
-37,18,48,1625340509.0,32.000000
-37,18,49,1625340509.0,32.000000
-37,18,48,1625340509.0,32.000000
-37,17,48,1625340509.0,32.000000
-37,17,48,1625340509.0,32.000000
-37,17,48,1625340509.0,32.000000
-37,18,48,1625340509.0,32.000000
-37,18,49,1625340509.0,32.000000
-36,18,48,1625340509.0,32.000000
-36,18,48,1625340509.0,32.000000
-37,18,48,1625340509.0,32.000000
-37,18,48,1625340509.0,32.000000
-37,18,48,1625340509.0,32.000000
-37,18,48,1625340509.0,32.000000
-37,18,48,1625340509.0,32.000000
-36,18,49,1625340509.0,32.000000
-37,18,49,1625340509.0,32.000000
-37,18,48,1625340509.0,32.000000
-37,18,49,1625340509.0,32.000000
-37,18,48,1625340509.0,32.000000
-36,18,48,1625340509.0,32.000000
-37,18,48,1625340509.0,32.000000
-37,18,48,1625340509.0,32.000000
-37,18,48,1625340509.0,32.000000
-37,18,49,1625340509.0,32.000000
-36,18,48,1625340509.0,32.000000
-37,17,48,1625340509.0,32.000000
-37,18,48,1625340509.0,32.000000
-37,18,48,1625340509.0,32.000000
-36,18,48,1625340509.0,32.000000
-36,18,48,1625340509.0,32.000000
-36,18,48,1625340509.0,32.000000
-37,18,48,1625340509.0,32.000000
-37,17,48,1625340509.0,32.000000
-37,17,48,1625340509.0,32.000000
-37,18,48,1625340509.0,32.000000
-36,17,49,1625340509.0,32.000000
-37,18,49,1625340509.0,32.000000
-36,18,49,1625340509.0,32.000000
-37,18,48,1625340509.0,32.000000
-37,18,48,1625340509.0,32.000000
-37,18,49,1625340509.0,32.000000
-36,18,49,1625340509.0,32.000000
-37,18,48,1625340509.0,32.000000
-37,17,48,1625340509.0,32.000000
-37,17,48,1625340509.0,32.000000
-37,18,49,1625340509.0,32.000000
-37,18,49,1625340509.0,32.000000
-37,18,48,1625340509.0,32.000000
-37,18,49,1625340509.0,32.000000
-36,18,49,1625340509.0,32.000000
-37,17,48,1625340509.0,32.000000
-37,17,48,1625340509.0,32.000000
-37,18,49,1625340509.0,32.000000
-37,17,49,1625340509.0,32.000000
-37,18,48,1625340509.0,32.000000
-37,18,48,1625340509.0,32.000000
-36,17,49,1625340509.0,32.000000
-37,18,49,1625340509.0,32.000000
-36,18,49,1625340509.0,32.000000
-36,18,48,1625340509.0,32.000000
-37,18,48,1625340509.0,32.000000
-37,18,49,1625340509.0,32.000000
-37,18,48,1625340509.0,32.000000
-37,18,49,1625340509.0,32.000000
-37,18,48,1625340509.0,32.000000
-37,18,48,1625340509.0,32.000000
-36,18,49,1625340509.0,32.000000
-36,18,48,1625340509.0,32.000000
-36,18,49,1625340509.0,32.000000
-36,18,49,1625340509.0,32.000000
-36,18,48,1625340509.0,32.000000
-36,18,49,1625340509.0,32.000000
-36,18,48,1625340509.0,32.000000
-37,18,49,1625340509.0,32.000000
-37,18,49,1625340509.0,32.000000
-36,18,48,1625340509.0,32.000000
-36,18,48,1625340509.0,32.000000
-36,18,49,1625340509.0,32.000000
-37,17,48,1625340509.0,32.000000
-37,18,49,1625340509.0,32.000000
-37,18,48,1625340509.0,32.000000
-37,18,48,1625340509.0,32.000000
-36,18,49,1625340509.0,32.000000
-36,17,49,1625340509.0,32.000000
-36,17,48,1625340509.0,32.000000
-36,17,49,1625340509.0,32.000000
-37,17,49,1625340509.0,32.000000
-37,17,48,1625340509.0,32.000000
-37,17,49,1625340509.0,32.000000
-37,17,49,1625340509.0,32.000000
-37,17,48,1625340509.0,32.000000
-37,17,48,1625340509.0,32.000000
-36,17,48,1625340509.0,32.000000
-36,17,48,1625340509.0,32.000000
-37,18,49,1625340509.0,32.000000
-36,17,49,1625340509.0,32.000000
-36,17,48,1625340509.0,32.000000
-36,18,48,1625340509.0,32.000000
-37,18,49,1625340509.0,32.000000
-37,18,49,1625340509.0,32.000000
-37,17,48,1625340509.0,32.000000
-36,17,49,1625340509.0,32.000000
-37,17,49,1625340509.0,32.000000
-36,18,49,1625340509.0,32.000000
-36,18,48,1625340509.0,32.000000
-36,18,49,1625340509.0,32.000000
-36,18,48,1625340509.0,32.000000
-36,18,48,1625340509.0,32.000000
-37,18,49,1625340509.0,32.000000
-37,18,49,1625340509.0,32.000000
-36,18,49,1625340509.0,32.000000
-36,18,49,1625340509.0,32.000000
-36,18,49,1625340509.0,32.000000
-36,18,48,1625340509.0,32.000000
-36,18,49,1625340509.0,32.000000
-36,18,48,1625340509.0,32.000000
-36,18,48,1625340509.0,32.000000
-36,18,49,1625340509.0,32.000000
-36,18,48,1625340509.0,32.000000
-36,18,48,1625340509.0,32.000000
-36,18,49,1625340509.0,32.000000
-36,18,49,1625340509.0,32.000000
-36,18,49,1625340509.0,32.000000
-36,18,49,1625340509.0,32.000000
-36,18,49,1625340509.0,32.000000
-36,18,48,1625340509.0,32.000000
-36,18,48,1625340509.0,32.000000
-36,18,49,1625340509.0,32.000000
-36,18,49,1625340509.0,32.000000
-36,18,48,1625340509.0,32.000000
-36,18,48,1625340509.0,32.000000
-36,18,49,1625340509.0,32.000000
-36,18,48,1625340509.0,32.000000
-36,18,48,1625340509.0,32.000000
-36,18,49,1625340509.0,32.000000
-36,18,49,1625340509.0,32.000000
-36,18,49,1625340509.0,32.000000
-36,18,49,1625340509.0,32.000000
-36,18,48,1625340509.0,32.000000
-36,18,48,1625340509.0,32.000000
-36,18,48,1625340509.0,32.000000
-36,18,49,1625340509.0,32.000000
-36,18,49,1625340509.0,32.000000
-36,18,49,1625340509.0,32.000000
-36,18,49,1625340509.0,32.000000
-36,18,48,1625340509.0,32.000000
-36,18,48,1625340509.0,32.000000
-36,18,49,1625340509.0,32.000000
-36,18,49,1625340509.0,32.000000
-36,18,49,1625340509.0,32.000000
-36,18,48,1625340509.0,32.000000
-36,18,49,1625340509.0,32.000000
-36,18,49,1625340509.0,32.000000
-36,18,48,1625340509.0,32.000000
-36,18,48,1625340509.0,32.000000
-36,18,49,1625340509.0,32.000000
-36,18,48,1625340509.0,32.000000
-36,18,49,1625340509.0,32.000000
-36,18,49,1625340509.0,32.000000
-36,18,49,1625340509.0,32.000000
-36,18,49,1625340509.0,32.000000
-36,18,48,1625340509.0,32.000000
-36,18,49,1625340509.0,32.000000
-36,19,48,1625340509.0,32.000000
-36,19,49,1625340509.0,32.000000
-36,19,49,1625340509.0,32.000000
-36,19,49,1625340509.0,32.000000
-36,18,49,1625340509.0,32.000000
-36,18,49,1625340509.0,32.000000
-36,18,49,1625340509.0,32.000000
-36,18,49,1625340509.0,32.000000
-36,18,48,1625340509.0,32.000000
-36,18,48,1625340509.0,32.000000
-36,18,49,1625340509.0,32.000000
-36,18,48,1625340509.0,32.000000
-36,18,49,1625340509.0,32.000000
-36,19,48,1625340509.0,32.000000
-36,18,48,1625340509.0,32.000000
-36,18,49,1625340509.0,32.000000
-36,18,49,1625340509.0,32.000000
-36,18,49,1625340509.0,32.000000
-36,19,48,1625340509.0,32.000000
-36,18,48,1625340509.0,32.000000
-36,19,48,1625340509.0,32.000000
-36,19,48,1625340509.0,32.000000
-36,19,48,1625340509.0,32.000000
-36,19,48,1625340509.0,32.000000
-36,18,48,1625340509.0,32.000000
-36,18,48,1625340509.0,32.000000
-36,18,49,1625340509.0,32.000000
-36,17,49,1625340509.0,32.000000
-36,16,49,1625340509.0,32.000000
-36,16,50,1625340509.0,32.000000
-35,16,49,1625340509.0,32.000000
-36,16,50,1625340509.0,32.000000
-36,16,48,1625340509.0,32.000000
-36,15,51,1625340509.0,32.000000
-36,13,51,1625340509.0,32.000000
-37,12,50,1625340509.0,32.000000
-37,12,51,1625340509.0,32.000000
-39,13,49,1625340509.0,32.000000
-37,12,50,1625340509.0,32.000000
-36,13,51,1625340509.0,32.000000
-36,13,50,1625340509.0,32.000000
-37,13,49,1625340509.0,32.000000
-36,13,50,1625340509.0,32.000000
-36,12,52,1625340509.0,32.000000
-33,11,53,1625340509.0,32.000000
-32,11,52,1625340509.0,32.000000
-31,12,54,1625340509.0,32.000000
-29,11,55,1625340509.0,32.000000
-28,11,56,1625340509.0,32.000000
-26,12,55,1625340509.0,32.000000
-26,11,56,1625340509.0,32.000000
-25,11,57,1625340509.0,32.000000
-25,9,57,1625340509.0,32.000000
-26,9,58,1625340509.0,32.000000
-25,9,58,1625340509.0,32.000000
-24,8,58,1625340509.0,32.000000
-24,8,59,1625340509.0,32.000000
-22,9,58,1625340509.0,32.000000
-23,8,59,1625340509.0,32.000000
-23,8,58,1625340509.0,32.000000
-23,8,58,1625340509.0,32.000000
-24,9,58,1625340509.0,32.000000
-24,9,58,1625340509.0,32.000000
-25,9,58,1625340509.0,32.000000
-25,8,58,1625340509.0,32.000000
-24,8,58,1625340509.0,32.000000
-24,8,58,1625340509.0,32.000000
-24,9,58,1625340509.0,32.000000
-25,9,57,1625340509.0,32.000000
-24,9,58,1625340509.0,32.000000
-25,9,58,1625340509.0,32.000000
-25,9,57,1625340509.0,32.000000
-25,9,58,1625340509.0,32.000000
-25,8,58,1625340509.0,32.000000
-25,8,57,1625340509.0,32.000000
-24,8,57,1625340509.0,32.000000
-24,9,57,1625340509.0,32.000000
-25,8,57,1625340509.0,32.000000
-28,9,59,1625340509.0,32.000000
-29,8,63,1625340509.0,32.000000
-30,9,58,1625340509.0,32.000000
-17,9,61,1625340509.0,32.000000
-14,9,58,1625340509.0,32.000000
-2,11,58,1625340509.0,32.000000
3,9,58,1625340509.0,32.000000
-19,-4,69,1625340509.0,32.000000
-74,4,103,1625340509.0,32.000000
-61,16,105,1625340509.0,32.000000
-41,26,60,1625340509.0,32.000000
-32,28,44,1625340509.0,32.000000
-16,37,27,1625340509.0,32.000000
0,37,23,1625340509.0,32.000000
5,37,24,1625340509.0,32.000000
10,39,24,1625340509.0,32.000000
7,38,30,1625340509.0,32.000000
9,37,36,1625340509.0,32.000000
8,37,38,1625340509.0,32.000000
5,37,38,1625340509.0,32.000000
9,36,46,1625340509.0,32.000000
12,36,49,1625340509.0,32.000000
14,36,49,1625340509.0,32.000000
19,36,54,1625340509.0,32.000000
19,36,54,1625340509.0,32.000000
17,37,51,1625340509.0,32.000000
15,37,49,1625340509.0,32.000000
15,37,49,1625340509.0,32.000000
14,38,48,1625340509.0,32.000000
15,38,48,1625340509.0,32.000000
18,39,49,1625340509.0,32.000000
19,40,47,1625340509.0,32.000000
19,39,47,1625340509.0,32.000000
18,40,46,1625340509.0,32.000000
18,40,44,1625340509.0,32.000000
19,41,44,1625340509.0,32.000000
18,40,43,1625340509.0,32.000000
18,40,42,1625340509.0,32.000000
16,39,41,1625340509.0,32.000000
14,39,40,1625340509.0,32.000000
12,38,41,1625340509.0,32.000000
8,39,39,1625340509.0,32.000000
4,39,38,1625340509.0,32.000000
1,38,39,1625340509.0,32.000000
-5,34,44,1625340509.0,32.000000
-8,32,46,1625340509.0,32.000000
-12,25,51,1625340509.0,32.000000
-13,20,54,1625340509.0,32.000000
-18,16,53,1625340509.0,32.000000
-31,10,67,1625340509.0,32.000000
-31,9,69,1625340509.0,32.000000
-35,9,66,1625340509.0,32.000000
-33,9,67,1625340509.0,32.000000
-35,9,69,1625340509.0,32.000000
-44,10,66,1625340509.0,32.000000
-41,11,57,1625340509.0,32.000000
-36,12,55,1625340509.0,32.000000
-35,13,53,1625340509.0,32.000000
-35,12,52,1625340509.0,32.000000
-32,12,51,1625340509.0,32.000000
-30,12,50,1625340509.0,32.000000
-28,13,51,1625340509.0,32.000000
-24,13,51,1625340509.0,32.000000
-24,14,52,1625340509.0,32.000000
-23,13,52,1625340509.0,32.000000
-16,12,55,1625340509.0,32.000000
-17,10,56,1625340509.0,32.000000
-15,10,58,1625340509.0,32.000000
-12,9,62,1625340509.0,32.000000
-16,8,65,1625340509.0,32.000000
-17,8,60,1625340509.0,32.000000
-17,8,58,1625340509.0,32.000000
-8,6,61,1625340509.0,32.000000
2,9,56,1625340509.0,32.000000
-3,11,53,1625340509.0,32.000000
-14,19,52,1625340509.0,32.000000
-15,24,53,1625340509.0,32.000000
-26,27,56,1625340509.0,32.000000
-31,29,56,1625340509.0,32.000000
-33,30,54,1625340509.0,32.000000
-29,29,58,1625340509.0,32.000000
-20,22,60,1625340509.0,32.000000
-20,16,66,1625340509.0,32.000000
-27,8,54,1625340509.0,32.000000
-27,10,52,1625340509.0,32.000000
-32,22,55,1625340509.0,32.000000
-26,26,53,1625340509.0,32.000000
-27,25,54,1625340509.0,32.000000
-34,27,51,1625340509.0,32.000000
-30,26,52,1625340509.0,32.000000
-33,23,51,1625340509.0,32.000000
-35,24,47,1625340509.0,32.000000
-39,24,45,1625340509.0,32.000000
-33,25,52,1625340509.0,32.000000
-30,26,53,1625340509.0,32.000000
-42,21,42,1625340509.0,32.000000
-36,20,44,1625340509.0,32.000000
-37,19,43,1625340509.0,32.000000
-41,21,38,1625340509.0,32.000000
-44,21,38,1625340509.0,32.000000
-46,22,38,1625340509.0,32.000000
-44,23,41,1625340509.0,32.000000
-43,24,42,1625340509.0,32.000000
-45,25,37,1625340509.0,32.000000
-44,23,39,1625340509.0,32.000000
-46,24,36,1625340509.0,32.000000
-46,24,37,1625340509.0,32.000000
-45,25,39,1625340509.0,32.000000
-46,24,38,1625340509.0,32.000000
-45,25,39,1625340509.0,32.000000
-44,25,39,1625340509.0,32.000000
-45,24,36,1625340509.0,32.000000
-45,24,37,1625340509.0,32.000000
-46,24,38,1625340509.0,32.000000
-44,24,40,1625340509.0,32.000000
-43,23,40,1625340509.0,32.000000
-43,22,39,1625340509.0,32.000000
-43,23,39,1625340509.0,32.000000
-43,23,40,1625340509.0,32.000000
-44,23,37,1625340509.0,32.000000
-44,22,37,1625340509.0,32.000000
-46,23,36,1625340509.0,32.000000
-45,24,38,1625340509.0,32.000000
-46,25,38,1625340509.0,32.000000
-46,26,36,1625340509.0,32.000000
-46,25,36,1625340509.0,32.000000
-46,25,37,1625340509.0,32.000000
-47,27,37,1625340509.0,32.000000
-47,27,39,1625340509.0,32.000000
-48,27,41,1625340509.0,32.000000
-48,27,41,1625340509.0,32.000000
-46,26,46,1625340509.0,32.000000
-42,25,50,1625340509.0,32.000000
-37,18,48,1625340509.0,32.000000
-58,31,26,1625340509.0,32.000000
-25,10,35,1625340509.0,32.000000
-71,37,14,1625340509.0,32.000000
-73,31,14,1625340509.0,32.000000
-50,33,24,1625340509.0,32.000000
-44,34,27,1625340509.0,32.000000
-35,33,39,1625340509.0,32.000000
-38,36,39,1625340509.0,32.000000
-36,38,40,1625340509.0,32.000000
-31,41,41,1625340509.0,32.000000
-26,41,43,1625340509.0,32.000000
-23,43,43,1625340509.0,32.000000
-20,43,43,1625340509.0,32.000000
-17,45,42,1625340509.0,32.000000
-9,45,43,1625340509.0,32.000000
-7,45,41,1625340509.0,32.000000
-3,43,37,1625340509.0,32.000000
-9,41,35,1625340509.0,32.000000
-9,40,37,1625340509.0,32.000000
-5,39,38,1625340509.0,32.000000
-4,37,39,1625340509.0,32.000000
-11,37,38,1625340509.0,32.000000
-10,36,49,1625340509.0,32.000000
-17,34,43,1625340509.0,32.000000
-19,35,38,1625340509.0,32.000000
-20,36,40,1625340509.0,32.000000
-25,32,33,1625340509.0,32.000000
-31,25,30,1625340509.0,32.000000
-34,22,32,1625340509.0,32.000000
-41,15,31,1625340509.0,32.000000
-43,10,28,1625340509.0,32.000000
-58,3,27,1625340509.0,32.000000
-64,9,24,1625340509.0,32.000000
-65,10,28,1625340509.0,32.000000
-62,15,32,1625340509.0,32.000000
-66,22,28,1625340509.0,32.000000
-75,26,28,1625340509.0,32.000000
-84,13,31,1625340509.0,32.000000
-84,7,29,1625340509.0,32.000000
-73,5,26,1625340509.0,32.000000
-74,5,28,1625340509.0,32.000000
-72,2,31,1625340509.0,32.000000
-67,0,29,1625340509.0,32.000000
-59,-2,31,1625340509.0,32.000000
-45,-2,37,1625340509.0,32.000000
-30,4,41,1625340509.0,32.000000
-26,7,41,1625340509.0,32.000000
-15,13,46,1625340509.0,32.000000
-9,15,51,1625340509.0,32.000000
1,21,54,1625340509.0,32.000000
-1,24,58,1625340509.0,32.000000
-10,25,56,1625340509.0,32.000000
-18,23,53,1625340509.0,32.000000
-17,22,49,1625340509.0,32.000000
-22,21,48,1625340509.0,32.000000
-32,18,48,1625340509.0,32.000000
-32,17,46,1625340509.0,32.000000
-36,22,48,1625340509.0,32.000000
-49,24,67,1625340509.0,32.000000
-49,24,71,1625340509.0,32.000000
-46,21,49,1625340509.0,32.000000
-40,17,46,1625340509.0,32.000000
-37,14,40,1625340509.0,32.000000
-41,13,42,1625340509.0,32.000000
-44,11,48,1625340509.0,32.000000
-42,8,53,1625340509.0,32.000000
-39,8,53,1625340509.0,32.000000
-37,8,53,1625340509.0,32.000000
-33,11,50,1625340509.0,32.000000
-31,11,52,1625340509.0,32.000000
-29,12,53,1625340509.0,32.000000
-29,11,55,1625340509.0,32.000000
-29,12,54,1625340509.0,32.000000
-28,10,55,1625340509.0,32.000000
-29,9,56,1625340509.0,32.000000
-26,9,56,1625340509.0,32.000000
-20,9,61,1625340509.0,32.000000
-18,8,59,1625340509.0,32.000000
-15,7,61,1625340509.0,32.000000
-7,4,63,1625340509.0,32.000000
-9,4,63,1625340509.0,32.000000
-7,4,63,1625340509.0,32.000000
-7,4,64,1625340509.0,32.000000
-4,4,64,1625340509.0,32.000000
-6,5,63,1625340509.0,32.000000
-7,6,62,1625340509.0,32.000000
-9,6,62,1625340509.0,32.000000
-10,6,63,1625340509.0,32.000000
-10,6,62,1625340509.0,32.000000
-6,6,63,1625340509.0,32.000000
-8,5,62,1625340509.0,32.000000
-7,5,63,1625340509.0,32.000000
-9,6,62,1625340509.0,32.000000
-9,6,62,1625340509.0,32.000000
-9,6,62,1625340509.0,32.000000
-8,6,63,1625340509.0,32.000000
-9,6,62,1625340509.0,32.000000
-8,5,63,1625340509.0,32.000000
-8,5,62,1625340509.0,32.000000
-9,6,63,1625340509.0,32.000000
-8,6,62,1625340509.0,32.000000
-8,6,63,1625340509.0,32.000000
-8,6,62,1625340509.0,32.000000
-9,6,62,1625340509.0,32.000000
-8,6,63,1625340509.0,32.000000
-8,6,62,1625340509.0,32.000000
-8,6,62,1625340509.0,32.000000
-8,5,63,1625340509.0,32.000000
-8,5,63,1625340509.0,32.000000
-9,6,62,1625340509.0,32.000000
-9,6,62,1625340509.0,32.000000
-10,6,62,1625340509.0,32.000000
-9,6,62,1625340509.0,32.000000
-9,6,62,1625340509.0,32.000000
-10,6,62,1625340509.0,32.000000
-9,6,62,1625340509.0,32.000000
-10,6,62,1625340509.0,32.000000
-9,6,62,1625340509.0,32.000000
-9,6,62,1625340509.0,32.000000
-9,6,62,1625340509.0,32.000000
-9,6,62,1625340509.0,32.000000
-9,6,62,1625340509.0,32.000000
-9,6,62,1625340509.0,32.000000
-10,6,62,1625340509.0,32.000000
-11,6,62,1625340509.0,32.000000
-9,6,62,1625340509.0,32.000000
-11,6,62,1625340509.0,32.000000
-10,5,63,1625340509.0,32.000000
-8,5,62,1625340509.0,32.000000
-8,7,61,1625340509.0,32.000000
-12,5,65,1625340509.0,32.000000
-10,5,61,1625340509.0,32.000000
-7,6,63,1625340509.0,32.000000
-5,6,61,1625340509.0,32.000000
-8,6,60,1625340509.0,32.000000
-9,6,61,1625340509.0,32.000000
-12,5,64,1625340509.0,32.000000
-12,6,64,1625340509.0,32.000000
-9,6,63,1625340509.0,32.000000
-9,6,63,1625340509.0,32.000000
-8,5,63,1625340509.0,32.000000
-8,6,62,1625340509.0,32.000000
-8,6,62,1625340509.0,32.000000
-9,7,62,1625340509.0,32.000000
-10,7,62,1625340509.0,32.000000
-9,6,62,1625340509.0,32.000000
-9,6,62,1625340509.0,32.000000
-9,6,62,1625340509.0,32.000000
-9,6,62,1625340509.0,32.000000
-9,6,62,1625340509.0,32.000000
-9,6,63,1625340509.0,32.000000
-10,6,62,1625340509.0,32.000000
-10,6,62,1625340509.0,32.000000
-10,6,62,1625340509.0,32.000000
-10,6,62,1625340509.0,32.000000
-10,6,62,1625340509.0,32.000000
-10,6,62,1625340509.0,32.000000
-10,6,62,1625340509.0,32.000000
-10,6,62,1625340509.0,32.000000
-10,6,62,1625340509.0,32.000000
-10,6,62,1625340509.0,32.000000
-10,6,62,1625340509.0,32.000000
-10,6,62,1625340509.0,32.000000
-10,6,62,1625340509.0,32.000000
-10,6,63,1625340509.0,32.000000
-8,5,62,1625340509.0,32.000000
-11,6,61,1625340509.0,32.000000
-14,6,66,1625340509.0,32.000000
-9,6,69,1625340509.0,32.000000
-10,5,59,1625340509.0,32.000000
-12,4,65,1625340509.0,32.000000
-5,5,62,1625340509.0,32.000000
-6,6,60,1625340509.0,32.000000
-6,8,58,1625340509.0,32.000000
-9,9,57,1625340509.0,32.000000
-11,8,63,1625340509.0,32.000000
-11,8,65,1625340509.0,32.000000
-12,7,64,1625340509.0,32.000000
-13,7,63,1625340509.0,32.000000
-12,6,63,1625340509.0,32.000000
-10,4,62,1625340509.0,32.000000
-9,5,62,1625340509.0,32.000000
-8,5,61,1625340509.0,32.000000
-9,5,61,1625340509.0,32.000000
-11,6,62,1625340509.0,32.000000
-11,6,62,1625340509.0,32.000000
-11,6,63,1625340509.0,32.000000
-10,6,63,1625340509.0,32.000000
-10,6,62,1625340509.0,32.000000
-10,6,62,1625340509.0,32.000000
-10,6,62,1625340509.0,32.000000
-10,6,62,1625340509.0,32.000000
-11,6,62,1625340509.0,32.000000
-11,6,62,1625340509.0,32.000000
-11,6,62,1625340509.0,32.000000
-10,6,62,1625340509.0,32.000000
-10,6,62,1625340509.0,32.000000
-11,6,62,1625340509.0,32.000000
-11,6,62,1625340509.0,32.000000
-11,6,62,1625340509.0,32.000000
-10,6,62,1625340509.0,32.000000
-10,6,62,1625340509.0,32.000000
-11,6,62,1625340509.0,32.000000
-10,6,62,1625340509.0,32.000000
-11,6,62,1625340509.0,32.000000
-11,6,62,1625340509.0,32.000000
-11,6,62,1625340509.0,32.000000
-11,6,62,1625340509.0,32.000000
-11,6,62,1625340509.0,32.000000
-11,6,62,1625340509.0,32.000000
-11,6,62,1625340509.0,32.000000
-10,6,62,1625340509.0,32.000000
-10,6,62,1625340509.0,32.000000
-11,6,62,1625340509.0,32.000000
-11,6,62,1625340509.0,32.000000
-11,6,62,1625340509.0,32.000000
-11,6,62,1625340509.0,32.000000
-11,6,62,1625340509.0,32.000000
-10,6,62,1625340509.0,32.000000
-11,6,62,1625340509.0,32.000000
-11,6,62,1625340509.0,32.000000
-11,6,62,1625340509.0,32.000000
-11,6,62,1625340509.0,32.000000
-11,6,62,1625340509.0,32.000000
-10,6,62,1625340509.0,32.000000
-10,6,62,1625340509.0,32.000000
-11,6,62,1625340509.0,32.000000
-11,6,62,1625340509.0,32.000000
-10,6,62,1625340509.0,32.000000
-13,6,64,1625340509.0,32.000000
-11,5,63,1625340509.0,32.000000
-10,6,61,1625340509.0,32.000000
-20,9,69,1625340509.0,32.000000
-10,6,68,1625340509.0,32.000000
-1,3,59,1625340509.0,32.000000
0,3,56,1625340509.0,32.000000
-4,5,54,1625340509.0,32.000000
-9,7,60,1625340509.0,32.000000
-11,7,65,1625340509.0,32.000000
-11,6,70,1625340509.0,32.000000
-10,8,62,1625340509.0,32.000000
-14,7,60,1625340509.0,32.000000
-8,5,62,1625340509.0,32.000000
-9,5,61,1625340509.0,32.000000
-7,5,63,1625340509.0,32.000000
-9,7,62,1625340509.0,32.000000
-9,7,63,1625340509.0,32.000000
-12,8,62,1625340509.0,32.000000
-11,7,62,1625340509.0,32.000000
-10,6,62,1625340509.0,32.000000
-8,6,63,1625340509.0,32.000000
-8,6,62,1625340509.0,32.000000
-9,6,63,1625340509.0,32.000000
-9,6,62,1625340509.0,32.000000
-11,7,62,1625340509.0,32.000000
-10,6,62,1625340509.0,32.000000
-9,6,63,1625340509.0,32.000000
-10,6,61,1625340509.0,32.000000
-10,6,62,1625340509.0,32.000000
-10,6,62,1625340509.0,32.000000
-10,6,62,1625340509.0,32.000000
-9,6,62,1625340509.0,32.000000
-10,7,62,1625340509.0,32.000000
-9,6,62,1625340509.0,32.000000
-9,6,62,1625340509.0,32.000000
-9,6,62,1625340509.0,32.000000
-9,6,62,1625340509.0,32.000000
-10,6,62,1625340509.0,32.000000
-10,6,62,1625340509.0,32.000000
-10,6,62,1625340509.0,32.000000
-10,6,62,1625340509.0,32.000000
-9,6,63,1625340509.0,32.000000
-10,6,62,1625340509.0,32.000000
-10,6,62,1625340509.0,32.000000
-10,7,62,1625340509.0,32.000000
-9,6,62,1625340509.0,32.000000
-9,6,62,1625340509.0,32.000000
-9,6,62,1625340509.0,32.000000
-10,6,62,1625340509.0,32.000000
-10,6,62,1625340509.0,32.000000
-10,6,62,1625340509.0,32.000000
-10,6,62,1625340509.0,32.000000
-10,6,62,1625340509.0,32.000000
-10,6,62,1625340509.0,32.000000
-10,6,62,1625340509.0,32.000000
-10,6,62,1625340509.0,32.000000
-10,6,62,1625340509.0,32.000000
-10,6,62,1625340509.0,32.000000
-10,6,62,1625340509.0,32.000000
-10,6,62,1625340509.0,32.000000
-11,6,63,1625340509.0,32.000000
-15,6,72,1625340509.0,32.000000
-11,4,58,1625340509.0,32.000000
-4,6,58,1625340509.0,32.000000
-2,7,59,1625340509.0,32.000000
-4,5,57,1625340509.0,32.000000
-11,3,58,1625340509.0,32.000000
-6,5,58,1625340509.0,32.000000
-4,6,66,1625340509.0,32.000000
-8,7,68,1625340509.0,32.000000
-9,7,66,1625340509.0,32.000000
-9,5,63,1625340509.0,32.000000
-7,4,64,1625340509.0,32.000000
-6,4,64,1625340509.0,32.000000
-6,5,62,1625340509.0,32.000000
-7,6,62,1625340509.0,32.000000
-8,6,62,1625340509.0,32.000000
-9,6,62,1625340509.0,32.000000
-9,6,63,1625340509.0,32.000000
-9,6,62,1625340509.0,32.000000
-9,6,62,1625340509.0,32.000000
-8,6,62,1625340509.0,32.000000
-9,6,62,1625340509.0,32.000000
-9,6,62,1625340509.0,32.000000
-10,6,62,1625340509.0,32.000000
-10,6,62,1625340509.0,32.000000
-10,6,62,1625340509.0,32.000000
-10,6,62,1625340509.0,32.000000
-9,6,63,1625340509.0,32.000000
-10,6,62,1625340509.0,32.000000
-10,6,62,1625340509.0,32.000000
-10,6,62,1625340509.0,32.000000
-10,6,62,1625340509.0,32.000000
-10,6,62,1625340509.0,32.000000
-10,6,62,1625340509.0,32.000000
-10,6,62,1625340509.0,32.000000
-10,6,62,1625340509.0,32.000000
-10,6,62,1625340509.0,32.000000
-10,6,62,1625340509.0,32.000000
-10,6,62,1625340509.0,32.000000
-10,6,62,1625340509.0,32.000000
-10,6,62,1625340509.0,32.000000
-10,6,62,1625340509.0,32.000000
-10,6,62,1625340509.0,32.000000
-10,6,62,1625340509.0,32.000000
-10,6,62,1625340509.0,32.000000
-10,6,62,1625340509.0,32.000000
-10,6,62,1625340509.0,32.000000
-10,6,62,1625340509.0,32.000000
-10,6,62,1625340509.0,32.000000
-10,6,62,1625340509.0,32.000000
-10,6,62,1625340509.0,32.000000
-10,6,62,1625340509.0,32.000000
-10,6,62,1625340509.0,32.000000
-10,6,62,1625340509.0,32.000000
-9,6,62,1625340509.0,32.000000
-10,6,62,1625340509.0,32.000000
-10,6,62,1625340509.0,32.000000
-10,6,62,1625340509.0,32.000000
-10,6,62,1625340509.0,32.000000
-10,6,62,1625340509.0,32.000000
-10,6,62,1625340509.0,32.000000
-10,6,62,1625340509.0,32.000000
-10,6,62,1625340509.0,32.000000
-10,6,62,1625340509.0,32.000000
-11,6,62,1625340509.0,32.000000
-11,6,61,1625340509.0,32.000000
-14,5,64,1625340509.0,32.000000
-11,6,68,1625340509.0,32.000000
-12,6,53,1625340509.0,32.000000
-6,4,58,1625340509.0,32.000000
-5,6,60,1625340509.0,32.000000
-5,7,58,1625340509.0,32.000000
-8,7,62,1625340509.0,32.000000
-14,4,68,1625340509.0,32.000000
-13,5,64,1625340509.0,32.000000
-13,4,62,1625340509.0,32.000000
-13,4,63,1625340509.0,32.000000
-10,5,62,1625340509.0,32.000000
-9,6,62,1625340509.0,32.000000
-9,6,61,1625340509.0,32.000000
-11,6,62,1625340509.0,32.000000
-12,6,62,1625340509.0,32.000000
-11,6,62,1625340509.0,32.000000
-11,5,62,1625340509.0,32.000000
-11,5,62,1625340509.0,32.000000
-11,5,62,1625340509.0,32.000000
-11,6,62,1625340509.0,32.000000
-11,6,62,1625340509.0,32.000000
-11,6,62,1625340509.0,32.000000
-11,6,62,1625340509.0,32.000000
-11,6,62,1625340509.0,32.000000
-11,6,62,1625340509.0,32.000000
-11,5,62,1625340509.0,32.000000
-11,6,62,1625340509.0,32.000000
-11,6,62,1625340509.0,32.000000
-11,6,62,1625340509.0,32.000000
-12,6,62,1625340509.0,32.000000
-11,6,62,1625340509.0,32.000000
-11,6,62,1625340509.0,32.000000
-11,6,62,1625340509.0,32.000000
-12,6,62,1625340509.0,32.000000
-11,6,62,1625340509.0,32.000000
-11,6,62,1625340509.0,32.000000
-11,6,62,1625340509.0,32.000000
-11,6,62,1625340509.0,32.000000
-11,6,62,1625340509.0,32.000000
-11,6,62,1625340509.0,32.000000
-11,6,62,1625340509.0,32.000000
-11,6,62,1625340509.0,32.000000
-11,6,62,1625340509.0,32.000000
-11,6,62,1625340509.0,32.000000
-11,6,62,1625340509.0,32.000000
-11,6,62,1625340509.0,32.000000
-11,6,62,1625340509.0,32.000000
-11,6,62,1625340509.0,32.000000
-11,6,62,1625340509.0,32.000000
-11,6,62,1625340509.0,32.000000
-11,6,62,1625340509.0,32.000000
-11,6,62,1625340509.0,32.000000
-11,6,62,1625340509.0,32.000000
-11,6,62,1625340509.0,32.000000
-11,6,62,1625340509.0,32.000000
-11,6,62,1625340509.0,32.000000
-11,6,62,1625340509.0,32.000000
-11,6,62,1625340509.0,32.000000
-11,6,62,1625340509.0,32.000000
-11,6,62,1625340509.0,32.000000
-11,6,62,1625340509.0,32.000000
-11,6,62,1625340509.0,32.000000
-11,6,62,1625340509.0,32.000000
-12,6,62,1625340509.0,32.000000
-12,7,62,1625340509.0,32.000000
-10,6,61,1625340509.0,32.000000
-11,6,61,1625340509.0,32.000000
-13,6,61,1625340509.0,32.000000
-10,6,62,1625340509.0,32.000000
-9,6,63,1625340509.0,32.000000
-10,5,63,1625340509.0,32.000000
-12,5,61,1625340509.0,32.000000
-11,6,62,1625340509.0,32.000000
-11,6,62,1625340509.0,32.000000
-10,6,62,1625340509.0,32.000000
-11,6,61,1625340509.0,32.000000
-12,6,63,1625340509.0,32.000000
-13,6,67,1625340509.0,32.000000
-14,3,62,1625340509.0,32.000000
-13,5,58,1625340509.0,32.000000
-6,6,57,1625340509.0,32.000000
-6,5,59,1625340509.0,32.000000
-3,7,62,1625340509.0,32.000000
-11,5,67,1625340509.0,32.000000
-15,4,66,1625340509.0,32.000000
-11,4,63,1625340509.0,32.000000
-11,4,62,1625340509.0,32.000000
-10,4,62,1625340509.0,32.000000
-9,6,61,1625340509.0,32.000000
-9,6,62,1625340509.0,32.000000
-10,6,62,1625340509.0,32.000000
-12,6,62,1625340509.0,32.000000
-12,6,62,1625340509.0,32.000000
-11,5,62,1625340509.0,32.000000
-11,5,62,1625340509.0,32.000000
-11,6,62,1625340509.0,32.000000
-10,6,62,1625340509.0,32.000000
-11,6,62,1625340509.0,32.000000
-11,6,62,1625340509.0,32.000000
-12,6,62,1625340509.0,32.000000
-12,6,62,1625340509.0,32.000000
-12,6,62,1625340509.0,32.000000
-11,6,62,1625340509.0,32.000000
-12,6,62,1625340509.0,32.000000
-12,6,62,1625340509.0,32.000000
-12,6,62,1625340509.0,32.000000
-11,6,62,1625340509.0,32.000000
-11,6,62,1625340509.0,32.000000
-11,7,62,1625340509.0,32.000000
-11,6,62,1625340509.0,32.000000
-11,6,62,1625340509.0,32.000000
-11,6,62,1625340509.0,32.000000
-11,6,62,1625340509.0,32.000000
-11,6,62,1625340509.0,32.000000
-10,5,62,1625340509.0,32.000000
-10,6,62,1625340509.0,32.000000
-10,6,62,1625340509.0,32.000000
-10,6,62,1625340509.0,32.000000
-10,6,62,1625340509.0,32.000000
-10,6,62,1625340509.0,32.000000
-10,5,61,1625340509.0,32.000000
-9,5,63,1625340509.0,32.000000
-9,5,63,1625340509.0,32.000000
-9,5,63,1625340509.0,32.000000
-10,5,62,1625340509.0,32.000000
-10,5,62,1625340509.0,32.000000
-16,5,67,1625340509.0,32.000000
-10,5,67,1625340509.0,32.000000
-5,5,54,1625340509.0,32.000000
-7,5,50,1625340509.0,32.000000
-4,0,58,1625340509.0,32.000000
-2,1,65,1625340509.0,32.000000
-8,6,68,1625340509.0,32.000000
-10,5,65,1625340509.0,32.000000
-10,4,65,1625340509.0,32.000000
-14,5,60,1625340509.0,32.000000
-11,4,61,1625340509.0,32.000000
-6,2,66,1625340509.0,32.000000
-8,5,61,1625340509.0,32.000000
-9,5,62,1625340509.0,32.000000
-10,5,63,1625340509.0,32.000000
-10,5,62,1625340509.0,32.000000
-9,5,62,1625340509.0,32.000000
-9,4,62,1625340509.0,32.000000
-9,5,62,1625340509.0,32.000000
-9,5,62,1625340509.0,32.000000
-9,5,63,1625340509.0,32.000000
-9,5,62,1625340509.0,32.000000
-8,5,63,1625340509.0,32.000000
-8,5,63,1625340509.0,32.000000
-9,5,62,1625340509.0,32.000000
-9,5,62,1625340509.0,32.000000
-8,5,62,1625340509.0,32.000000
-8,4,63,1625340509.0,32.000000
-8,5,63,1625340509.0,32.000000
-8,5,62,1625340509.0,32.000000
-8,5,63,1625340509.0,32.000000
-7,5,63,1625340509.0,32.000000
-7,5,63,1625340509.0,32.000000
-9,5,63,1625340509.0,32.000000
-8,5,62,1625340509.0,32.000000
-9,4,63,1625340509.0,32.000000
-9,4,63,1625340509.0,32.000000
-9,5,62,1625340509.0,32.000000
-9,5,62,1625340509.0,32.000000
-8,5,62,1625340509.0,32.000000
-8,5,63,1625340509.0,32.000000
-9,5,62,1625340509.0,32.000000
-10,5,62,1625340509.0,32.000000
-11,5,62,1625340509.0,32.000000
-10,5,62,1625340509.0,32.000000
-10,5,62,1625340509.0,32.000000
-10,5,62,1625340509.0,32.000000
-10,5,62,1625340509.0,32.000000
-11,5,62,1625340509.0,32.000000
-11,5,63,1625340509.0,32.000000
-11,5,62,1625340509.0,32.000000
-11,5,62,1625340509.0,32.000000
-12,5,62,1625340509.0,32.000000
-11,5,62,1625340509.0,32.000000
-11,4,62,1625340509.0,32.000000
-12,4,62,1625340509.0,32.000000
-12,5,62,1625340509.0,32.000000
-12,5,62,1625340509.0,32.000000
-11,5,62,1625340509.0,32.000000
-10,5,62,1625340509.0,32.000000
-11,5,62,1625340509.0,32.000000
-11,5,62,1625340509.0,32.000000
-11,5,62,1625340509.0,32.000000
-11,4,60,1625340509.0,32.000000
-11,3,65,1625340509.0,32.000000
-12,6,60,1625340509.0,32.000000
-12,4,61,1625340509.0,32.000000
-12,3,62,1625340509.0,32.000000
-15,4,64,1625340509.0,32.000000
-19,5,67,1625340509.0,32.000000
-6,3,70,1625340509.0,32.000000
0,11,52,1625340509.0,32.000000
7,4,56,1625340509.0,32.000000
2,7,64,1625340509.0,32.000000
-11,5,62,1625340509.0,32.000000
-19,3,66,1625340509.0,32.000000
-17,4,63,1625340509.0,32.000000
-12,2,61,1625340509.0,32.000000
-15,2,63,1625340509.0,32.000000
-12,4,61,1625340509.0,32.000000
-11,4,61,1625340509.0,32.000000
-10,4,62,1625340509.0,32.000000
-12,6,62,1625340509.0,32.000000
-13,5,60,1625340509.0,32.000000
-12,4,63,1625340509.0,32.000000
-13,3,63,1625340509.0,32.000000
-12,3,63,1625340509.0,32.000000
-12,2,62,1625340509.0,32.000000
-12,3,62,1625340509.0,32.000000
-12,4,62,1625340509.0,32.000000
-13,5,61,1625340509.0,32.000000
-13,6,61,1625340509.0,32.000000
-12,6,62,1625340509.0,32.000000
-12,6,62,1625340509.0,32.000000
-12,6,61,1625340509.0,32.000000
-13,5,62,1625340509.0,32.000000
-13,5,62,1625340509.0,32.000000
-13,6,61,1625340509.0,32.000000
-12,5,62,1625340509.0,32.000000
-12,5,62,1625340509.0,32.000000
-12,5,62,1625340509.0,32.000000
-12,5,62,1625340509.0,32.000000
-12,5,62,1625340509.0,32.000000
-11,5,62,1625340509.0,32.000000
-11,5,62,1625340509.0,32.000000
-11,5,62,1625340509.0,32.000000
-12,5,62,1625340509.0,32.000000
-12,5,62,1625340509.0,32.000000
-12,4,62,1625340509.0,32.000000
-12,4,62,1625340509.0,32.000000
-12,4,62,1625340509.0,32.000000
-12,5,62,1625340509.0,32.000000
-12,5,62,1625340509.0,32.000000
-12,5,62,1625340509.0,32.000000
-12,5,62,1625340509.0,32.000000
-12,5,62,1625340509.0,32.000000
-12,5,62,1625340509.0,32.000000
-12,5,62,1625340509.0,32.000000
-12,5,62,1625340509.0,32.000000
-11,5,62,1625340509.0,32.000000
-11,5,62,1625340509.0,32.000000
-11,5,62,1625340509.0,32.000000
-11,5,62,1625340509.0,32.000000
-12,4,62,1625340509.0,32.000000
-12,5,62,1625340509.0,32.000000
-12,4,62,1625340509.0,32.000000
-12,5,62,1625340509.0,32.000000
-17,4,65,1625340509.0,32.000000
-15,4,69,1625340509.0,32.000000
-8,8,59,1625340509.0,32.000000
-7,4,55,1625340509.0,32.000000
-5,2,60,1625340509.0,32.000000
-7,5,55,1625340509.0,32.000000
-10,4,61,1625340509.0,32.000000
-12,4,66,1625340509.0,32.000000
-13,3,67,1625340509.0,32.000000
-11,3,63,1625340509.0,32.000000
-11,3,62,1625340509.0,32.000000
-12,3,63,1625340509.0,32.000000
-12,4,62,1625340509.0,32.000000
-11,4,62,1625340509.0,32.000000
-11,5,62,1625340509.0,32.000000
-13,5,62,1625340509.0,32.000000
-13,5,62,1625340509.0,32.000000
-12,4,62,1625340509.0,32.000000
-12,4,62,1625340509.0,32.000000
-12,4,62,1625340509.0,32.000000
-11,4,62,1625340509.0,32.000000
-12,5,62,1625340509.0,32.000000
-12,5,62,1625340509.0,32.000000
-11,5,62,1625340509.0,32.000000
-11,5,62,1625340509.0,32.000000
-11,4,62,1625340509.0,32.000000
-11,5,62,1625340509.0,32.000000
-12,4,62,1625340509.0,32.000000
-11,4,62,1625340509.0,32.000000
-11,3,63,1625340509.0,32.000000
-11,3,63,1625340509.0,32.000000
-11,4,62,1625340509.0,32.000000
-11,4,62,1625340509.0,32.000000
-12,4,62,1625340509.0,32.000000
-11,4,62,1625340509.0,32.000000
-12,4,62,1625340509.0,32.000000
-12,3,63,1625340509.0,32.000000
-12,3,62,1625340509.0,32.000000
-11,4,62,1625340509.0,32.000000
-11,4,62,1625340509.0,32.000000
-12,4,61,1625340509.0,32.000000
-12,4,62,1625340509.0,32.000000
-12,4,62,1625340509.0,32.000000
-11,4,62,1625340509.0,32.000000
-12,4,62,1625340509.0,32.000000
-12,4,62,1625340509.0,32.000000
-11,4,62,1625340509.0,32.000000
-11,4,62,1625340509.0,32.000000
-12,4,62,1625340509.0,32.000000
-12,4,62,1625340509.0,32.000000
-12,4,62,1625340509.0,32.000000
-12,4,62,1625340509.0,32.000000
-12,4,62,1625340509.0,32.000000
-12,4,62,1625340509.0,32.000000
-12,4,62,1625340509.0,32.000000
-12,4,62,1625340509.0,32.000000
-12,4,62,1625340509.0,32.000000
-11,4,62,1625340509.0,32.000000
-11,4,62,1625340509.0,32.000000
-12,4,62,1625340509.0,32.000000
-12,4,62,1625340509.0,32.000000
-12,4,62,1625340509.0,32.000000
-12,4,62,1625340509.0,32.000000
-12,4,62,1625340509.0,32.000000
-12,4,61,1625340509.0,32.000000
-11,4,62,1625340509.0,32.000000
-11,4,62,1625340509.0,32.000000
-12,4,61,1625340509.0,32.000000
-14,4,62,1625340509.0,32.000000
-14,6,72,1625340509.0,32.000000
-8,-1,77,1625340509.0,32.000000
-13,5,49,1625340509.0,32.000000
-13,5,42,1625340509.0,32.000000
-8,0,65,1625340509.0,32.000000
-11,4,73,1625340509.0,32.000000
-16,0,77,1625340509.0,32.000000
-12,4,60,1625340509.0,32.000000
-14,2,61,1625340509.0,32.000000
-13,3,60,1625340509.0,32.000000
-12,4,60,1625340509.0,32.000000
-12,4,61,1625340509.0,32.000000
-14,3,62,1625340509.0,32.000000
-14,4,63,1625340509.0,32.000000
-13,4,62,1625340509.0,32.000000
-12,3,62,1625340509.0,32.000000
-13,3,62,1625340509.0,32.000000
-12,4,62,1625340509.0,32.000000
-13,4,62,1625340509.0,32.000000
-12,4,62,1625340509.0,32.000000
-12,4,62,1625340509.0,32.000000
-13,4,62,1625340509.0,32.000000
-13,4,62,1625340509.0,32.000000
-13,4,62,1625340509.0,32.000000
-13,4,62,1625340509.0,32.000000
-12,4,62,1625340509.0,32.000000
-13,4,62,1625340509.0,32.000000
-13,4,62,1625340509.0,32.000000
-13,4,62,1625340509.0,32.000000
-13,4,62,1625340509.0,32.000000
-13,4,61,1625340509.0,32.000000
-13,4,62,1625340509.0,32.000000
-13,4,62,1625340509.0,32.000000
-13,4,62,1625340509.0,32.000000
-13,4,62,1625340509.0,32.000000
-13,4,62,1625340509.0,32.000000
-13,4,62,1625340509.0,32.000000
-13,4,61,1625340509.0,32.000000
-13,4,62,1625340509.0,32.000000
-13,4,62,1625340509.0,32.000000
-13,4,61,1625340509.0,32.000000
-13,4,62,1625340509.0,32.000000
-13,4,62,1625340509.0,32.000000
-13,4,62,1625340509.0,32.000000
-13,4,62,1625340509.0,32.000000
-13,4,62,1625340509.0,32.000000
-13,4,61,1625340509.0,32.000000
-13,4,61,1625340509.0,32.000000
-13,4,61,1625340509.0,32.000000
-12,3,62,1625340509.0,32.000000
-13,3,62,1625340509.0,32.000000
-13,4,62,1625340509.0,32.000000
-12,3,62,1625340509.0,32.000000
-12,4,62,1625340509.0,32.000000
-12,4,62,1625340509.0,32.000000
-12,4,62,1625340509.0,32.000000
-13,4,62,1625340509.0,32.000000
-14,3,64,1625340509.0,32.000000
-10,3,66,1625340509.0,32.000000
-21,3,68,1625340509.0,32.000000
-6,6,53,1625340509.0,32.000000
2,3,46,1625340509.0,32.000000
1,3,69,1625340509.0,32.000000
4,3,69,1625340509.0,32.000000
-17,3,63,1625340509.0,32.000000
-22,2,63,1625340509.0,32.000000
-19,4,60,1625340509.0,32.000000
-13,2,63,1625340509.0,32.000000
-12,2,62,1625340509.0,32.000000
-11,3,61,1625340509.0,32.000000
-12,3,62,1625340509.0,32.000000
-14,4,62,1625340509.0,32.000000
-13,4,62,1625340509.0,32.000000
-13,4,62,1625340509.0,32.000000
-12,3,62,1625340509.0,32.000000
-12,3,62,1625340509.0,32.000000
-11,3,62,1625340509.0,32.000000
-11,3,62,1625340509.0,32.000000
-13,4,62,1625340509.0,32.000000
-12,3,62,1625340509.0,32.000000
-12,3,62,1625340509.0,32.000000
-12,3,62,1625340509.0,32.000000
-11,3,62,1625340509.0,32.000000
-12,4,61,1625340509.0,32.000000
-12,4,62,1625340509.0,32.000000
-13,4,62,1625340509.0,32.000000
-13,4,62,1625340509.0,32.000000
-13,3,62,1625340509.0,32.000000
-12,4,62,1625340509.0,32.000000
-12,4,62,1625340509.0,32.000000
-13,4,62,1625340509.0,32.000000
-13,4,62,1625340509.0,32.000000
-13,4,62,1625340509.0,32.000000
-13,4,62,1625340509.0,32.000000
-13,4,62,1625340509.0,32.000000
-13,4,62,1625340509.0,32.000000
-13,4,62,1625340509.0,32.000000
-13,4,62,1625340509.0,32.000000
-12,4,62,1625340509.0,32.000000
-12,4,62,1625340509.0,32.000000
-12,4,62,1625340509.0,32.000000
-12,4,62,1625340509.0,32.000000
-12,4,62,1625340509.0,32.000000
-12,4,62,1625340509.0,32.000000
-12,4,62,1625340509.0,32.000000
-12,4,62,1625340509.0,32.000000
-12,4,62,1625340509.0,32.000000
-12,4,62,1625340509.0,32.000000
-12,4,62,1625340509.0,32.000000
-12,4,62,1625340509.0,32.000000
-12,4,62,1625340509.0,32.000000
-12,4,62,1625340509.0,32.000000
-12,4,62,1625340509.0,32.000000
-12,4,62,1625340509.0,32.000000
-12,4,62,1625340509.0,32.000000
-13,4,62,1625340509.0,32.000000
-16,4,63,1625340509.0,32.000000
-18,5,64,1625340509.0,32.000000
-14,4,67,1625340509.0,32.000000
-3,2,58,1625340509.0,32.000000
-2,5,54,1625340509.0,32.000000
-4,5,60,1625340509.0,32.000000
-11,5,64,1625340509.0,32.000000
-16,1,71,1625340509.0,32.000000
-17,0,63,1625340509.0,32.000000
-13,0,63,1625340509.0,32.000000
-11,2,63,1625340509.0,32.000000
-11,4,61,1625340509.0,32.000000
-10,3,61,1625340509.0,32.000000
-12,4,62,1625340509.0,32.000000
-12,5,62,1625340509.0,32.000000
-13,4,62,1625340509.0,32.000000
-13,3,62,1625340509.0,32.000000
-12,3,62,1625340509.0,32.000000
-12,3,62,1625340509.0,32.000000
-12,4,62,1625340509.0,32.000000
-12,4,62,1625340509.0,32.000000
-12,4,61,1625340509.0,32.000000
-12,4,61,1625340509.0,32.000000
-12,4,62,1625340509.0,32.000000
-12,4,62,1625340509.0,32.000000
-12,4,62,1625340509.0,32.000000
-13,4,62,1625340509.0,32.000000
-12,4,62,1625340509.0,32.000000
-13,4,62,1625340509.0,32.000000
-13,4,62,1625340509.0,32.000000
-13,4,62,1625340509.0,32.000000
-13,3,62,1625340509.0,32.000000
-13,4,62,1625340509.0,32.000000
-13,4,62,1625340509.0,32.000000
-12,4,62,1625340509.0,32.000000
-12,4,62,1625340509.0,32.000000
-12,4,62,1625340509.0,32.000000
-13,4,62,1625340509.0,32.000000
-13,4,62,1625340509.0,32.000000
-13,4,62,1625340509.0,32.000000
-13,4,62,1625340509.0,32.000000
-12,4,62,1625340509.0,32.000000
-12,4,62,1625340509.0,32.000000
-13,4,62,1625340509.0,32.000000
-13,4,62,1625340509.0,32.000000
-12,4,62,1625340509.0,32.000000
-12,4,62,1625340509.0,32.000000
-12,4,62,1625340509.0,32.000000
-13,4,62,1625340509.0,32.000000
-13,4,62,1625340509.0,32.000000
-13,4,62,1625340509.0,32.000000
-13,4,62,1625340509.0,32.000000
-12,4,62,1625340509.0,32.000000
-12,4,62,1625340509.0,32.000000
-13,4,62,1625340509.0,32.000000
-13,4,62,1625340509.0,32.000000
-13,4,62,1625340509.0,32.000000
-13,4,62,1625340509.0,32.000000
-13,4,62,1625340509.0,32.000000
-13,4,62,1625340509.0,32.000000
-13,4,62,1625340509.0,32.000000
-12,4,62,1625340509.0,32.000000
-12,4,62,1625340509.0,32.000000
-14,4,61,1625340509.0,32.000000
-22,3,64,1625340509.0,32.000000
-15,7,69,1625340509.0,32.000000
-4,4,57,1625340509.0,32.000000
-2,2,49,1625340509.0,32.000000
-6,-1,58,1625340509.0,32.000000
-7,3,63,1625340509.0,32.000000
-20,1,75,1625340509.0,32.000000
-15,1,59,1625340509.0,32.000000
-16,3,59,1625340509.0,32.000000
-11,1,63,1625340509.0,32.000000
-14,4,61,1625340509.0,32.000000
-12,3,61,1625340509.0,32.000000
-10,3,62,1625340509.0,32.000000
-10,3,62,1625340509.0,32.000000
-11,4,62,1625340509.0,32.000000
-12,4,62,1625340509.0,32.000000
-11,2,62,1625340509.0,32.000000
-11,3,63,1625340509.0,32.000000
-11,3,62,1625340509.0,32.000000
-11,3,62,1625340509.0,32.000000
-12,4,62,1625340509.0,32.000000
-11,4,62,1625340509.0,32.000000
-11,3,62,1625340509.0,32.000000
-12,3,62,1625340509.0,32.000000
-12,3,62,1625340509.0,32.000000
-12,3,62,1625340509.0,32.000000
-12,3,62,1625340509.0,32.000000
-12,3,62,1625340509.0,32.000000
-12,3,62,1625340509.0,32.000000
-11,3,62,1625340509.0,32.000000
-11,4,62,1625340509.0,32.000000
-12,4,62,1625340509.0,32.000000
-12,3,62,1625340509.0,32.000000
-12,3,62,1625340509.0,32.000000
-12,3,62,1625340509.0,32.000000
-12,3,62,1625340509.0,32.000000
-12,4,61,1625340509.0,32.000000
-11,3,62,1625340509.0,32.000000
-12,4,62,1625340509.0,32.000000
-12,3,62,1625340509.0,32.000000
-11,3,62,1625340509.0,32.000000
-11,3,62,1625340509.0,32.000000
-12,3,62,1625340509.0,32.000000
-12,4,62,1625340509.0,32.000000
-12,3,62,1625340509.0,32.000000
-12,3,62,1625340509.0,32.000000
-12,4,62,1625340509.0,32.000000
-12,3,62,1625340509.0,32.000000
-12,3,62,1625340509.0,32.000000
-12,3,62,1625340509.0,32.000000
-12,3,62,1625340509.0,32.000000
-12,3,62,1625340509.0,32.000000
-12,4,62,1625340509.0,32.000000
-12,4,61,1625340509.0,32.000000
-12,3,62,1625340509.0,32.000000
-11,4,62,1625340509.0,32.000000
-12,4,62,1625340509.0,32.000000
-12,4,62,1625340509.0,32.000000
-12,4,62,1625340509.0,32.000000
-12,3,62,1625340509.0,32.000000
-12,4,62,1625340509.0,32.000000
-12,3,62,1625340509.0,32.000000
-12,3,62,1625340509.0,32.000000
-12,3,62,1625340509.0,32.000000
-11,3,62,1625340509.0,32.000000
-11,4,62,1625340509.0,32.000000
-13,3,62,1625340509.0,32.000000
-19,1,65,1625340509.0,32.000000
-12,6,68,1625340509.0,32.000000
-1,6,53,1625340509.0,32.000000
0,3,57,1625340509.0,32.000000
-11,-1,55,1625340509.0,32.000000
-11,2,61,1625340509.0,32.000000
-10,-1,74,1625340509.0,32.000000
-9,-2,67,1625340509.0,32.000000
-3,0,64,1625340509.0,32.000000
-5,2,60,1625340509.0,32.000000
-13,1,62,1625340509.0,32.000000
-13,2,60,1625340509.0,32.000000
-9,3,61,1625340509.0,32.000000
-9,2,63,1625340509.0,32.000000
-11,3,63,1625340509.0,32.000000
-11,3,62,1625340509.0,32.000000
-9,2,62,1625340509.0,32.000000
-10,2,62,1625340509.0,32.000000
-11,3,62,1625340509.0,32.000000
-11,3,62,1625340509.0,32.000000
-10,3,62,1625340509.0,32.000000
-9,3,62,1625340509.0,32.000000
-10,2,62,1625340509.0,32.000000
-11,3,62,1625340509.0,32.000000
-11,2,62,1625340509.0,32.000000
-11,3,62,1625340509.0,32.000000
-11,3,62,1625340509.0,32.000000
-10,3,62,1625340509.0,32.000000
-11,3,62,1625340509.0,32.000000
-11,3,62,1625340509.0,32.000000
-11,3,62,1625340509.0,32.000000
-11,3,62,1625340509.0,32.000000
-11,3,62,1625340509.0,32.000000
-11,3,62,1625340509.0,32.000000
-11,3,62,1625340509.0,32.000000
-11,3,62,1625340509.0,32.000000
-12,3,62,1625340509.0,32.000000
-11,3,62,1625340509.0,32.000000
-11,3,62,1625340509.0,32.000000
-11,3,62,1625340509.0,32.000000
-12,3,62,1625340509.0,32.000000
-12,3,62,1625340509.0,32.000000
-11,3,62,1625340509.0,32.000000
-11,3,62,1625340509.0,32.000000
-12,3,62,1625340509.0,32.000000
-12,3,62,1625340509.0,32.000000
-12,3,62,1625340509.0,32.000000
-13,3,62,1625340509.0,32.000000
-12,4,62,1625340509.0,32.000000
-11,4,62,1625340509.0,32.000000
-11,4,62,1625340509.0,32.000000
-12,4,62,1625340509.0,32.000000
-12,4,62,1625340509.0,32.000000
-12,4,62,1625340509.0,32.000000
-12,4,62,1625340509.0,32.000000
-12,4,62,1625340509.0,32.000000
-12,4,62,1625340509.0,32.000000
-12,4,62,1625340509.0,32.000000
-12,4,61,1625340509.0,32.000000
-12,4,62,1625340509.0,32.000000
-12,4,62,1625340509.0,32.000000
-14,4,62,1625340509.0,32.000000
-16,5,69,1625340509.0,32.000000
-14,4,70,1625340509.0,32.000000
-7,4,51,1625340509.0,32.000000
1,5,43,1625340509.0,32.000000
1,2,66,1625340509.0,32.000000
-17,2,75,1625340509.0,32.000000
-25,-2,70,1625340509.0,32.000000
-9,1,62,1625340509.0,32.000000
-15,3,60,1625340509.0,32.000000
-13,4,58,1625340509.0,32.000000
-11,2,61,1625340509.0,32.000000
-13,3,61,1625340509.0,32.000000
-12,3,62,1625340509.0,32.000000
-13,5,62,1625340509.0,32.000000
-12,4,62,1625340509.0,32.000000
-12,2,62,1625340509.0,32.000000
-12,2,62,1625340509.0,32.000000
-11,3,62,1625340509.0,32.000000
-11,3,62,1625340509.0,32.000000
-12,4,61,1625340509.0,32.000000
-12,3,62,1625340509.0,32.000000
-12,3,62,1625340509.0,32.000000
-12,3,62,1625340509.0,32.000000
-11,3,62,1625340509.0,32.000000
-12,4,62,1625340509.0,32.000000
-12,3,62,1625340509.0,32.000000
-12,3,62,1625340509.0,32.000000
-12,3,62,1625340509.0,32.000000
-10,3,62,1625340509.0,32.000000
-11,3,62,1625340509.0,32.000000
-11,3,62,1625340509.0,32.000000
-11,3,62,1625340509.0,32.000000
-11,3,62,1625340509.0,32.000000
-11,3,62,1625340509.0,32.000000
-11,3,62,1625340509.0,32.000000
-11,3,62,1625340509.0,32.000000
-11,3,62,1625340509.0,32.000000
-11,3,62,1625340509.0,32.000000
-12,3,62,1625340509.0,32.000000
-11,3,62,1625340509.0,32.000000
-11,3,62,1625340509.0,32.000000
-11,3,62,1625340509.0,32.000000
-11,3,62,1625340509.0,32.000000
-11,3,62,1625340509.0,32.000000
-11,3,62,1625340509.0,32.000000
-11,3,62,1625340509.0,32.000000
-11,3,63,1625340509.0,32.000000
-11,3,62,1625340509.0,32.000000
-11,3,62,1625340509.0,32.000000
-11,3,62,1625340509.0,32.000000
-11,3,62,1625340509.0,32.000000
-11,3,62,1625340509.0,32.000000
-11,3,62,1625340509.0,32.000000
-11,3,62,1625340509.0,32.000000
-11,3,62,1625340509.0,32.000000
-11,3,62,1625340509.0,32.000000
-11,3,62,1625340509.0,32.000000
-11,4,62,1625340509.0,32.000000
-11,3,62,1625340509.0,32.000000
-11,3,63,1625340509.0,32.000000
-10,4,62,1625340509.0,32.000000
-10,3,62,1625340509.0,32.000000
-11,4,62,1625340509.0,32.000000
-12,3,62,1625340509.0,32.000000
-13,3,62,1625340509.0,32.000000
-18,2,63,1625340509.0,32.000000
-8,4,62,1625340509.0,32.000000
-12,2,67,1625340509.0,32.000000
-11,2,78,1625340509.0,32.000000
-13,7,51,1625340509.0,32.000000
-5,-3,52,1625340509.0,32.000000
-8,-4,61,1625340509.0,32.000000
-4,2,59,1625340509.0,32.000000
-5,3,62,1625340509.0,32.000000
-12,3,68,1625340509.0,32.000000
-12,3,61,1625340509.0,32.000000
-12,5,63,1625340509.0,32.000000
-9,2,63,1625340509.0,32.000000
-7,2,63,1625340509.0,32.000000
-8,2,63,1625340509.0,32.000000
-9,4,63,1625340509.0,32.000000
-10,4,62,1625340509.0,32.000000
-11,4,62,1625340509.0,32.000000
-10,3,63,1625340509.0,32.000000
-10,3,62,1625340509.0,32.000000
-10,3,62,1625340509.0,32.000000
-10,3,62,1625340509.0,32.000000
-11,3,63,1625340509.0,32.000000
-11,3,62,1625340509.0,32.000000
-11,3,62,1625340509.0,32.000000
-11,3,62,1625340509.0,32.000000
-10,3,62,1625340509.0,32.000000
-10,3,62,1625340509.0,32.000000
-11,3,63,1625340509.0,32.000000
-11,3,63,1625340509.0,32.000000
-11,3,62,1625340509.0,32.000000
-10,3,62,1625340509.0,32.000000
-10,3,62,1625340509.0,32.000000
-12,3,63,1625340509.0,32.000000
-12,3,63,1625340509.0,32.000000
-11,1,63,1625340509.0,32.000000
-16,3,61,1625340509.0,32.000000
-16,5,74,1625340509.0,32.000000
-8,7,54,1625340509.0,32.000000
-3,3,52,1625340509.0,32.000000
-7,2,52,1625340509.0,32.000000
-9,2,65,1625340509.0,32.000000
-8,4,61,1625340509.0,32.000000
-12,0,68,1625340509.0,32.000000
-7,3,62,1625340509.0,32.000000
-10,3,64,1625340509.0,32.000000
-7,1,74,1625340509.0,32.000000
-10,0,63,1625340509.0,32.000000
-2,4,46,1625340509.0,32.000000
2,1,69,1625340509.0,32.000000
-3,5,64,1625340509.0,32.000000
-11,1,69,1625340509.0,32.000000
-8,2,66,1625340509.0,32.000000
-7,3,62,1625340509.0,32.000000
-11,2,62,1625340509.0,32.000000
-10,3,61,1625340509.0,32.000000
-7,4,62,1625340509.0,32.000000
-7,3,63,1625340509.0,32.000000
-7,3,63,1625340509.0,32.000000
-9,4,62,1625340509.0,32.000000
-8,3,63,1625340509.0,32.000000
-9,3,63,1625340509.0,32.000000
-9,3,63,1625340509.0,32.000000
-9,4,62,1625340509.0,32.000000
-9,3,63,1625340509.0,32.000000
-9,4,62,1625340509.0,32.000000
-9,3,63,1625340509.0,32.000000
-10,3,63,1625340509.0,32.000000
-11,3,63,1625340509.0,32.000000
-12,3,62,1625340509.0,32.000000
-12,3,62,1625340509.0,32.000000
-12,4,62,1625340509.0,32.000000
-14,3,62,1625340509.0,32.000000
-14,3,61,1625340509.0,32.000000
-19,4,65,1625340509.0,32.000000
-12,3,65,1625340509.0,32.000000
-14,2,59,1625340509.0,32.000000
-12,3,55,1625340509.0,32.000000
-8,4,51,1625340509.0,32.000000
-3,4,63,1625340509.0,32.000000
-9,1,70,1625340509.0,32.000000
-14,0,67,1625340509.0,32.000000
-15,2,64,1625340509.0,32.000000
-16,3,63,1625340509.0,32.000000
-11,4,60,1625340509.0,32.000000
-8,4,60,1625340509.0,32.000000
-8,4,61,1625340509.0,32.000000
-11,4,62,1625340509.0,32.000000
-14,3,62,1625340509.0,32.000000
-14,3,62,1625340509.0,32.000000
-14,3,61,1625340509.0,32.000000
-15,2,62,1625340509.0,32.000000
-13,3,62,1625340509.0,32.000000
-12,4,61,1625340509.0,32.000000
-13,4,62,1625340509.0,32.000000
-13,4,62,1625340509.0,32.000000
-14,3,62,1625340509.0,32.000000
-14,3,62,1625340509.0,32.000000
-12,3,62,1625340509.0,32.000000
-12,4,62,1625340509.0,32.000000
-12,4,62,1625340509.0,32.000000
-12,4,62,1625340509.0,32.000000
-12,4,62,1625340509.0,32.000000
-12,4,62,1625340509.0,32.000000
-12,4,62,1625340509.0,32.000000
-13,3,62,1625340509.0,32.000000
-13,3,62,1625340509.0,32.000000
-12,4,62,1625340509.0,32.000000
-12,4,62,1625340509.0,32.000000
-11,4,62,1625340509.0,32.000000
-12,4,62,1625340509.0,32.000000
-12,4,62,1625340509.0,32.000000
-11,4,62,1625340509.0,32.000000
-12,4,62,1625340509.0,32.000000
-12,4,62,1625340509.0,32.000000
-12,4,62,1625340509.0,32.000000
-12,4,62,1625340509.0,32.000000
-12,4,62,1625340509.0,32.000000
-12,4,62,1625340509.0,32.000000
-12,4,62,1625340509.0,32.000000
-12,4,62,1625340509.0,32.000000
-12,4,62,1625340509.0,32.000000
-11,4,62,1625340509.0,32.000000
-12,4,62,1625340509.0,32.000000
-12,4,62,1625340509.0,32.000000
-12,4,62,1625340509.0,32.000000
-12,4,62,1625340509.0,32.000000
-12,4,62,1625340509.0,32.000000
-12,4,62,1625340509.0,32.000000
-12,4,62,1625340509.0,32.000000
-12,4,62,1625340509.0,32.000000
-12,4,62,1625340509.0,32.000000
-11,4,62,1625340509.0,32.000000
-11,4,62,1625340509.0,32.000000
-12,4,62,1625340509.0,32.000000
-12,5,62,1625340509.0,32.000000
-12,4,62,1625340509.0,32.000000
-12,4,62,1625340509.0,32.000000
-13,4,62,1625340509.0,32.000000
-19,4,68,1625340509.0,32.000000
-14,6,64,1625340509.0,32.000000
-6,3,58,1625340509.0,32.000000
-1,6,46,1625340509.0,32.000000
-4,3,54,1625340509.0,32.000000
-13,5,65,1625340509.0,32.000000
-19,0,70,1625340509.0,32.000000
-17,2,63,1625340509.0,32.000000
-13,2,61,1625340509.0,32.000000
-12,2,61,1625340509.0,32.000000
-11,4,61,1625340509.0,32.000000
-10,3,61,1625340509.0,32.000000
-11,4,62,1625340509.0,32.000000
-11,5,62,1625340509.0,32.000000
-12,5,62,1625340509.0,32.000000
-12,4,62,1625340509.0,32.000000
-12,3,62,1625340509.0,32.000000
-12,3,62,1625340509.0,32.000000
-13,4,62,1625340509.0,32.000000
-12,4,62,1625340509.0,32.000000
-12,4,62,1625340509.0,32.000000
-13,4,61,1625340509.0,32.000000
-12,3,62,1625340509.0,32.000000
-13,4,62,1625340509.0,32.000000
-12,4,62,1625340509.0,32.000000
-12,4,62,1625340509.0,32.000000
-13,4,62,1625340509.0,32.000000
-13,4,62,1625340509.0,32.000000
-13,4,62,1625340509.0,32.000000
-12,4,62,1625340509.0,32.000000
-12,4,62,1625340509.0,32.000000
-12,4,62,1625340509.0,32.000000
-12,4,62,1625340509.0,32.000000
-12,4,62,1625340509.0,32.000000
-12,4,62,1625340509.0,32.000000
-13,4,62,1625340509.0,32.000000
-13,4,61,1625340509.0,32.000000
-13,4,62,1625340509.0,32.000000
-13,4,61,1625340509.0,32.000000
-13,4,62,1625340509.0,32.000000
-13,4,62,1625340509.0,32.000000
-12,4,62,1625340509.0,32.000000
-12,4,62,1625340509.0,32.000000
-13,4,62,1625340509.0,32.000000
-13,4,62,1625340509.0,32.000000
-13,4,62,1625340509.0,32.000000
-13,4,62,1625340509.0,32.000000
-13,4,62,1625340509.0,32.000000
-13,4,62,1625340509.0,32.000000
-13,4,62,1625340509.0,32.000000
-13,4,62,1625340509.0,32.000000
-14,4,63,1625340509.0,32.000000
-11,4,61,1625340509.0,32.000000
-12,5,61,1625340509.0,32.000000
-25,4,64,1625340509.0,32.000000
-9,3,67,1625340509.0,32.000000
-6,3,59,1625340509.0,32.000000
-4,5,50,1625340509.0,32.000000
-6,2,67,1625340509.0,32.000000
-8,4,63,1625340509.0,32.000000
-15,3,65,1625340509.0,32.000000
-17,2,65,1625340509.0,32.000000
-15,3,62,1625340509.0,32.000000
-12,2,63,1625340509.0,32.000000
-12,2,62,1625340509.0,32.000000
-10,4,61,1625340509.0,32.000000
-10,4,62,1625340509.0,32.000000
-11,5,62,1625340509.0,32.000000
-13,4,62,1625340509.0,32.000000
-13,4,62,1625340509.0,32.000000
-12,3,63,1625340509.0,32.000000
-12,3,62,1625340509.0,32.000000
-12,3,62,1625340509.0,32.000000
-12,4,62,1625340509.0,32.000000
-12,4,62,1625340509.0,32.000000
-13,3,62,1625340509.0,32.000000
-13,3,62,1625340509.0,32.000000
-13,3,62,1625340509.0,32.000000
-13,3,61,1625340509.0,32.000000
-13,3,62,1625340509.0,32.000000
-13,4,62,1625340509.0,32.000000
-13,3,62,1625340509.0,32.000000
-12,4,61,1625340509.0,32.000000
-13,3,62,1625340509.0,32.000000
-12,4,62,1625340509.0,32.000000
-13,4,62,1625340509.0,32.000000
-13,4,62,1625340509.0,32.000000
-13,3,62,1625340509.0,32.000000
-13,4,62,1625340509.0,32.000000
-12,4,62,1625340509.0,32.000000
-13,4,62,1625340509.0,32.000000
-12,4,61,1625340509.0,32.000000
-12,4,62,1625340509.0,32.000000
-13,4,62,1625340509.0,32.000000
-13,3,62,1625340509.0,32.000000
-13,4,62,1625340509.0,32.000000
-12,4,62,1625340509.0,32.000000
-12,4,61,1625340509.0,32.000000
-13,4,62,1625340509.0,32.000000
-12,4,62,1625340509.0,32.000000
-13,4,62,1625340509.0,32.000000
-13,4,62,1625340509.0,32.000000
-12,4,62,1625340509.0,32.000000
-12,4,62,1625340509.0,32.000000
-13,4,62,1625340509.0,32.000000
-13,3,62,1625340509.0,32.000000
-13,3,62,1625340509.0,32.000000
-13,4,62,1625340509.0,32.000000
-12,4,62,1625340509.0,32.000000
-12,4,62,1625340509.0,32.000000
-12,4,62,1625340509.0,32.000000
-13,4,62,1625340509.0,32.000000
-13,4,62,1625340509.0,32.000000
-13,4,62,1625340509.0,32.000000
-21,5,64,1625340509.0,32.000000
-13,4,67,1625340509.0,32.000000
-6,2,59,1625340509.0,32.000000
-2,3,43,1625340509.0,32.000000
-5,1,58,1625340509.0,32.000000
-12,5,64,1625340509.0,32.000000
-18,0,68,1625340509.0,32.000000
-11,1,63,1625340509.0,32.000000
-9,2,63,1625340509.0,32.000000
-13,3,60,1625340509.0,32.000000
-13,4,61,1625340509.0,32.000000
-11,3,61,1625340509.0,32.000000
-10,3,62,1625340509.0,32.000000
-11,4,62,1625340509.0,32.000000
-11,3,62,1625340509.0,32.000000
-11,3,62,1625340509.0,32.000000
-11,3,62,1625340509.0,32.000000
-12,3,62,1625340509.0,32.000000
-11,3,62,1625340509.0,32.000000
-10,3,62,1625340509.0,32.000000
-11,3,62,1625340509.0,32.000000
-11,3,62,1625340509.0,32.000000
-12,3,62,1625340509.0,32.000000
-12,3,62,1625340509.0,32.000000
-13,3,62,1625340509.0,32.000000
-12,3,62,1625340509.0,32.000000
-11,3,62,1625340509.0,32.000000
-11,3,62,1625340509.0,32.000000
-11,4,62,1625340509.0,32.000000
-11,3,62,1625340509.0,32.000000
-12,3,62,1625340509.0,32.000000
-12,3,62,1625340509.0,32.000000
-12,3,62,1625340509.0,32.000000
-11,3,62,1625340509.0,32.000000
-12,3,62,1625340509.0,32.000000
-11,3,62,1625340509.0,32.000000
-12,3,62,1625340509.0,32.000000
-11,3,62,1625340509.0,32.000000
-12,3,62,1625340509.0,32.000000
-12,3,62,1625340509.0,32.000000
-12,3,62,1625340509.0,32.000000
-11,3,62,1625340509.0,32.000000
-11,4,62,1625340509.0,32.000000
-11,3,62,1625340509.0,32.000000
-11,3,62,1625340509.0,32.000000
-11,3,62,1625340509.0,32.000000
-12,3,62,1625340509.0,32.000000
-11,3,62,1625340509.0,32.000000
-12,3,62,1625340509.0,32.000000
-11,3,62,1625340509.0,32.000000
-12,3,62,1625340509.0,32.000000
-11,3,62,1625340509.0,32.000000
-12,3,62,1625340509.0,32.000000
-12,3,62,1625340509.0,32.000000
-11,3,62,1625340509.0,32.000000
-12,3,62,1625340509.0,32.000000
-12,3,62,1625340509.0,32.000000
-12,3,62,1625340509.0,32.000000
-11,3,62,1625340509.0,32.000000
-12,4,62,1625340509.0,32.000000
-15,3,62,1625340509.0,32.000000
-21,3,65,1625340509.0,32.000000
-12,3,70,1625340509.0,32.000000
-6,5,49,1625340509.0,32.000000
0,5,40,1625340509.0,32.000000
-1,1,69,1625340509.0,32.000000
-10,5,63,1625340509.0,32.000000
-22,0,67,1625340509.0,32.000000
-12,1,61,1625340509.0,32.000000
-11,0,64,1625340509.0,32.000000
-11,3,60,1625340509.0,32.000000
-11,2,61,1625340509.0,32.000000
-13,3,61,1625340509.0,32.000000
-12,3,62,1625340509.0,32.000000
-13,3,62,1625340509.0,32.000000
-12,3,62,1625340509.0,32.000000
-12,2,62,1625340509.0,32.000000
-11,2,62,1625340509.0,32.000000
-11,3,62,1625340509.0,32.000000
-11,3,62,1625340509.0,32.000000
-12,3,62,1625340509.0,32.000000
-12,3,62,1625340509.0,32.000000
-12,3,62,1625340509.0,32.000000
-13,3,62,1625340509.0,32.000000
-13,3,62,1625340509.0,32.000000
-12,3,62,1625340509.0,32.000000
-12,3,62,1625340509.0,32.000000
-12,3,62,1625340509.0,32.000000
-12,3,62,1625340509.0,32.000000
-11,3,62,1625340509.0,32.000000
-12,3,62,1625340509.0,32.000000
-12,3,62,1625340509.0,32.000000
-13,3,62,1625340509.0,32.000000
-12,3,62,1625340509.0,32.000000
-11,3,62,1625340509.0,32.000000
-11,3,62,1625340509.0,32.000000
-12,3,62,1625340509.0,32.000000
-12,3,62,1625340509.0,32.000000
-12,3,62,1625340509.0,32.000000
-12,3,62,1625340509.0,32.000000
-13,3,62,1625340509.0,32.000000
-12,3,62,1625340509.0,32.000000
-12,3,62,1625340509.0,32.000000
-12,3,62,1625340509.0,32.000000
-12,3,62,1625340509.0,32.000000
-12,3,62,1625340509.0,32.000000
-12,3,62,1625340509.0,32.000000
-12,3,62,1625340509.0,32.000000
-12,3,62,1625340509.0,32.000000
-12,3,62,1625340509.0,32.000000
-12,3,62,1625340509.0,32.000000
-12,3,62,1625340509.0,32.000000
-12,3,62,1625340509.0,32.000000
-12,3,62,1625340509.0,32.000000
-12,3,62,1625340509.0,32.000000
-12,3,62,1625340509.0,32.000000
-12,3,62,1625340509.0,32.000000
-12,3,62,1625340509.0,32.000000
-12,3,62,1625340509.0,32.000000
-12,3,62,1625340509.0,32.000000
-12,3,62,1625340509.0,32.000000
-12,3,62,1625340509.0,32.000000
-12,3,62,1625340509.0,32.000000
-12,3,62,1625340509.0,32.000000
-12,3,62,1625340509.0,32.000000
-12,3,62,1625340509.0,32.000000
-12,3,62,1625340509.0,32.000000
-12,3,62,1625340509.0,32.000000
-12,3,62,1625340509.0,32.000000
-12,3,62,1625340509.0,32.000000
-12,3,62,1625340509.0,32.000000
-12,3,62,1625340509.0,32.000000
-12,3,62,1625340509.0,32.000000
-12,3,62,1625340509.0,32.000000
-12,3,62,1625340509.0,32.000000
-12,3,62,1625340509.0,32.000000
-12,3,62,1625340509.0,32.000000
-12,3,62,1625340509.0,32.000000
-12,3,62,1625340509.0,32.000000
-12,3,62,1625340509.0,32.000000
-12,3,62,1625340509.0,32.000000
-12,3,62,1625340509.0,32.000000
-13,3,62,1625340509.0,32.000000
-13,4,62,1625340509.0,32.000000
-13,3,62,1625340509.0,32.000000
-13,3,62,1625340509.0,32.000000
-13,3,62,1625340509.0,32.000000
-13,3,62,1625340509.0,32.000000
-13,3,62,1625340509.0,32.000000
-13,3,62,1625340509.0,32.000000
-13,4,62,1625340509.0,32.000000
-12,3,62,1625340509.0,32.000000
-12,3,62,1625340509.0,32.000000
-13,3,62,1625340509.0,32.000000
-12,3,62,1625340509.0,32.000000
-13,4,62,1625340509.0,32.000000
-12,3,62,1625340509.0,32.000000
-12,3,62,1625340509.0,32.000000
-12,3,62,1625340509.0,32.000000
-12,4,62,1625340509.0,32.000000
-12,4,62,1625340509.0,32.000000
-12,4,62,1625340509.0,32.000000
-13,4,62,1625340509.0,32.000000
-12,4,62,1625340509.0,32.000000
-12,4,62,1625340509.0,32.000000
-13,4,62,1625340509.0,32.000000
-13,4,62,1625340509.0,32.000000
-13,4,62,1625340509.0,32.000000
-13,4,62,1625340509.0,32.000000
-13,4,62,1625340509.0,32.000000
-13,4,62,1625340509.0,32.000000
-13,4,62,1625340509.0,32.000000
-13,4,62,1625340509.0,32.000000
-13,4,62,1625340509.0,32.000000
-12,4,62,1625340509.0,32.000000
-12,4,62,1625340509.0,32.000000
-13,4,61,1625340509.0,32.000000
-13,4,62,1625340509.0,32.000000
-13,4,62,1625340509.0,32.000000
-13,4,62,1625340509.0,32.000000
-13,4,62,1625340509.0,32.000000
-13,4,62,1625340509.0,32.000000
-13,4,62,1625340509.0,32.000000
-13,4,62,1625340509.0,32.000000
-12,4,62,1625340509.0,32.000000
-12,4,62,1625340509.0,32.000000
-13,4,62,1625340509.0,32.000000
-13,4,62,1625340509.0,32.000000
-13,4,62,1625340509.0,32.000000
-13,4,62,1625340509.0,32.000000
-13,4,62,1625340509.0,32.000000
-13,4,61,1625340509.0,32.000000
-13,4,62,1625340509.0,32.000000
-12,4,62,1625340509.0,32.000000
-13,4,62,1625340509.0,32.000000
-13,5,62,1625340509.0,32.000000
-12,5,62,1625340509.0,32.000000
-13,4,62,1625340509.0,32.000000
-13,4,62,1625340509.0,32.000000
-13,4,62,1625340509.0,32.000000
-14,4,62,1625340509.0,32.000000
-13,4,62,1625340509.0,32.000000
-13,4,62,1625340509.0,32.000000
-13,4,62,1625340509.0,32.000000
-13,4,62,1625340509.0,32.000000
-13,4,61,1625340509.0,32.000000
-13,4,62,1625340509.0,32.000000
-13,4,62,1625340509.0,32.000000
-13,4,61,1625340509.0,32.000000
-13,5,62,1625340509.0,32.000000
-13,4,62,1625340509.0,32.000000
-13,4,62,1625340509.0,32.000000
-13,4,61,1625340509.0,32.000000
-13,4,62,1625340509.0,32.000000
-13,4,62,1625340509.0,32.000000
-13,5,62,1625340509.0,32.000000
-13,4,62,1625340509.0,32.000000
-13,4,62,1625340509.0,32.000000
-13,4,62,1625340509.0,32.000000
-13,4,62,1625340509.0,32.000000
-13,4,62,1625340509.0,32.000000
-13,4,62,1625340509.0,32.000000
-13,4,62,1625340509.0,32.000000
-13,4,62,1625340509.0,32.000000
-13,4,62,1625340509.0,32.000000
-13,4,62,1625340509.0,32.000000
-14,5,61,1625340509.0,32.000000
-15,5,61,1625340509.0,32.000000
-14,5,61,1625340509.0,32.000000
-14,4,62,1625340509.0,32.000000
-15,4,61,1625340509.0,32.000000
-15,4,61,1625340509.0,32.000000
-14,4,61,1625340509.0,32.000000
-14,4,61,1625340509.0,32.000000
-14,4,61,1625340509.0,32.000000
-14,4,61,1625340509.0,32.000000
-15,4,61,1625340509.0,32.000000
-15,4,61,1625340509.0,32.000000
-14,4,61,1625340509.0,32.000000
-14,4,61,1625340509.0,32.000000
-14,4,61,1625340509.0,32.000000
-15,4,62,1625340509.0,32.000000
-14,4,61,1625340509.0,32.000000
-14,4,61,1625340509.0,32.000000
-15,4,61,1625340509.0,32.000000
-15,4,61,1625340509.0,32.000000
-14,4,61,1625340509.0,32.000000
-15,4,61,1625340509.0,32.000000
-14,4,61,1625340509.0,32.000000
-15,4,62,1625340509.0,32.000000
-14,4,61,1625340509.0,32.000000
-14,5,62,1625340509.0,32.000000
-14,5,61,1625340509.0,32.000000
-15,4,61,1625340509.0,32.000000
-15,4,62,1625340509.0,32.000000
-15,4,61,1625340509.0,32.000000
-15,4,62,1625340509.0,32.000000
-15,4,61,1625340509.0,32.000000
-15,4,61,1625340509.0,32.000000
-14,4,61,1625340509.0,32.000000
-15,4,61,1625340509.0,32.000000
-14,4,61,1625340509.0,32.000000
-14,4,61,1625340509.0,32.000000
-15,4,62,1625340509.0,32.000000
-15,4,61,1625340509.0,32.000000
-15,4,61,1625340509.0,32.000000
-15,3,61,1625340509.0,32.000000
-15,4,61,1625340509.0,32.000000
-15,4,62,1625340509.0,32.000000
-15,4,61,1625340509.0,32.000000
-15,4,62,1625340509.0,32.000000
-15,4,61,1625340509.0,32.000000
-14,4,61,1625340509.0,32.000000
-15,4,61,1625340509.0,32.000000
-14,4,61,1625340509.0,32.000000
-15,4,61,1625340509.0,32.000000
-15,4,61,1625340509.0,32.000000
-15,4,61,1625340509.0,32.000000
-15,4,61,1625340509.0,32.000000
-15,4,61,1625340509.0,32.000000
-15,4,61,1625340509.0,32.000000
-15,4,61,1625340509.0,32.000000
-15,4,61,1625340509.0,32.000000
-15,4,61,1625340509.0,32.000000
-15,4,61,1625340509.0,32.000000
-15,4,61,1625340509.0,32.000000
-15,4,61,1625340509.0,32.000000
-15,4,61,1625340509.0,32.000000
-15,4,62,1625340509.0,32.000000
-15,4,61,1625340509.0,32.000000
-15,4,61,1625340509.0,32.000000
-15,4,61,1625340509.0,32.000000
-15,4,61,1625340509.0,32.000000
-15,4,62,1625340509.0,32.000000
-15,4,61,1625340509.0,32.000000
-15,4,61,1625340509.0,32.000000
-14,4,61,1625340509.0,32.000000
-15,4,61,1625340509.0,32.000000
-15,4,61,1625340509.0,32.000000
-15,4,61,1625340509.0,32.000000
-15,4,61,1625340509.0,32.000000
-15,4,61,1625340509.0,32.000000
-15,4,61,1625340509.0,32.000000
-15,4,61,1625340509.0,32.000000
-15,4,61,1625340509.0,32.000000
-14,4,62,1625340509.0,32.000000
-14,4,61,1625340509.0,32.000000
-15,4,61,1625340509.0,32.000000
-15,4,62,1625340509.0,32.000000
-15,4,61,1625340509.0,32.000000
-14,4,61,1625340509.0,32.000000
-14,4,62,1625340509.0,32.000000
-15,4,61,1625340509.0,32.000000
-15,4,61,1625340509.0,32.000000
-15,4,61,1625340509.0,32.000000
-15,4,62,1625340509.0,32.000000
-15,4,61,1625340509.0,32.000000
-14,4,62,1625340509.0,32.000000
-15,4,61,1625340509.0,32.000000
-15,4,61,1625340509.0,32.000000
-15,4,61,1625340509.0,32.000000
-14,4,61,1625340509.0,32.000000
-15,4,61,1625340509.0,32.000000
-15,4,61,1625340509.0,32.000000
-15,4,61,1625340509.0,32.000000
-15,4,61,1625340509.0,32.000000
-14,4,61,1625340509.0,32.000000
-15,4,61,1625340509.0,32.000000
-15,4,61,1625340509.0,32.000000
-15,4,62,1625340509.0,32.000000
-15,4,61,1625340509.0,32.000000
-15,4,61,1625340509.0,32.000000
-14,4,61,1625340509.0,32.000000
-15,4,61,1625340509.0,32.000000
-15,4,61,1625340509.0,32.000000
-15,4,62,1625340509.0,32.000000
-14,4,61,1625340509.0,32.000000
-14,4,61,1625340509.0,32.000000
-15,4,61,1625340509.0,32.000000
-14,4,61,1625340509.0,32.000000
-15,4,61,1625340509.0,32.000000
-15,4,61,1625340509.0,32.000000
-14,4,62,1625340509.0,32.000000
-15,4,61,1625340509.0,32.000000
-14,4,62,1625340509.0,32.000000
-14,4,61,1625340509.0,32.000000
-14,4,61,1625340509.0,32.000000
-15,4,61,1625340509.0,32.000000
-14,4,61,1625340509.0,32.000000
-14,4,62,1625340509.0,32.000000
-15,4,61,1625340509.0,32.000000
-14,4,61,1625340509.0,32.000000
-14,4,61,1625340509.0,32.000000
-15,4,61,1625340509.0,32.000000
-15,4,61,1625340509.0,32.000000
-15,4,62,1625340509.0,32.000000
-14,4,61,1625340509.0,32.000000
-14,4,61,1625340509.0,32.000000
-14,4,62,1625340509.0,32.000000
-14,4,62,1625340509.0,32.000000
-14,4,61,1625340509.0,32.000000
-14,4,61,1625340509.0,32.000000
-14,4,61,1625340509.0,32.000000
-14,4,61,1625340509.0,32.000000
-15,4,62,1625340509.0,32.000000
-15,4,61,1625340509.0,32.000000
-15,4,62,1625340509.0,32.000000
-14,4,61,1625340509.0,32.000000
-15,4,61,1625340509.0,32.000000
-14,4,62,1625340509.0,32.000000
-14,4,61,1625340509.0,32.000000
-15,4,61,1625340509.0,32.000000
-14,4,61,1625340509.0,32.000000
-14,4,61,1625340509.0,32.000000
-15,4,61,1625340509.0,32.000000
-15,4,61,1625340509.0,32.000000
-14,4,61,1625340509.0,32.000000
-14,4,61,1625340509.0,32.000000
-14,4,62,1625340509.0,32.000000
-15,4,61,1625340509.0,32.000000
-14,4,61,1625340509.0,32.000000
-14,4,61,1625340509.0,32.000000
-14,4,61,1625340509.0,32.000000
-15,4,61,1625340509.0,32.000000
-15,4,62,1625340509.0,32.000000
-14,4,62,1625340509.0,32.000000
