ACC_X,ACC_Y,ACC_Z,start_time_unix,sampling_rate
-39,-3,51,1634891694.0,32.000000
-40,-2,50,1634891694.0,32.000000
-40,-3,50,1634891694.0,32.000000
-39,-3,50,1634891694.0,32.000000
-39,-3,50,1634891694.0,32.000000
-39,-3,51,1634891694.0,32.000000
-39,-2,51,1634891694.0,32.000000
-40,-3,50,1634891694.0,32.000000
-39,-3,50,1634891694.0,32.000000
-39,-3,50,1634891694.0,32.000000
-39,-3,50,1634891694.0,32.000000
-40,-3,50,1634891694.0,32.000000
-40,-3,50,1634891694.0,32.000000
-40,-3,50,1634891694.0,32.000000
-39,-3,50,1634891694.0,32.000000
-40,-3,50,1634891694.0,32.000000
-40,-3,50,1634891694.0,32.000000
-39,-3,50,1634891694.0,32.000000
-39,-3,50,1634891694.0,32.000000
-39,-3,50,1634891694.0,32.000000
-40,-3,50,1634891694.0,32.000000
-40,-3,50,1634891694.0,32.000000
-39,-3,50,1634891694.0,32.000000
-39,-4,50,1634891694.0,32.000000
-39,-3,50,1634891694.0,32.000000
-39,-4,51,1634891694.0,32.000000
-40,-3,50,1634891694.0,32.000000
-40,-4,50,1634891694.0,32.000000
-43,-2,50,1634891694.0,32.000000
-42,-3,49,1634891694.0,32.000000
-41,-3,49,1634891694.0,32.000000
-41,-3,50,1634891694.0,32.000000
-40,-3,50,1634891694.0,32.000000
-40,-3,50,1634891694.0,32.000000
-40,-3,50,1634891694.0,32.000000
-40,-3,50,1634891694.0,32.000000
-40,-3,50,1634891694.0,32.000000
-40,-3,50,1634891694.0,32.000000
-39,-4,50,1634891694.0,32.000000
-37,-2,52,1634891694.0,32.000000
-40,-3,50,1634891694.0,32.000000
-41,-4,49,1634891694.0,32.000000
-40,-3,49,1634891694.0,32.000000
-40,-3,50,1634891694.0,32.000000
-41,-3,49,1634891694.0,32.000000
-41,-3,49,1634891694.0,32.000000
-40,-3,51,1634891694.0,32.000000
-41,-3,48,1634891694.0,32.000000
-43,-3,47,1634891694.0,32.000000
-44,-3,47,1634891694.0,32.000000
-42,-3,48,1634891694.0,32.000000
-38,-2,50,1634891694.0,32.000000
-44,-3,47,1634891694.0,32.000000
-41,-3,48,1634891694.0,32.000000
-42,-3,46,1634891694.0,32.000000
-47,-3,44,1634891694.0,32.000000
-52,-3,45,1634891694.0,32.000000
-42,-3,44,1634891694.0,32.000000
-38,-1,51,1634891694.0,32.000000
-43,-2,48,1634891694.0,32.000000
-44,-2,46,1634891694.0,32.000000
-47,-2,46,1634891694.0,32.000000
-45,-2,47,1634891694.0,32.000000
-42,-2,48,1634891694.0,32.000000
-42,-2,49,1634891694.0,32.000000
-42,-2,49,1634891694.0,32.000000
-41,-3,48,1634891694.0,32.000000
-42,-3,49,1634891694.0,32.000000
-39,-2,50,1634891694.0,32.000000
-39,-2,50,1634891694.0,32.000000
-39,-2,51,1634891694.0,32.000000
-40,-2,50,1634891694.0,32.000000
-38,-2,51,1634891694.0,32.000000
-38,-2,51,1634891694.0,32.000000
-38,-2,51,1634891694.0,32.000000
-39,-2,51,1634891694.0,32.000000
-39,-3,50,1634891694.0,32.000000
-40,-2,50,1634891694.0,32.000000
-40,-2,50,1634891694.0,32.000000
-40,-2,50,1634891694.0,32.000000
-39,-2,50,1634891694.0,32.000000
-39,-2,50,1634891694.0,32.000000
-40,-2,50,1634891694.0,32.000000
-40,-2,50,1634891694.0,32.000000
-40,-3,49,1634891694.0,32.000000
-40,-3,49,1634891694.0,32.000000
-40,-2,50,1634891694.0,32.000000
-40,-2,50,1634891694.0,32.000000
-40,-2,50,1634891694.0,32.000000
-41,-2,50,1634891694.0,32.000000
-40,-2,50,1634891694.0,32.000000
-40,-2,50,1634891694.0,32.000000
-40,-3,50,1634891694.0,32.000000
-41,-2,50,1634891694.0,32.000000
-41,-2,49,1634891694.0,32.000000
-40,-2,50,1634891694.0,32.000000
-40,-2,50,1634891694.0,32.000000
-40,-2,50,1634891694.0,32.000000
-41,-3,49,1634891694.0,32.000000
-40,-3,49,1634891694.0,32.000000
-40,-2,50,1634891694.0,32.000000
-40,-2,50,1634891694.0,32.000000
-40,-2,49,1634891694.0,32.000000
-41,-2,50,1634891694.0,32.000000
-41,-2,49,1634891694.0,32.000000
-41,-2,49,1634891694.0,32.000000
-41,-2,49,1634891694.0,32.000000
-41,-2,49,1634891694.0,32.000000
-41,-2,49,1634891694.0,32.000000
-41,-2,50,1634891694.0,32.000000
-41,-2,50,1634891694.0,32.000000
-40,-2,50,1634891694.0,32.000000
-40,-2,50,1634891694.0,32.000000
-40,-2,50,1634891694.0,32.000000
-40,-2,50,1634891694.0,32.000000
-41,-2,50,1634891694.0,32.000000
-40,-2,50,1634891694.0,32.000000
-40,-2,50,1634891694.0,32.000000
-41,-2,50,1634891694.0,32.000000
-40,-2,50,1634891694.0,32.000000
-40,-2,50,1634891694.0,32.000000
-40,-2,50,1634891694.0,32.000000
-40,-2,49,1634891694.0,32.000000
-40,-2,50,1634891694.0,32.000000
-40,-2,50,1634891694.0,32.000000
-40,-2,50,1634891694.0,32.000000
-41,-2,50,1634891694.0,32.000000
-40,-2,50,1634891694.0,32.000000
-40,-2,50,1634891694.0,32.000000
-40,-2,50,1634891694.0,32.000000
-40,-2,50,1634891694.0,32.000000
-40,-2,50,1634891694.0,32.000000
-40,-2,50,1634891694.0,32.000000
-40,-2,50,1634891694.0,32.000000
-40,-2,50,1634891694.0,32.000000
-41,-2,49,1634891694.0,32.000000
-40,-2,50,1634891694.0,32.000000
-40,-2,50,1634891694.0,32.000000
-41,-2,49,1634891694.0,32.000000
-41,-2,49,1634891694.0,32.000000
-41,-2,49,1634891694.0,32.000000
-41,-2,50,1634891694.0,32.000000
-41,-2,49,1634891694.0,32.000000
-41,-2,50,1634891694.0,32.000000
-41,-2,49,1634891694.0,32.000000
-41,-2,50,1634891694.0,32.000000
-41,-2,49,1634891694.0,32.000000
-41,-2,49,1634891694.0,32.000000
-41,-2,49,1634891694.0,32.000000
-41,-2,50,1634891694.0,32.000000
-41,-2,49,1634891694.0,32.000000
-41,-2,49,1634891694.0,32.000000
-41,-2,49,1634891694.0,32.000000
-41,-2,49,1634891694.0,32.000000
-41,-2,49,1634891694.0,32.000000
-41,-2,49,1634891694.0,32.000000
-41,-2,49,1634891694.0,32.000000
-41,-2,49,1634891694.0,32.000000
-41,-2,49,1634891694.0,32.000000
-41,-2,49,1634891694.0,32.000000
-41,-2,49,1634891694.0,32.000000
-41,-2,49,1634891694.0,32.000000
-41,-2,49,1634891694.0,32.000000
-41,-2,49,1634891694.0,32.000000
-41,-2,49,1634891694.0,32.000000
-41,-2,49,1634891694.0,32.000000
-41,-2,49,1634891694.0,32.000000
-41,-2,49,1634891694.0,32.000000
-41,-2,50,1634891694.0,32.000000
-41,-2,49,1634891694.0,32.000000
-41,-2,49,1634891694.0,32.000000
-41,-2,49,1634891694.0,32.000000
-41,-2,49,1634891694.0,32.000000
-41,-2,49,1634891694.0,32.000000
-42,-2,49,1634891694.0,32.000000
-42,-2,49,1634891694.0,32.000000
-41,-2,49,1634891694.0,32.000000
-41,-2,49,1634891694.0,32.000000
-42,-2,48,1634891694.0,32.000000
-42,-2,49,1634891694.0,32.000000
-41,-2,49,1634891694.0,32.000000
-41,-2,49,1634891694.0,32.000000
-41,-2,50,1634891694.0,32.000000
-41,-2,49,1634891694.0,32.000000
-42,-2,49,1634891694.0,32.000000
-41,-2,49,1634891694.0,32.000000
-43,-2,48,1634891694.0,32.000000
-43,-1,49,1634891694.0,32.000000
-43,-2,49,1634891694.0,32.000000
-43,-2,48,1634891694.0,32.000000
-37,-4,54,1634891694.0,32.000000
-33,-1,60,1634891694.0,32.000000
-15,-5,66,1634891694.0,32.000000
-30,-6,61,1634891694.0,32.000000
-29,-7,61,1634891694.0,32.000000
-26,-5,60,1634891694.0,32.000000
-27,-5,60,1634891694.0,32.000000
-24,-8,57,1634891694.0,32.000000
-22,-7,55,1634891694.0,32.000000
-20,-8,57,1634891694.0,32.000000
-23,-8,56,1634891694.0,32.000000
-24,-8,50,1634891694.0,32.000000
-23,-8,53,1634891694.0,32.000000
-26,-11,58,1634891694.0,32.000000
-25,-11,60,1634891694.0,32.000000
-22,-9,58,1634891694.0,32.000000
-23,-9,58,1634891694.0,32.000000
-19,-9,59,1634891694.0,32.000000
-17,-9,59,1634891694.0,32.000000
-15,-9,60,1634891694.0,32.000000
-17,-9,60,1634891694.0,32.000000
-14,-10,59,1634891694.0,32.000000
-12,-8,61,1634891694.0,32.000000
-15,-7,60,1634891694.0,32.000000
-16,-7,56,1634891694.0,32.000000
-21,-7,61,1634891694.0,32.000000
-23,-7,63,1634891694.0,32.000000
-19,-6,64,1634891694.0,32.000000
-20,-5,63,1634891694.0,32.000000
-14,-5,63,1634891694.0,32.000000
-13,-5,63,1634891694.0,32.000000
-19,-2,65,1634891694.0,32.000000
-23,-2,61,1634891694.0,32.000000
-20,-3,63,1634891694.0,32.000000
-22,-5,58,1634891694.0,32.000000
-10,-4,55,1634891694.0,32.000000
-20,-2,51,1634891694.0,32.000000
-12,-3,55,1634891694.0,32.000000
-16,-2,59,1634891694.0,32.000000
-8,-13,47,1634891694.0,32.000000
0,-9,77,1634891694.0,32.000000
-3,-5,57,1634891694.0,32.000000
6,-2,65,1634891694.0,32.000000
2,-8,53,1634891694.0,32.000000
-1,1,64,1634891694.0,32.000000
4,-2,64,1634891694.0,32.000000
11,1,63,1634891694.0,32.000000
15,1,63,1634891694.0,32.000000
7,4,64,1634891694.0,32.000000
9,4,63,1634891694.0,32.000000
9,2,63,1634891694.0,32.000000
7,1,63,1634891694.0,32.000000
7,2,63,1634891694.0,32.000000
9,2,63,1634891694.0,32.000000
9,2,63,1634891694.0,32.000000
10,2,63,1634891694.0,32.000000
8,2,63,1634891694.0,32.000000
8,2,63,1634891694.0,32.000000
8,2,63,1634891694.0,32.000000
9,2,63,1634891694.0,32.000000
8,2,63,1634891694.0,32.000000
8,2,63,1634891694.0,32.000000
8,2,63,1634891694.0,32.000000
8,2,63,1634891694.0,32.000000
8,2,63,1634891694.0,32.000000
8,1,63,1634891694.0,32.000000
9,1,63,1634891694.0,32.000000
7,1,63,1634891694.0,32.000000
7,1,63,1634891694.0,32.000000
8,1,63,1634891694.0,32.000000
7,1,63,1634891694.0,32.000000
8,1,63,1634891694.0,32.000000
8,1,63,1634891694.0,32.000000
7,1,63,1634891694.0,32.000000
8,1,63,1634891694.0,32.000000
8,1,63,1634891694.0,32.000000
8,1,63,1634891694.0,32.000000
7,1,63,1634891694.0,32.000000
7,1,63,1634891694.0,32.000000
6,1,63,1634891694.0,32.000000
6,1,63,1634891694.0,32.000000
8,1,63,1634891694.0,32.000000
7,1,63,1634891694.0,32.000000
8,1,63,1634891694.0,32.000000
7,1,63,1634891694.0,32.000000
7,1,63,1634891694.0,32.000000
6,1,63,1634891694.0,32.000000
6,1,63,1634891694.0,32.000000
6,1,63,1634891694.0,32.000000
6,1,63,1634891694.0,32.000000
6,1,63,1634891694.0,32.000000
6,1,63,1634891694.0,32.000000
6,1,63,1634891694.0,32.000000
6,1,63,1634891694.0,32.000000
6,1,63,1634891694.0,32.000000
5,1,63,1634891694.0,32.000000
5,0,63,1634891694.0,32.000000
5,1,63,1634891694.0,32.000000
6,1,63,1634891694.0,32.000000
5,1,64,1634891694.0,32.000000
4,0,63,1634891694.0,32.000000
4,0,63,1634891694.0,32.000000
5,1,63,1634891694.0,32.000000
5,0,64,1634891694.0,32.000000
5,0,63,1634891694.0,32.000000
5,0,63,1634891694.0,32.000000
4,0,63,1634891694.0,32.000000
4,0,64,1634891694.0,32.000000
3,0,63,1634891694.0,32.000000
3,0,63,1634891694.0,32.000000
2,0,63,1634891694.0,32.000000
3,0,64,1634891694.0,32.000000
2,0,64,1634891694.0,32.000000
1,0,64,1634891694.0,32.000000
1,0,64,1634891694.0,32.000000
-3,-1,63,1634891694.0,32.000000
-2,-1,64,1634891694.0,32.000000
-6,-3,62,1634891694.0,32.000000
-7,-2,63,1634891694.0,32.000000
-9,-3,63,1634891694.0,32.000000
-9,-2,63,1634891694.0,32.000000
-13,-4,60,1634891694.0,32.000000
-14,-5,61,1634891694.0,32.000000
-15,-3,62,1634891694.0,32.000000
-22,-5,59,1634891694.0,32.000000
-12,-5,59,1634891694.0,32.000000
-12,-6,61,1634891694.0,32.000000
-20,-1,62,1634891694.0,32.000000
-27,-3,58,1634891694.0,32.000000
-22,-2,59,1634891694.0,32.000000
-30,0,60,1634891694.0,32.000000
-26,-2,56,1634891694.0,32.000000
-25,-3,59,1634891694.0,32.000000
-27,-1,58,1634891694.0,32.000000
-25,-2,58,1634891694.0,32.000000
-21,-3,59,1634891694.0,32.000000
-31,-2,56,1634891694.0,32.000000
-28,-2,55,1634891694.0,32.000000
-28,-2,59,1634891694.0,32.000000
-26,-2,58,1634891694.0,32.000000
-26,-2,58,1634891694.0,32.000000
-26,-2,58,1634891694.0,32.000000
-27,-1,58,1634891694.0,32.000000
-26,-2,58,1634891694.0,32.000000
-25,-2,59,1634891694.0,32.000000
-26,-2,58,1634891694.0,32.000000
-24,-2,58,1634891694.0,32.000000
-25,-1,59,1634891694.0,32.000000
-25,-2,59,1634891694.0,32.000000
-25,-1,59,1634891694.0,32.000000
-25,-2,58,1634891694.0,32.000000
-24,-2,59,1634891694.0,32.000000
-24,-1,59,1634891694.0,32.000000
-25,-1,59,1634891694.0,32.000000
-25,-1,58,1634891694.0,32.000000
-25,-1,58,1634891694.0,32.000000
-26,-2,58,1634891694.0,32.000000
-26,-2,57,1634891694.0,32.000000
-27,0,59,1634891694.0,32.000000
-27,-1,59,1634891694.0,32.000000
-28,-1,57,1634891694.0,32.000000
-28,-1,58,1634891694.0,32.000000
-27,0,57,1634891694.0,32.000000
-27,-1,58,1634891694.0,32.000000
-28,0,58,1634891694.0,32.000000
-30,-1,56,1634891694.0,32.000000
-30,-1,56,1634891694.0,32.000000
-31,1,57,1634891694.0,32.000000
-30,-1,56,1634891694.0,32.000000
-33,0,56,1634891694.0,32.000000
-33,0,55,1634891694.0,32.000000
-34,0,55,1634891694.0,32.000000
-35,0,54,1634891694.0,32.000000
-30,0,55,1634891694.0,32.000000
-36,0,55,1634891694.0,32.000000
-27,-1,56,1634891694.0,32.000000
-30,1,56,1634891694.0,32.000000
-28,2,59,1634891694.0,32.000000
-28,0,55,1634891694.0,32.000000
-35,-2,51,1634891694.0,32.000000
-41,-1,52,1634891694.0,32.000000
-34,-1,53,1634891694.0,32.000000
-38,1,51,1634891694.0,32.000000
-41,-2,49,1634891694.0,32.000000
-40,-1,51,1634891694.0,32.000000
-36,-3,52,1634891694.0,32.000000
-38,-4,51,1634891694.0,32.000000
-40,-4,49,1634891694.0,32.000000
-41,-3,48,1634891694.0,32.000000
-41,-2,49,1634891694.0,32.000000
-41,-2,49,1634891694.0,32.000000
-42,-1,49,1634891694.0,32.000000
-40,-4,48,1634891694.0,32.000000
-40,-4,49,1634891694.0,32.000000
-40,-2,51,1634891694.0,32.000000
-40,-3,50,1634891694.0,32.000000
-41,-1,50,1634891694.0,32.000000
-39,-2,51,1634891694.0,32.000000
-39,-3,51,1634891694.0,32.000000
-39,-5,52,1634891694.0,32.000000
-34,-3,50,1634891694.0,32.000000
-38,-4,51,1634891694.0,32.000000
-38,-2,51,1634891694.0,32.000000
-38,-2,50,1634891694.0,32.000000
-40,-3,51,1634891694.0,32.000000
-38,-4,51,1634891694.0,32.000000
-41,-2,50,1634891694.0,32.000000
-39,-3,52,1634891694.0,32.000000
-39,-3,49,1634891694.0,32.000000
-41,-3,50,1634891694.0,32.000000
-40,-2,50,1634891694.0,32.000000
-40,-3,50,1634891694.0,32.000000
-38,-3,51,1634891694.0,32.000000
-38,-3,51,1634891694.0,32.000000
-38,-3,51,1634891694.0,32.000000
-39,-3,50,1634891694.0,32.000000
-39,-3,50,1634891694.0,32.000000
-38,-3,51,1634891694.0,32.000000
-38,-3,51,1634891694.0,32.000000
-39,-3,51,1634891694.0,32.000000
-38,-3,51,1634891694.0,32.000000
-39,-3,51,1634891694.0,32.000000
-39,-3,51,1634891694.0,32.000000
-39,-3,51,1634891694.0,32.000000
-39,-3,51,1634891694.0,32.000000
-38,-3,51,1634891694.0,32.000000
-38,-3,51,1634891694.0,32.000000
-38,-3,51,1634891694.0,32.000000
-39,-3,51,1634891694.0,32.000000
-39,-3,51,1634891694.0,32.000000
-38,-3,51,1634891694.0,32.000000
-39,-3,51,1634891694.0,32.000000
-39,-3,51,1634891694.0,32.000000
-39,-3,51,1634891694.0,32.000000
-38,-3,51,1634891694.0,32.000000
-38,-3,51,1634891694.0,32.000000
-38,-3,51,1634891694.0,32.000000
-38,-3,51,1634891694.0,32.000000
-38,-3,52,1634891694.0,32.000000
-38,-3,51,1634891694.0,32.000000
-38,-3,51,1634891694.0,32.000000
-38,-3,51,1634891694.0,32.000000
-38,-3,51,1634891694.0,32.000000
-38,-3,51,1634891694.0,32.000000
-38,-3,51,1634891694.0,32.000000
-38,-3,51,1634891694.0,32.000000
-38,-3,51,1634891694.0,32.000000
-39,-3,51,1634891694.0,32.000000
-38,-3,51,1634891694.0,32.000000
-38,-3,51,1634891694.0,32.000000
-38,-3,51,1634891694.0,32.000000
-38,-3,51,1634891694.0,32.000000
-38,-3,51,1634891694.0,32.000000
-38,-3,51,1634891694.0,32.000000
-38,-3,52,1634891694.0,32.000000
-38,-3,51,1634891694.0,32.000000
-38,-3,51,1634891694.0,32.000000
-38,-3,51,1634891694.0,32.000000
-38,-3,51,1634891694.0,32.000000
-38,-3,51,1634891694.0,32.000000
-38,-3,51,1634891694.0,32.000000
-38,-3,51,1634891694.0,32.000000
-38,-3,51,1634891694.0,32.000000
-38,-3,51,1634891694.0,32.000000
-38,-3,51,1634891694.0,32.000000
-38,-3,51,1634891694.0,32.000000
-38,-3,51,1634891694.0,32.000000
-39,-3,50,1634891694.0,32.000000
-39,-3,50,1634891694.0,32.000000
-39,-4,51,1634891694.0,32.000000
-38,-3,51,1634891694.0,32.000000
-38,-3,51,1634891694.0,32.000000
-39,-3,51,1634891694.0,32.000000
-38,-3,51,1634891694.0,32.000000
-38,-3,51,1634891694.0,32.000000
-39,-3,51,1634891694.0,32.000000
-39,-3,51,1634891694.0,32.000000
-38,-3,51,1634891694.0,32.000000
-39,-3,51,1634891694.0,32.000000
-38,-3,51,1634891694.0,32.000000
-38,-3,51,1634891694.0,32.000000
-39,-3,51,1634891694.0,32.000000
-39,-3,51,1634891694.0,32.000000
-39,-3,51,1634891694.0,32.000000
-39,-3,51,1634891694.0,32.000000
-39,-3,51,1634891694.0,32.000000
-39,-2,51,1634891694.0,32.000000
-39,-3,51,1634891694.0,32.000000
-39,-3,51,1634891694.0,32.000000
-39,-3,51,1634891694.0,32.000000
-39,-3,51,1634891694.0,32.000000
-39,-3,50,1634891694.0,32.000000
-39,-3,51,1634891694.0,32.000000
-39,-3,51,1634891694.0,32.000000
-39,-3,50,1634891694.0,32.000000
-39,-3,51,1634891694.0,32.000000
-39,-3,50,1634891694.0,32.000000
-39,-3,50,1634891694.0,32.000000
-39,-3,51,1634891694.0,32.000000
-39,-3,51,1634891694.0,32.000000
-39,-3,51,1634891694.0,32.000000
-39,-3,51,1634891694.0,32.000000
-38,-3,51,1634891694.0,32.000000
-38,-3,51,1634891694.0,32.000000
-39,-3,51,1634891694.0,32.000000
-39,-3,50,1634891694.0,32.000000
-38,-3,51,1634891694.0,32.000000
-38,-3,51,1634891694.0,32.000000
-39,-3,51,1634891694.0,32.000000
-39,-3,51,1634891694.0,32.000000
-38,-3,51,1634891694.0,32.000000
-39,-3,51,1634891694.0,32.000000
-39,-3,51,1634891694.0,32.000000
-38,-3,51,1634891694.0,32.000000
-38,-3,51,1634891694.0,32.000000
-38,-3,51,1634891694.0,32.000000
-39,-3,51,1634891694.0,32.000000
-38,-3,51,1634891694.0,32.000000
-38,-3,51,1634891694.0,32.000000
-38,-3,51,1634891694.0,32.000000
-39,-3,51,1634891694.0,32.000000
-38,-3,51,1634891694.0,32.000000
-38,-3,51,1634891694.0,32.000000
-38,-3,51,1634891694.0,32.000000
-38,-3,51,1634891694.0,32.000000
-39,-3,51,1634891694.0,32.000000
-38,-3,51,1634891694.0,32.000000
-38,-3,51,1634891694.0,32.000000
-38,-3,51,1634891694.0,32.000000
-38,-3,51,1634891694.0,32.000000
-38,-3,51,1634891694.0,32.000000
-38,-3,51,1634891694.0,32.000000
-38,-3,51,1634891694.0,32.000000
-38,-3,52,1634891694.0,32.000000
-38,-3,52,1634891694.0,32.000000
-38,-3,51,1634891694.0,32.000000
-39,-3,51,1634891694.0,32.000000
-39,-3,51,1634891694.0,32.000000
-39,-3,51,1634891694.0,32.000000
-37,-4,53,1634891694.0,32.000000
-39,-4,51,1634891694.0,32.000000
-38,-3,51,1634891694.0,32.000000
-38,-3,51,1634891694.0,32.000000
-38,-3,51,1634891694.0,32.000000
-38,-3,51,1634891694.0,32.000000
-38,-3,51,1634891694.0,32.000000
-38,-3,51,1634891694.0,32.000000
-38,-3,51,1634891694.0,32.000000
-39,-3,51,1634891694.0,32.000000
-38,-3,51,1634891694.0,32.000000
-38,-3,51,1634891694.0,32.000000
-39,-3,52,1634891694.0,32.000000
-38,-3,51,1634891694.0,32.000000
-38,-3,52,1634891694.0,32.000000
-39,-4,51,1634891694.0,32.000000
-38,-3,51,1634891694.0,32.000000
-38,-4,51,1634891694.0,32.000000
-38,-4,51,1634891694.0,32.000000
-37,-3,52,1634891694.0,32.000000
-38,-3,52,1634891694.0,32.000000
-38,-3,51,1634891694.0,32.000000
-38,-3,51,1634891694.0,32.000000
-38,-3,52,1634891694.0,32.000000
-38,-3,51,1634891694.0,32.000000
-39,-3,51,1634891694.0,32.000000
-38,-3,51,1634891694.0,32.000000
-38,-3,51,1634891694.0,32.000000
-38,-3,51,1634891694.0,32.000000
-38,-3,51,1634891694.0,32.000000
-39,-3,51,1634891694.0,32.000000
-38,-3,51,1634891694.0,32.000000
-38,-3,51,1634891694.0,32.000000
-38,-3,51,1634891694.0,32.000000
-39,-3,51,1634891694.0,32.000000
-39,-3,51,1634891694.0,32.000000
-38,-3,51,1634891694.0,32.000000
-38,-3,51,1634891694.0,32.000000
-39,-3,51,1634891694.0,32.000000
-38,-3,51,1634891694.0,32.000000
-38,-3,51,1634891694.0,32.000000
-39,-3,51,1634891694.0,32.000000
-39,-3,51,1634891694.0,32.000000
-38,-3,51,1634891694.0,32.000000
-38,-3,51,1634891694.0,32.000000
-38,-3,51,1634891694.0,32.000000
-39,-3,51,1634891694.0,32.000000
-38,-3,51,1634891694.0,32.000000
-39,-3,51,1634891694.0,32.000000
-39,-3,51,1634891694.0,32.000000
-39,-3,51,1634891694.0,32.000000
-39,-3,52,1634891694.0,32.000000
-38,-3,51,1634891694.0,32.000000
-39,-3,51,1634891694.0,32.000000
-38,-3,51,1634891694.0,32.000000
-38,-3,51,1634891694.0,32.000000
-38,-3,51,1634891694.0,32.000000
-39,-3,51,1634891694.0,32.000000
-39,-3,51,1634891694.0,32.000000
-38,-3,51,1634891694.0,32.000000
-38,-3,51,1634891694.0,32.000000
-39,-3,51,1634891694.0,32.000000
-39,-3,51,1634891694.0,32.000000
-38,-3,52,1634891694.0,32.000000
-38,-3,51,1634891694.0,32.000000
-39,-3,51,1634891694.0,32.000000
-39,-3,51,1634891694.0,32.000000
-38,-3,51,1634891694.0,32.000000
-38,-3,51,1634891694.0,32.000000
-39,-3,51,1634891694.0,32.000000
-38,-3,51,1634891694.0,32.000000
-39,-3,52,1634891694.0,32.000000
-38,-3,51,1634891694.0,32.000000
-39,-3,51,1634891694.0,32.000000
-39,-3,51,1634891694.0,32.000000
-38,-3,51,1634891694.0,32.000000
-38,-3,51,1634891694.0,32.000000
-38,-2,50,1634891694.0,32.000000
-37,-3,50,1634891694.0,32.000000
-39,-3,51,1634891694.0,32.000000
-39,-4,51,1634891694.0,32.000000
-38,-2,51,1634891694.0,32.000000
-39,-3,51,1634891694.0,32.000000
-40,-3,51,1634891694.0,32.000000
-38,-3,52,1634891694.0,32.000000
-38,-3,51,1634891694.0,32.000000
-39,-3,51,1634891694.0,32.000000
-38,-3,51,1634891694.0,32.000000
-38,-3,51,1634891694.0,32.000000
-39,-3,51,1634891694.0,32.000000
-38,-2,52,1634891694.0,32.000000
-39,-2,54,1634891694.0,32.000000
-39,-3,51,1634891694.0,32.000000
-39,-3,51,1634891694.0,32.000000
-38,-3,51,1634891694.0,32.000000
-38,-3,51,1634891694.0,32.000000
-39,-3,51,1634891694.0,32.000000
-38,-3,51,1634891694.0,32.000000
-38,-3,51,1634891694.0,32.000000
-39,-3,50,1634891694.0,32.000000
-40,-3,50,1634891694.0,32.000000
-39,-3,50,1634891694.0,32.000000
-39,-3,51,1634891694.0,32.000000
-39,-3,50,1634891694.0,32.000000
-40,-2,50,1634891694.0,32.000000
-39,-2,50,1634891694.0,32.000000
-39,-3,50,1634891694.0,32.000000
-40,-3,50,1634891694.0,32.000000
-41,-4,50,1634891694.0,32.000000
-39,-3,50,1634891694.0,32.000000
-39,-2,51,1634891694.0,32.000000
-39,-3,50,1634891694.0,32.000000
-40,-3,50,1634891694.0,32.000000
-39,-3,50,1634891694.0,32.000000
-39,-2,51,1634891694.0,32.000000
-40,-3,50,1634891694.0,32.000000
-40,-3,50,1634891694.0,32.000000
-39,-3,51,1634891694.0,32.000000
-38,-3,51,1634891694.0,32.000000
-40,-3,50,1634891694.0,32.000000
-40,-3,50,1634891694.0,32.000000
-40,-3,50,1634891694.0,32.000000
-40,-3,50,1634891694.0,32.000000
-39,-3,50,1634891694.0,32.000000
-40,-3,50,1634891694.0,32.000000
-40,-2,50,1634891694.0,32.000000
-39,-3,50,1634891694.0,32.000000
-40,-3,50,1634891694.0,32.000000
-40,-3,50,1634891694.0,32.000000
-39,-3,50,1634891694.0,32.000000
-39,-3,50,1634891694.0,32.000000
-40,-3,50,1634891694.0,32.000000
-40,-3,50,1634891694.0,32.000000
-40,-3,50,1634891694.0,32.000000
-40,-3,50,1634891694.0,32.000000
-40,-3,50,1634891694.0,32.000000
-40,-3,50,1634891694.0,32.000000
-40,-3,50,1634891694.0,32.000000
-40,-3,50,1634891694.0,32.000000
-40,-3,50,1634891694.0,32.000000
-40,-3,50,1634891694.0,32.000000
-40,-3,50,1634891694.0,32.000000
-40,-3,50,1634891694.0,32.000000
-40,-3,50,1634891694.0,32.000000
-40,-3,50,1634891694.0,32.000000
-40,-3,50,1634891694.0,32.000000
-41,-3,50,1634891694.0,32.000000
-41,-3,50,1634891694.0,32.000000
-40,-3,50,1634891694.0,32.000000
-40,-3,50,1634891694.0,32.000000
-40,-3,50,1634891694.0,32.000000
-40,-3,50,1634891694.0,32.000000
-39,-3,50,1634891694.0,32.000000
-40,-3,50,1634891694.0,32.000000
-40,-3,50,1634891694.0,32.000000
-39,-3,50,1634891694.0,32.000000
-40,-3,50,1634891694.0,32.000000
-40,-3,50,1634891694.0,32.000000
-39,-3,50,1634891694.0,32.000000
-39,-3,50,1634891694.0,32.000000
-40,-3,50,1634891694.0,32.000000
-40,-3,50,1634891694.0,32.000000
-40,-3,50,1634891694.0,32.000000
-40,-3,50,1634891694.0,32.000000
-39,-3,50,1634891694.0,32.000000
-40,-3,50,1634891694.0,32.000000
-40,-3,50,1634891694.0,32.000000
-39,-3,50,1634891694.0,32.000000
-39,-3,50,1634891694.0,32.000000
-39,-3,50,1634891694.0,32.000000
-38,-3,51,1634891694.0,32.000000
-38,-2,53,1634891694.0,32.000000
-37,-1,55,1634891694.0,32.000000
-43,-1,58,1634891694.0,32.000000
-48,-5,56,1634891694.0,32.000000
-69,-8,43,1634891694.0,32.000000
-72,-9,38,1634891694.0,32.000000
-76,-12,24,1634891694.0,32.000000
-76,-15,14,1634891694.0,32.000000
-79,-27,-1,1634891694.0,32.000000
-75,-28,-2,1634891694.0,32.000000
-71,-28,-5,1634891694.0,32.000000
-64,-32,-5,1634891694.0,32.000000
-52,-28,-3,1634891694.0,32.000000
-46,-28,-4,1634891694.0,32.000000
-41,-29,-2,1634891694.0,32.000000
-26,-29,1,1634891694.0,32.000000
-21,-32,4,1634891694.0,32.000000
-19,-38,4,1634891694.0,32.000000
-17,-43,6,1634891694.0,32.000000
-20,-49,2,1634891694.0,32.000000
-21,-51,2,1634891694.0,32.000000
-21,-54,3,1634891694.0,32.000000
-23,-56,2,1634891694.0,32.000000
-26,-63,3,1634891694.0,32.000000
-31,-83,-1,1634891694.0,32.000000
-22,-49,5,1634891694.0,32.000000
-23,-54,3,1634891694.0,32.000000
-27,-59,-4,1634891694.0,32.000000
-30,-58,-4,1634891694.0,32.000000
-27,-57,-3,1634891694.0,32.000000
-25,-59,-2,1634891694.0,32.000000
-26,-59,-2,1634891694.0,32.000000
-25,-57,-2,1634891694.0,32.000000
-24,-59,-2,1634891694.0,32.000000
-23,-58,1,1634891694.0,32.000000
-26,-58,-1,1634891694.0,32.000000
-29,-58,-1,1634891694.0,32.000000
-28,-58,0,1634891694.0,32.000000
-27,-57,1,1634891694.0,32.000000
-22,-59,3,1634891694.0,32.000000
-24,-57,1,1634891694.0,32.000000
-24,-58,1,1634891694.0,32.000000
-23,-58,0,1634891694.0,32.000000
-24,-57,1,1634891694.0,32.000000
-23,-58,5,1634891694.0,32.000000
-23,-57,6,1634891694.0,32.000000
-28,-58,1,1634891694.0,32.000000
-28,-58,-1,1634891694.0,32.000000
-25,-58,-1,1634891694.0,32.000000
-27,-59,-1,1634891694.0,32.000000
-26,-58,-3,1634891694.0,32.000000
-24,-58,-1,1634891694.0,32.000000
-22,-58,3,1634891694.0,32.000000
-23,-57,4,1634891694.0,32.000000
-27,-58,4,1634891694.0,32.000000
-28,-58,2,1634891694.0,32.000000
-27,-58,-1,1634891694.0,32.000000
-25,-58,0,1634891694.0,32.000000
-25,-58,1,1634891694.0,32.000000
-24,-58,-1,1634891694.0,32.000000
-23,-58,0,1634891694.0,32.000000
-24,-58,0,1634891694.0,32.000000
-27,-58,-1,1634891694.0,32.000000
-26,-58,-1,1634891694.0,32.000000
-27,-58,-2,1634891694.0,32.000000
-26,-58,-1,1634891694.0,32.000000
-27,-58,0,1634891694.0,32.000000
-27,-58,0,1634891694.0,32.000000
-25,-58,-2,1634891694.0,32.000000
-25,-58,-2,1634891694.0,32.000000
-25,-58,-2,1634891694.0,32.000000
-24,-58,-1,1634891694.0,32.000000
-26,-58,0,1634891694.0,32.000000
-26,-57,0,1634891694.0,32.000000
-24,-57,1,1634891694.0,32.000000
-22,-57,0,1634891694.0,32.000000
-24,-58,-2,1634891694.0,32.000000
-25,-57,-4,1634891694.0,32.000000
-27,-59,-6,1634891694.0,32.000000
-25,-57,-2,1634891694.0,32.000000
-28,-57,-5,1634891694.0,32.000000
-28,-58,-7,1634891694.0,32.000000
-26,-57,-8,1634891694.0,32.000000
-26,-57,-7,1634891694.0,32.000000
-27,-57,-6,1634891694.0,32.000000
-28,-56,-4,1634891694.0,32.000000
-28,-56,-4,1634891694.0,32.000000
-31,-55,-5,1634891694.0,32.000000
-30,-55,-4,1634891694.0,32.000000
-32,-55,-6,1634891694.0,32.000000
-31,-55,-6,1634891694.0,32.000000
-32,-56,-7,1634891694.0,32.000000
-31,-55,-6,1634891694.0,32.000000
-31,-55,-6,1634891694.0,32.000000
-32,-56,-6,1634891694.0,32.000000
-30,-55,-5,1634891694.0,32.000000
-33,-55,-6,1634891694.0,32.000000
-33,-55,-6,1634891694.0,32.000000
-33,-55,-5,1634891694.0,32.000000
-33,-54,-5,1634891694.0,32.000000
-33,-54,-5,1634891694.0,32.000000
-33,-54,-5,1634891694.0,32.000000
-34,-54,-4,1634891694.0,32.000000
-33,-54,-4,1634891694.0,32.000000
-33,-54,-5,1634891694.0,32.000000
-33,-54,-5,1634891694.0,32.000000
-32,-54,-5,1634891694.0,32.000000
-32,-54,-6,1634891694.0,32.000000
-31,-54,-5,1634891694.0,32.000000
-32,-55,-6,1634891694.0,32.000000
-32,-55,-5,1634891694.0,32.000000
-32,-54,-4,1634891694.0,32.000000
-32,-55,-5,1634891694.0,32.000000
-33,-54,-5,1634891694.0,32.000000
-33,-54,-4,1634891694.0,32.000000
-32,-54,-5,1634891694.0,32.000000
-32,-55,-5,1634891694.0,32.000000
-32,-54,-4,1634891694.0,32.000000
-33,-54,-5,1634891694.0,32.000000
-33,-54,-5,1634891694.0,32.000000
-33,-55,-5,1634891694.0,32.000000
-33,-54,-5,1634891694.0,32.000000
-33,-54,-5,1634891694.0,32.000000
-33,-54,-5,1634891694.0,32.000000
-34,-55,-5,1634891694.0,32.000000
-33,-55,-5,1634891694.0,32.000000
-33,-54,-5,1634891694.0,32.000000
-33,-54,-5,1634891694.0,32.000000
-33,-54,-5,1634891694.0,32.000000
-33,-54,-5,1634891694.0,32.000000
-33,-54,-5,1634891694.0,32.000000
-33,-54,-4,1634891694.0,32.000000
-34,-55,-4,1634891694.0,32.000000
-33,-54,-5,1634891694.0,32.000000
-33,-54,-5,1634891694.0,32.000000
-32,-54,-5,1634891694.0,32.000000
-32,-55,-5,1634891694.0,32.000000
-32,-55,-5,1634891694.0,32.000000
-32,-55,-5,1634891694.0,32.000000
-32,-55,-5,1634891694.0,32.000000
-32,-55,-5,1634891694.0,32.000000
-33,-55,-6,1634891694.0,32.000000
-32,-55,-5,1634891694.0,32.000000
-32,-55,-5,1634891694.0,32.000000
-31,-55,-5,1634891694.0,32.000000
-29,-56,-4,1634891694.0,32.000000
-29,-56,-5,1634891694.0,32.000000
-28,-56,-4,1634891694.0,32.000000
-26,-56,-3,1634891694.0,32.000000
-24,-56,-1,1634891694.0,32.000000
-24,-56,-2,1634891694.0,32.000000
-25,-57,-4,1634891694.0,32.000000
-27,-56,-3,1634891694.0,32.000000
-27,-56,-1,1634891694.0,32.000000
-35,-57,-7,1634891694.0,32.000000
-35,-56,-9,1634891694.0,32.000000
-34,-56,-9,1634891694.0,32.000000
-30,-56,-7,1634891694.0,32.000000
-29,-55,-2,1634891694.0,32.000000
-31,-55,-3,1634891694.0,32.000000
-32,-55,-4,1634891694.0,32.000000
-29,-55,-3,1634891694.0,32.000000
-29,-55,-2,1634891694.0,32.000000
-31,-56,-3,1634891694.0,32.000000
-31,-55,-2,1634891694.0,32.000000
-32,-55,-2,1634891694.0,32.000000
-31,-55,-2,1634891694.0,32.000000
-31,-55,-3,1634891694.0,32.000000
-32,-56,-3,1634891694.0,32.000000
-34,-55,-4,1634891694.0,32.000000
-33,-55,-3,1634891694.0,32.000000
-32,-55,-3,1634891694.0,32.000000
-31,-55,-2,1634891694.0,32.000000
-29,-55,-4,1634891694.0,32.000000
-30,-56,-4,1634891694.0,32.000000
-29,-55,-5,1634891694.0,32.000000
-26,-56,-3,1634891694.0,32.000000
-29,-57,-5,1634891694.0,32.000000
-29,-56,-6,1634891694.0,32.000000
-29,-56,-6,1634891694.0,32.000000
-29,-56,-6,1634891694.0,32.000000
-28,-56,-5,1634891694.0,32.000000
-29,-56,-5,1634891694.0,32.000000
-30,-56,-5,1634891694.0,32.000000
-29,-55,-4,1634891694.0,32.000000
-29,-56,-4,1634891694.0,32.000000
-29,-56,-5,1634891694.0,32.000000
-29,-56,-4,1634891694.0,32.000000
-28,-55,-4,1634891694.0,32.000000
-30,-55,-4,1634891694.0,32.000000
-30,-55,-5,1634891694.0,32.000000
-31,-56,-7,1634891694.0,32.000000
-33,-56,-8,1634891694.0,32.000000
-31,-55,-5,1634891694.0,32.000000
-29,-55,-2,1634891694.0,32.000000
-30,-56,-5,1634891694.0,32.000000
-32,-56,-5,1634891694.0,32.000000
-33,-55,-4,1634891694.0,32.000000
-32,-55,-3,1634891694.0,32.000000
-29,-56,-2,1634891694.0,32.000000
-31,-55,-3,1634891694.0,32.000000
-30,-56,-4,1634891694.0,32.000000
-30,-56,-4,1634891694.0,32.000000
-29,-56,-4,1634891694.0,32.000000
-28,-56,-4,1634891694.0,32.000000
-28,-56,-4,1634891694.0,32.000000
-29,-56,-4,1634891694.0,32.000000
-28,-56,-3,1634891694.0,32.000000
-30,-57,-5,1634891694.0,32.000000
-29,-56,-4,1634891694.0,32.000000
-29,-56,-4,1634891694.0,32.000000
-29,-56,-4,1634891694.0,32.000000
-30,-56,-5,1634891694.0,32.000000
-29,-56,-5,1634891694.0,32.000000
-29,-56,-4,1634891694.0,32.000000
-29,-56,-5,1634891694.0,32.000000
-28,-56,-4,1634891694.0,32.000000
-29,-56,-4,1634891694.0,32.000000
-29,-56,-4,1634891694.0,32.000000
-29,-56,-4,1634891694.0,32.000000
-28,-56,-4,1634891694.0,32.000000
-29,-56,-5,1634891694.0,32.000000
-29,-56,-4,1634891694.0,32.000000
-29,-56,-4,1634891694.0,32.000000
-30,-56,-4,1634891694.0,32.000000
-30,-56,-3,1634891694.0,32.000000
-31,-56,-4,1634891694.0,32.000000
-30,-56,-3,1634891694.0,32.000000
-30,-56,-4,1634891694.0,32.000000
-30,-56,-4,1634891694.0,32.000000
-29,-55,-3,1634891694.0,32.000000
-30,-56,-4,1634891694.0,32.000000
-30,-56,-4,1634891694.0,32.000000
-31,-56,-5,1634891694.0,32.000000
-31,-56,-5,1634891694.0,32.000000
-31,-57,-7,1634891694.0,32.000000
-29,-56,-3,1634891694.0,32.000000
-30,-55,-2,1634891694.0,32.000000
-32,-57,-5,1634891694.0,32.000000
-29,-56,-3,1634891694.0,32.000000
-28,-57,-4,1634891694.0,32.000000
-31,-56,-4,1634891694.0,32.000000
-31,-57,-4,1634891694.0,32.000000
-30,-56,-2,1634891694.0,32.000000
-29,-56,-2,1634891694.0,32.000000
-28,-55,-1,1634891694.0,32.000000
-30,-56,0,1634891694.0,32.000000
-28,-55,0,1634891694.0,32.000000
-30,-55,1,1634891694.0,32.000000
-30,-56,0,1634891694.0,32.000000
-30,-56,0,1634891694.0,32.000000
-31,-55,-1,1634891694.0,32.000000
-31,-56,-1,1634891694.0,32.000000
-30,-56,-2,1634891694.0,32.000000
-31,-56,-3,1634891694.0,32.000000
-30,-56,-2,1634891694.0,32.000000
-30,-56,-2,1634891694.0,32.000000
-30,-56,-2,1634891694.0,32.000000
-29,-56,-2,1634891694.0,32.000000
-30,-56,-2,1634891694.0,32.000000
-31,-56,-2,1634891694.0,32.000000
-31,-56,-2,1634891694.0,32.000000
-29,-56,-1,1634891694.0,32.000000
-29,-56,-1,1634891694.0,32.000000
-31,-56,-2,1634891694.0,32.000000
-30,-56,-2,1634891694.0,32.000000
-31,-56,-2,1634891694.0,32.000000
-32,-56,-3,1634891694.0,32.000000
-30,-56,-4,1634891694.0,32.000000
-29,-56,-2,1634891694.0,32.000000
-27,-56,2,1634891694.0,32.000000
-30,-56,-2,1634891694.0,32.000000
-30,-56,-1,1634891694.0,32.000000
-29,-56,0,1634891694.0,32.000000
-31,-55,-3,1634891694.0,32.000000
-32,-56,-4,1634891694.0,32.000000
-31,-56,-2,1634891694.0,32.000000
-32,-56,-4,1634891694.0,32.000000
-30,-57,-3,1634891694.0,32.000000
-29,-55,0,1634891694.0,32.000000
-29,-56,0,1634891694.0,32.000000
-30,-56,0,1634891694.0,32.000000
-29,-56,1,1634891694.0,32.000000
-30,-55,-2,1634891694.0,32.000000
-31,-57,-2,1634891694.0,32.000000
-29,-56,-1,1634891694.0,32.000000
-30,-56,-1,1634891694.0,32.000000
-30,-55,-1,1634891694.0,32.000000
-30,-56,-1,1634891694.0,32.000000
-31,-55,-1,1634891694.0,32.000000
-31,-56,-2,1634891694.0,32.000000
-29,-56,-2,1634891694.0,32.000000
-29,-56,-2,1634891694.0,32.000000
-30,-56,-2,1634891694.0,32.000000
-30,-57,-2,1634891694.0,32.000000
-29,-56,-1,1634891694.0,32.000000
-31,-56,-2,1634891694.0,32.000000
-32,-56,-1,1634891694.0,32.000000
-31,-56,-1,1634891694.0,32.000000
-32,-55,2,1634891694.0,32.000000
-31,-55,2,1634891694.0,32.000000
-32,-56,0,1634891694.0,32.000000
-31,-56,-1,1634891694.0,32.000000
-30,-55,-1,1634891694.0,32.000000
-28,-56,-1,1634891694.0,32.000000
-28,-55,-3,1634891694.0,32.000000
-29,-57,-3,1634891694.0,32.000000
-27,-56,-1,1634891694.0,32.000000
-29,-57,-3,1634891694.0,32.000000
-29,-56,-3,1634891694.0,32.000000
-30,-57,-2,1634891694.0,32.000000
-31,-56,-3,1634891694.0,32.000000
-28,-56,-1,1634891694.0,32.000000
-28,-57,-2,1634891694.0,32.000000
-29,-56,-2,1634891694.0,32.000000
-29,-57,-2,1634891694.0,32.000000
-26,-57,-2,1634891694.0,32.000000
-27,-57,-2,1634891694.0,32.000000
-25,-57,-2,1634891694.0,32.000000
-25,-57,-2,1634891694.0,32.000000
-26,-58,-4,1634891694.0,32.000000
-25,-57,-3,1634891694.0,32.000000
-26,-58,-3,1634891694.0,32.000000
-26,-57,-2,1634891694.0,32.000000
-28,-58,-4,1634891694.0,32.000000
-27,-57,-2,1634891694.0,32.000000
-27,-57,-2,1634891694.0,32.000000
-26,-57,-1,1634891694.0,32.000000
-25,-57,-1,1634891694.0,32.000000
-26,-57,-2,1634891694.0,32.000000
-25,-56,-2,1634891694.0,32.000000
-31,-58,-8,1634891694.0,32.000000
-31,-57,-7,1634891694.0,32.000000
-30,-57,-6,1634891694.0,32.000000
-28,-56,-4,1634891694.0,32.000000
-24,-57,0,1634891694.0,32.000000
-24,-57,0,1634891694.0,32.000000
-28,-57,-4,1634891694.0,32.000000
-28,-57,-5,1634891694.0,32.000000
-29,-57,-5,1634891694.0,32.000000
-30,-57,-5,1634891694.0,32.000000
-29,-56,-3,1634891694.0,32.000000
-28,-57,-2,1634891694.0,32.000000
-27,-57,-2,1634891694.0,32.000000
-26,-57,-2,1634891694.0,32.000000
-25,-57,1,1634891694.0,32.000000
-28,-57,-1,1634891694.0,32.000000
-28,-58,-4,1634891694.0,32.000000
-25,-58,-3,1634891694.0,32.000000
-27,-58,-1,1634891694.0,32.000000
-27,-57,-1,1634891694.0,32.000000
-25,-58,-1,1634891694.0,32.000000
-24,-58,-2,1634891694.0,32.000000
-24,-58,-2,1634891694.0,32.000000
-23,-58,0,1634891694.0,32.000000
-23,-59,0,1634891694.0,32.000000
-22,-58,1,1634891694.0,32.000000
-22,-58,2,1634891694.0,32.000000
-23,-59,0,1634891694.0,32.000000
-24,-58,0,1634891694.0,32.000000
-25,-59,0,1634891694.0,32.000000
-22,-58,3,1634891694.0,32.000000
-20,-59,5,1634891694.0,32.000000
-21,-58,4,1634891694.0,32.000000
-26,-59,2,1634891694.0,32.000000
-24,-59,3,1634891694.0,32.000000
-25,-59,0,1634891694.0,32.000000
-26,-59,1,1634891694.0,32.000000
-23,-58,6,1634891694.0,32.000000
-26,-57,6,1634891694.0,32.000000
-23,-58,6,1634891694.0,32.000000
-23,-59,5,1634891694.0,32.000000
-23,-59,0,1634891694.0,32.000000
-24,-59,0,1634891694.0,32.000000
-26,-59,-1,1634891694.0,32.000000
-24,-58,1,1634891694.0,32.000000
-24,-59,3,1634891694.0,32.000000
-25,-58,4,1634891694.0,32.000000
-24,-59,4,1634891694.0,32.000000
-26,-59,2,1634891694.0,32.000000
-26,-60,2,1634891694.0,32.000000
-21,-59,4,1634891694.0,32.000000
-17,-59,7,1634891694.0,32.000000
-22,-59,7,1634891694.0,32.000000
-24,-59,7,1634891694.0,32.000000
-26,-59,6,1634891694.0,32.000000
-21,-59,9,1634891694.0,32.000000
-19,-59,9,1634891694.0,32.000000
-19,-59,9,1634891694.0,32.000000
-22,-59,7,1634891694.0,32.000000
-22,-59,8,1634891694.0,32.000000
-22,-59,9,1634891694.0,32.000000
-22,-58,9,1634891694.0,32.000000
-20,-59,7,1634891694.0,32.000000
-19,-59,8,1634891694.0,32.000000
-19,-59,9,1634891694.0,32.000000
-20,-59,9,1634891694.0,32.000000
-20,-59,9,1634891694.0,32.000000
-22,-59,8,1634891694.0,32.000000
-21,-59,9,1634891694.0,32.000000
-21,-59,9,1634891694.0,32.000000
-22,-59,8,1634891694.0,32.000000
-21,-59,8,1634891694.0,32.000000
-22,-59,7,1634891694.0,32.000000
-22,-59,7,1634891694.0,32.000000
-23,-59,8,1634891694.0,32.000000
-22,-59,8,1634891694.0,32.000000
-22,-59,8,1634891694.0,32.000000
-21,-59,8,1634891694.0,32.000000
-21,-59,8,1634891694.0,32.000000
-21,-59,8,1634891694.0,32.000000
-21,-59,8,1634891694.0,32.000000
-22,-58,7,1634891694.0,32.000000
-22,-59,8,1634891694.0,32.000000
-22,-59,8,1634891694.0,32.000000
-23,-59,7,1634891694.0,32.000000
-22,-59,7,1634891694.0,32.000000
-22,-59,7,1634891694.0,32.000000
-22,-59,7,1634891694.0,32.000000
-22,-59,6,1634891694.0,32.000000
-21,-59,7,1634891694.0,32.000000
-21,-59,7,1634891694.0,32.000000
-20,-58,8,1634891694.0,32.000000
-22,-59,7,1634891694.0,32.000000
-22,-59,7,1634891694.0,32.000000
-22,-59,7,1634891694.0,32.000000
-23,-59,8,1634891694.0,32.000000
-23,-59,7,1634891694.0,32.000000
-22,-59,7,1634891694.0,32.000000
-23,-58,7,1634891694.0,32.000000
-23,-59,8,1634891694.0,32.000000
-23,-59,7,1634891694.0,32.000000
-23,-59,7,1634891694.0,32.000000
-22,-59,7,1634891694.0,32.000000
-22,-59,8,1634891694.0,32.000000
-23,-58,7,1634891694.0,32.000000
-23,-59,8,1634891694.0,32.000000
-24,-58,7,1634891694.0,32.000000
-23,-58,7,1634891694.0,32.000000
-22,-58,7,1634891694.0,32.000000
-24,-58,7,1634891694.0,32.000000
-23,-58,7,1634891694.0,32.000000
-23,-59,7,1634891694.0,32.000000
-23,-59,7,1634891694.0,32.000000
-23,-59,8,1634891694.0,32.000000
-23,-59,6,1634891694.0,32.000000
-23,-58,7,1634891694.0,32.000000
-23,-59,7,1634891694.0,32.000000
-23,-58,7,1634891694.0,32.000000
-23,-59,7,1634891694.0,32.000000
-23,-58,7,1634891694.0,32.000000
-23,-58,8,1634891694.0,32.000000
-23,-58,7,1634891694.0,32.000000
-23,-58,8,1634891694.0,32.000000
-23,-59,7,1634891694.0,32.000000
-23,-58,7,1634891694.0,32.000000
-23,-58,7,1634891694.0,32.000000
-23,-58,7,1634891694.0,32.000000
-23,-58,7,1634891694.0,32.000000
-23,-59,7,1634891694.0,32.000000
-23,-59,7,1634891694.0,32.000000
-22,-58,7,1634891694.0,32.000000
-23,-59,7,1634891694.0,32.000000
-24,-59,7,1634891694.0,32.000000
-23,-59,7,1634891694.0,32.000000
-23,-59,7,1634891694.0,32.000000
-23,-59,7,1634891694.0,32.000000
-23,-58,7,1634891694.0,32.000000
-23,-58,7,1634891694.0,32.000000
-23,-58,7,1634891694.0,32.000000
-24,-58,7,1634891694.0,32.000000
-23,-59,7,1634891694.0,32.000000
-23,-59,7,1634891694.0,32.000000
-23,-58,7,1634891694.0,32.000000
-23,-58,7,1634891694.0,32.000000
-23,-58,7,1634891694.0,32.000000
-24,-59,7,1634891694.0,32.000000
-23,-58,7,1634891694.0,32.000000
-23,-59,7,1634891694.0,32.000000
-24,-58,7,1634891694.0,32.000000
-23,-58,8,1634891694.0,32.000000
-22,-57,8,1634891694.0,32.000000
-24,-59,5,1634891694.0,32.000000
-26,-58,4,1634891694.0,32.000000
-25,-59,4,1634891694.0,32.000000
-22,-58,6,1634891694.0,32.000000
-24,-59,7,1634891694.0,32.000000
-24,-58,9,1634891694.0,32.000000
-24,-59,10,1634891694.0,32.000000
-26,-59,4,1634891694.0,32.000000
-25,-58,5,1634891694.0,32.000000
-26,-58,6,1634891694.0,32.000000
-24,-57,9,1634891694.0,32.000000
-23,-58,9,1634891694.0,32.000000
-23,-58,8,1634891694.0,32.000000
-25,-58,7,1634891694.0,32.000000
-24,-58,8,1634891694.0,32.000000
-26,-58,6,1634891694.0,32.000000
-25,-58,6,1634891694.0,32.000000
-23,-58,7,1634891694.0,32.000000
-23,-58,8,1634891694.0,32.000000
-24,-58,7,1634891694.0,32.000000
-23,-58,6,1634891694.0,32.000000
-24,-58,6,1634891694.0,32.000000
-24,-59,6,1634891694.0,32.000000
-23,-59,6,1634891694.0,32.000000
-24,-58,7,1634891694.0,32.000000
-24,-58,6,1634891694.0,32.000000
-24,-58,6,1634891694.0,32.000000
-24,-58,7,1634891694.0,32.000000
-24,-58,7,1634891694.0,32.000000
-24,-58,6,1634891694.0,32.000000
-23,-58,6,1634891694.0,32.000000
-24,-58,6,1634891694.0,32.000000
-25,-58,5,1634891694.0,32.000000
-25,-58,6,1634891694.0,32.000000
-24,-58,6,1634891694.0,32.000000
-23,-58,7,1634891694.0,32.000000
-24,-58,7,1634891694.0,32.000000
-25,-58,7,1634891694.0,32.000000
-24,-58,6,1634891694.0,32.000000
-25,-58,6,1634891694.0,32.000000
-24,-58,6,1634891694.0,32.000000
-24,-58,6,1634891694.0,32.000000
-23,-58,6,1634891694.0,32.000000
-23,-58,7,1634891694.0,32.000000
-25,-58,6,1634891694.0,32.000000
-25,-58,6,1634891694.0,32.000000
-24,-58,6,1634891694.0,32.000000
-24,-58,6,1634891694.0,32.000000
-24,-58,7,1634891694.0,32.000000
-25,-59,6,1634891694.0,32.000000
-25,-58,6,1634891694.0,32.000000
-25,-58,7,1634891694.0,32.000000
-25,-58,6,1634891694.0,32.000000
-24,-58,7,1634891694.0,32.000000
-25,-58,6,1634891694.0,32.000000
-24,-58,6,1634891694.0,32.000000
-24,-58,7,1634891694.0,32.000000
-25,-58,6,1634891694.0,32.000000
-25,-58,6,1634891694.0,32.000000
-24,-58,7,1634891694.0,32.000000
-25,-58,7,1634891694.0,32.000000
-25,-58,6,1634891694.0,32.000000
-24,-58,6,1634891694.0,32.000000
-24,-58,7,1634891694.0,32.000000
-25,-58,7,1634891694.0,32.000000
-25,-58,6,1634891694.0,32.000000
-25,-58,6,1634891694.0,32.000000
-25,-58,6,1634891694.0,32.000000
-25,-58,6,1634891694.0,32.000000
-25,-58,6,1634891694.0,32.000000
-25,-58,6,1634891694.0,32.000000
-25,-58,6,1634891694.0,32.000000
-25,-58,6,1634891694.0,32.000000
-25,-58,6,1634891694.0,32.000000
-25,-58,6,1634891694.0,32.000000
-25,-58,6,1634891694.0,32.000000
-25,-58,6,1634891694.0,32.000000
-24,-58,6,1634891694.0,32.000000
-25,-58,7,1634891694.0,32.000000
-25,-58,6,1634891694.0,32.000000
-24,-58,7,1634891694.0,32.000000
-24,-58,6,1634891694.0,32.000000
-25,-58,7,1634891694.0,32.000000
-25,-58,7,1634891694.0,32.000000
-25,-58,6,1634891694.0,32.000000
-24,-58,6,1634891694.0,32.000000
-25,-58,6,1634891694.0,32.000000
-25,-58,6,1634891694.0,32.000000
-25,-58,6,1634891694.0,32.000000
-25,-58,6,1634891694.0,32.000000
-24,-58,7,1634891694.0,32.000000
-24,-58,6,1634891694.0,32.000000
-25,-58,6,1634891694.0,32.000000
-25,-58,6,1634891694.0,32.000000
-25,-58,7,1634891694.0,32.000000
-25,-58,7,1634891694.0,32.000000
-25,-58,6,1634891694.0,32.000000
-25,-58,7,1634891694.0,32.000000
-25,-58,6,1634891694.0,32.000000
-25,-58,6,1634891694.0,32.000000
-25,-58,7,1634891694.0,32.000000
-25,-58,7,1634891694.0,32.000000
-24,-58,7,1634891694.0,32.000000
-25,-58,7,1634891694.0,32.000000
-24,-58,6,1634891694.0,32.000000
-25,-58,7,1634891694.0,32.000000
-24,-58,6,1634891694.0,32.000000
-25,-58,6,1634891694.0,32.000000
-24,-58,7,1634891694.0,32.000000
-25,-58,7,1634891694.0,32.000000
-25,-58,6,1634891694.0,32.000000
-25,-58,6,1634891694.0,32.000000
-25,-58,6,1634891694.0,32.000000
-24,-58,7,1634891694.0,32.000000
-24,-58,7,1634891694.0,32.000000
-24,-58,6,1634891694.0,32.000000
-24,-58,7,1634891694.0,32.000000
-25,-58,7,1634891694.0,32.000000
-25,-58,7,1634891694.0,32.000000
-25,-58,7,1634891694.0,32.000000
-25,-58,7,1634891694.0,32.000000
-24,-58,7,1634891694.0,32.000000
-24,-58,7,1634891694.0,32.000000
-24,-58,7,1634891694.0,32.000000
-25,-58,7,1634891694.0,32.000000
-24,-58,7,1634891694.0,32.000000
-25,-58,7,1634891694.0,32.000000
-24,-59,7,1634891694.0,32.000000
-24,-58,7,1634891694.0,32.000000
-25,-58,7,1634891694.0,32.000000
-25,-58,6,1634891694.0,32.000000
-24,-58,6,1634891694.0,32.000000
-24,-58,7,1634891694.0,32.000000
-24,-58,7,1634891694.0,32.000000
-25,-58,7,1634891694.0,32.000000
-25,-58,7,1634891694.0,32.000000
-24,-58,7,1634891694.0,32.000000
-24,-58,7,1634891694.0,32.000000
-24,-58,7,1634891694.0,32.000000
-24,-58,7,1634891694.0,32.000000
-25,-58,6,1634891694.0,32.000000
-24,-58,7,1634891694.0,32.000000
-25,-56,6,1634891694.0,32.000000
-24,-58,7,1634891694.0,32.000000
-24,-53,9,1634891694.0,32.000000
-25,-57,5,1634891694.0,32.000000
-23,-57,8,1634891694.0,32.000000
-25,-59,7,1634891694.0,32.000000
-24,-57,7,1634891694.0,32.000000
-25,-59,7,1634891694.0,32.000000
-25,-58,6,1634891694.0,32.000000
-25,-58,7,1634891694.0,32.000000
-24,-58,7,1634891694.0,32.000000
-25,-57,7,1634891694.0,32.000000
-25,-58,7,1634891694.0,32.000000
-24,-58,7,1634891694.0,32.000000
-24,-58,7,1634891694.0,32.000000
-25,-58,7,1634891694.0,32.000000
-25,-58,7,1634891694.0,32.000000
-24,-58,7,1634891694.0,32.000000
-25,-58,7,1634891694.0,32.000000
-24,-58,7,1634891694.0,32.000000
-24,-59,7,1634891694.0,32.000000
-24,-58,7,1634891694.0,32.000000
-25,-57,7,1634891694.0,32.000000
-25,-58,7,1634891694.0,32.000000
-25,-58,7,1634891694.0,32.000000
-24,-58,7,1634891694.0,32.000000
-24,-58,6,1634891694.0,32.000000
-25,-58,7,1634891694.0,32.000000
-24,-58,7,1634891694.0,32.000000
-24,-58,7,1634891694.0,32.000000
-24,-58,7,1634891694.0,32.000000
-24,-58,7,1634891694.0,32.000000
-24,-60,6,1634891694.0,32.000000
-24,-59,6,1634891694.0,32.000000
-24,-57,7,1634891694.0,32.000000
-24,-58,7,1634891694.0,32.000000
-24,-58,6,1634891694.0,32.000000
-24,-58,7,1634891694.0,32.000000
-24,-59,7,1634891694.0,32.000000
-25,-58,7,1634891694.0,32.000000
-24,-58,7,1634891694.0,32.000000
-24,-59,6,1634891694.0,32.000000
-24,-58,7,1634891694.0,32.000000
-24,-58,7,1634891694.0,32.000000
-24,-58,7,1634891694.0,32.000000
-24,-58,6,1634891694.0,32.000000
-24,-58,6,1634891694.0,32.000000
-24,-58,6,1634891694.0,32.000000
-24,-58,6,1634891694.0,32.000000
-24,-58,6,1634891694.0,32.000000
-24,-58,6,1634891694.0,32.000000
-24,-58,7,1634891694.0,32.000000
-25,-58,6,1634891694.0,32.000000
-24,-58,6,1634891694.0,32.000000
-24,-58,6,1634891694.0,32.000000
-24,-58,6,1634891694.0,32.000000
-24,-59,7,1634891694.0,32.000000
-24,-58,7,1634891694.0,32.000000
-24,-59,6,1634891694.0,32.000000
-24,-57,6,1634891694.0,32.000000
-24,-57,6,1634891694.0,32.000000
-24,-59,6,1634891694.0,32.000000
-25,-58,6,1634891694.0,32.000000
-25,-58,6,1634891694.0,32.000000
-24,-58,6,1634891694.0,32.000000
-24,-58,6,1634891694.0,32.000000
-25,-58,7,1634891694.0,32.000000
-25,-57,7,1634891694.0,32.000000
-25,-58,7,1634891694.0,32.000000
-25,-58,7,1634891694.0,32.000000
-25,-58,6,1634891694.0,32.000000
-25,-58,6,1634891694.0,32.000000
-25,-57,7,1634891694.0,32.000000
-25,-58,6,1634891694.0,32.000000
-25,-57,6,1634891694.0,32.000000
-24,-58,7,1634891694.0,32.000000
-24,-58,7,1634891694.0,32.000000
-28,-57,6,1634891694.0,32.000000
-27,-58,7,1634891694.0,32.000000
-26,-57,7,1634891694.0,32.000000
-25,-58,7,1634891694.0,32.000000
-27,-58,6,1634891694.0,32.000000
-25,-57,8,1634891694.0,32.000000
-26,-57,6,1634891694.0,32.000000
-25,-58,6,1634891694.0,32.000000
-26,-58,6,1634891694.0,32.000000
-24,-57,8,1634891694.0,32.000000
-26,-57,7,1634891694.0,32.000000
-25,-58,6,1634891694.0,32.000000
-25,-58,7,1634891694.0,32.000000
-25,-57,7,1634891694.0,32.000000
-25,-58,7,1634891694.0,32.000000
-25,-57,8,1634891694.0,32.000000
-25,-58,5,1634891694.0,32.000000
-25,-58,5,1634891694.0,32.000000
-25,-58,4,1634891694.0,32.000000
-27,-58,5,1634891694.0,32.000000
-25,-58,8,1634891694.0,32.000000
-25,-58,7,1634891694.0,32.000000
-26,-58,5,1634891694.0,32.000000
-26,-58,3,1634891694.0,32.000000
-24,-58,4,1634891694.0,32.000000
-23,-58,5,1634891694.0,32.000000
-24,-58,5,1634891694.0,32.000000
-24,-58,6,1634891694.0,32.000000
-25,-58,6,1634891694.0,32.000000
-24,-59,5,1634891694.0,32.000000
-24,-58,6,1634891694.0,32.000000
-23,-58,5,1634891694.0,32.000000
-23,-58,5,1634891694.0,32.000000
-23,-59,5,1634891694.0,32.000000
-24,-59,5,1634891694.0,32.000000
-25,-58,7,1634891694.0,32.000000
-24,-58,8,1634891694.0,32.000000
-23,-58,7,1634891694.0,32.000000
-23,-59,6,1634891694.0,32.000000
-24,-59,5,1634891694.0,32.000000
-24,-58,5,1634891694.0,32.000000
-23,-58,6,1634891694.0,32.000000
-23,-59,6,1634891694.0,32.000000
-24,-58,6,1634891694.0,32.000000
-24,-58,6,1634891694.0,32.000000
-24,-59,6,1634891694.0,32.000000
-24,-58,6,1634891694.0,32.000000
-24,-58,6,1634891694.0,32.000000
-24,-59,6,1634891694.0,32.000000
-24,-58,6,1634891694.0,32.000000
-24,-58,6,1634891694.0,32.000000
-24,-59,7,1634891694.0,32.000000
-23,-58,7,1634891694.0,32.000000
-23,-59,7,1634891694.0,32.000000
-24,-59,6,1634891694.0,32.000000
-24,-58,6,1634891694.0,32.000000
-24,-58,7,1634891694.0,32.000000
-23,-58,7,1634891694.0,32.000000
-23,-59,7,1634891694.0,32.000000
-23,-58,6,1634891694.0,32.000000
-23,-58,6,1634891694.0,32.000000
-23,-58,6,1634891694.0,32.000000
-23,-58,7,1634891694.0,32.000000
-23,-58,6,1634891694.0,32.000000
-23,-59,6,1634891694.0,32.000000
-24,-59,7,1634891694.0,32.000000
-24,-59,6,1634891694.0,32.000000
-23,-59,6,1634891694.0,32.000000
-23,-59,7,1634891694.0,32.000000
-23,-58,6,1634891694.0,32.000000
-23,-58,7,1634891694.0,32.000000
-23,-58,7,1634891694.0,32.000000
-23,-58,7,1634891694.0,32.000000
-23,-58,8,1634891694.0,32.000000
-23,-58,7,1634891694.0,32.000000
-24,-58,7,1634891694.0,32.000000
-24,-58,7,1634891694.0,32.000000
-24,-58,7,1634891694.0,32.000000
-24,-58,6,1634891694.0,32.000000
-25,-58,6,1634891694.0,32.000000
-25,-59,6,1634891694.0,32.000000
-24,-58,7,1634891694.0,32.000000
-25,-58,6,1634891694.0,32.000000
-25,-59,7,1634891694.0,32.000000
-25,-58,7,1634891694.0,32.000000
-24,-58,8,1634891694.0,32.000000
-24,-58,7,1634891694.0,32.000000
-22,-58,8,1634891694.0,32.000000
-22,-58,7,1634891694.0,32.000000
-23,-58,7,1634891694.0,32.000000
-26,-59,6,1634891694.0,32.000000
-25,-59,7,1634891694.0,32.000000
-24,-59,6,1634891694.0,32.000000
-23,-59,5,1634891694.0,32.000000
-22,-59,6,1634891694.0,32.000000
-22,-59,6,1634891694.0,32.000000
-20,-59,6,1634891694.0,32.000000
-22,-59,4,1634891694.0,32.000000
-19,-60,3,1634891694.0,32.000000
-20,-60,4,1634891694.0,32.000000
-19,-59,7,1634891694.0,32.000000
-22,-59,6,1634891694.0,32.000000
-20,-59,9,1634891694.0,32.000000
-20,-59,10,1634891694.0,32.000000
-20,-59,9,1634891694.0,32.000000
-20,-59,8,1634891694.0,32.000000
-17,-60,9,1634891694.0,32.000000
-15,-60,10,1634891694.0,32.000000
-16,-60,8,1634891694.0,32.000000
-17,-60,8,1634891694.0,32.000000
-16,-60,8,1634891694.0,32.000000
-15,-60,9,1634891694.0,32.000000
-16,-60,9,1634891694.0,32.000000
-16,-60,8,1634891694.0,32.000000
-16,-60,7,1634891694.0,32.000000
-16,-61,7,1634891694.0,32.000000
-15,-60,8,1634891694.0,32.000000
-16,-60,8,1634891694.0,32.000000
-16,-60,7,1634891694.0,32.000000
-16,-60,5,1634891694.0,32.000000
-17,-61,5,1634891694.0,32.000000
-16,-60,7,1634891694.0,32.000000
-17,-61,8,1634891694.0,32.000000
-17,-60,7,1634891694.0,32.000000
-17,-60,7,1634891694.0,32.000000
-16,-60,7,1634891694.0,32.000000
-16,-60,8,1634891694.0,32.000000
-17,-62,8,1634891694.0,32.000000
-17,-60,8,1634891694.0,32.000000
-17,-60,7,1634891694.0,32.000000
-16,-60,7,1634891694.0,32.000000
-16,-61,8,1634891694.0,32.000000
-16,-60,8,1634891694.0,32.000000
-17,-60,7,1634891694.0,32.000000
-16,-60,7,1634891694.0,32.000000
-16,-60,7,1634891694.0,32.000000
-16,-61,7,1634891694.0,32.000000
-16,-61,8,1634891694.0,32.000000
-16,-60,8,1634891694.0,32.000000
-16,-60,8,1634891694.0,32.000000
-16,-61,8,1634891694.0,32.000000
-16,-61,7,1634891694.0,32.000000
-16,-60,7,1634891694.0,32.000000
-16,-60,8,1634891694.0,32.000000
-16,-60,8,1634891694.0,32.000000
-17,-60,8,1634891694.0,32.000000
-17,-60,7,1634891694.0,32.000000
-16,-60,7,1634891694.0,32.000000
-17,-60,7,1634891694.0,32.000000
-17,-60,6,1634891694.0,32.000000
-18,-60,6,1634891694.0,32.000000
-18,-60,7,1634891694.0,32.000000
-18,-60,7,1634891694.0,32.000000
-18,-60,8,1634891694.0,32.000000
-17,-60,7,1634891694.0,32.000000
-17,-60,7,1634891694.0,32.000000
-17,-60,8,1634891694.0,32.000000
-17,-60,8,1634891694.0,32.000000
-17,-60,8,1634891694.0,32.000000
-18,-60,7,1634891694.0,32.000000
-17,-60,8,1634891694.0,32.000000
-17,-60,8,1634891694.0,32.000000
-17,-60,7,1634891694.0,32.000000
-18,-60,7,1634891694.0,32.000000
-17,-61,8,1634891694.0,32.000000
-17,-60,7,1634891694.0,32.000000
-16,-61,6,1634891694.0,32.000000
-17,-60,6,1634891694.0,32.000000
-17,-60,8,1634891694.0,32.000000
-17,-60,8,1634891694.0,32.000000
-16,-61,9,1634891694.0,32.000000
-16,-60,9,1634891694.0,32.000000
-15,-60,8,1634891694.0,32.000000
-15,-61,7,1634891694.0,32.000000
-14,-61,8,1634891694.0,32.000000
-15,-61,7,1634891694.0,32.000000
-15,-61,8,1634891694.0,32.000000
-14,-60,9,1634891694.0,32.000000
-14,-61,8,1634891694.0,32.000000
-15,-61,7,1634891694.0,32.000000
-15,-61,7,1634891694.0,32.000000
-15,-61,7,1634891694.0,32.000000
-16,-61,6,1634891694.0,32.000000
-17,-61,7,1634891694.0,32.000000
-16,-61,8,1634891694.0,32.000000
-15,-61,9,1634891694.0,32.000000
-13,-61,9,1634891694.0,32.000000
-13,-61,9,1634891694.0,32.000000
-11,-61,8,1634891694.0,32.000000
-11,-61,8,1634891694.0,32.000000
-11,-61,7,1634891694.0,32.000000
-12,-61,7,1634891694.0,32.000000
-12,-61,7,1634891694.0,32.000000
-12,-61,8,1634891694.0,32.000000
-12,-61,7,1634891694.0,32.000000
-13,-61,7,1634891694.0,32.000000
-14,-61,8,1634891694.0,32.000000
-14,-60,7,1634891694.0,32.000000
-15,-61,6,1634891694.0,32.000000
-15,-61,6,1634891694.0,32.000000
-15,-60,7,1634891694.0,32.000000
-15,-61,5,1634891694.0,32.000000
-16,-61,5,1634891694.0,32.000000
-16,-61,5,1634891694.0,32.000000
-18,-61,5,1634891694.0,32.000000
-18,-60,6,1634891694.0,32.000000
-16,-60,9,1634891694.0,32.000000
-17,-60,10,1634891694.0,32.000000
-16,-60,11,1634891694.0,32.000000
-18,-60,9,1634891694.0,32.000000
-18,-61,5,1634891694.0,32.000000
-16,-61,6,1634891694.0,32.000000
-15,-61,4,1634891694.0,32.000000
-16,-61,4,1634891694.0,32.000000
-16,-61,4,1634891694.0,32.000000
-16,-61,5,1634891694.0,32.000000
-16,-61,5,1634891694.0,32.000000
-17,-60,5,1634891694.0,32.000000
-17,-60,5,1634891694.0,32.000000
-17,-61,5,1634891694.0,32.000000
-16,-61,5,1634891694.0,32.000000
-16,-61,4,1634891694.0,32.000000
-15,-60,5,1634891694.0,32.000000
-15,-61,5,1634891694.0,32.000000
-16,-61,5,1634891694.0,32.000000
-17,-61,5,1634891694.0,32.000000
-17,-61,6,1634891694.0,32.000000
-16,-60,6,1634891694.0,32.000000
-17,-60,6,1634891694.0,32.000000
-17,-61,5,1634891694.0,32.000000
-18,-60,5,1634891694.0,32.000000
-18,-60,6,1634891694.0,32.000000
-18,-60,6,1634891694.0,32.000000
-18,-60,5,1634891694.0,32.000000
-17,-60,5,1634891694.0,32.000000
-18,-60,5,1634891694.0,32.000000
-18,-61,5,1634891694.0,32.000000
-18,-61,4,1634891694.0,32.000000
-18,-61,5,1634891694.0,32.000000
-17,-61,5,1634891694.0,32.000000
-16,-60,5,1634891694.0,32.000000
-16,-60,5,1634891694.0,32.000000
-17,-61,5,1634891694.0,32.000000
-18,-61,5,1634891694.0,32.000000
-19,-61,4,1634891694.0,32.000000
-21,-61,3,1634891694.0,32.000000
-20,-61,5,1634891694.0,32.000000
-16,-60,7,1634891694.0,32.000000
-14,-61,8,1634891694.0,32.000000
-12,-61,7,1634891694.0,32.000000
-13,-62,5,1634891694.0,32.000000
-11,-61,5,1634891694.0,32.000000
-11,-61,7,1634891694.0,32.000000
-13,-61,8,1634891694.0,32.000000
-11,-61,6,1634891694.0,32.000000
-9,-61,7,1634891694.0,32.000000
-7,-62,6,1634891694.0,32.000000
-6,-61,9,1634891694.0,32.000000
-10,-61,8,1634891694.0,32.000000
-12,-62,8,1634891694.0,32.000000
-14,-61,7,1634891694.0,32.000000
-14,-61,7,1634891694.0,32.000000
-11,-61,12,1634891694.0,32.000000
-12,-61,12,1634891694.0,32.000000
-11,-60,13,1634891694.0,32.000000
-13,-60,12,1634891694.0,32.000000
-15,-61,12,1634891694.0,32.000000
-15,-60,12,1634891694.0,32.000000
-14,-60,12,1634891694.0,32.000000
-13,-60,13,1634891694.0,32.000000
-13,-60,14,1634891694.0,32.000000
-13,-61,15,1634891694.0,32.000000
-13,-60,15,1634891694.0,32.000000
-13,-60,15,1634891694.0,32.000000
-13,-60,15,1634891694.0,32.000000
-13,-60,15,1634891694.0,32.000000
-13,-60,14,1634891694.0,32.000000
-13,-60,13,1634891694.0,32.000000
-12,-60,13,1634891694.0,32.000000
-12,-60,13,1634891694.0,32.000000
-12,-60,14,1634891694.0,32.000000
-12,-60,13,1634891694.0,32.000000
-12,-59,13,1634891694.0,32.000000
-13,-60,12,1634891694.0,32.000000
-14,-60,11,1634891694.0,32.000000
-17,-61,9,1634891694.0,32.000000
-18,-60,9,1634891694.0,32.000000
-20,-60,10,1634891694.0,32.000000
-20,-59,12,1634891694.0,32.000000
-18,-60,14,1634891694.0,32.000000
-18,-59,13,1634891694.0,32.000000
-17,-59,11,1634891694.0,32.000000
-13,-60,13,1634891694.0,32.000000
-15,-59,11,1634891694.0,32.000000
-12,-60,13,1634891694.0,32.000000
-16,-60,14,1634891694.0,32.000000
-17,-59,14,1634891694.0,32.000000
-16,-59,14,1634891694.0,32.000000
-16,-60,14,1634891694.0,32.000000
-16,-60,13,1634891694.0,32.000000
-15,-60,13,1634891694.0,32.000000
-16,-60,12,1634891694.0,32.000000
-16,-60,12,1634891694.0,32.000000
-16,-60,12,1634891694.0,32.000000
-15,-60,12,1634891694.0,32.000000
-16,-60,12,1634891694.0,32.000000
-16,-60,12,1634891694.0,32.000000
-15,-60,11,1634891694.0,32.000000
-15,-60,11,1634891694.0,32.000000
-16,-60,11,1634891694.0,32.000000
-16,-60,12,1634891694.0,32.000000
-15,-60,12,1634891694.0,32.000000
-15,-60,11,1634891694.0,32.000000
-15,-60,11,1634891694.0,32.000000
-15,-60,11,1634891694.0,32.000000
-15,-60,11,1634891694.0,32.000000
-16,-60,11,1634891694.0,32.000000
-15,-60,12,1634891694.0,32.000000
-15,-60,11,1634891694.0,32.000000
-16,-60,11,1634891694.0,32.000000
-15,-60,12,1634891694.0,32.000000
-15,-60,12,1634891694.0,32.000000
-15,-60,12,1634891694.0,32.000000
-16,-60,12,1634891694.0,32.000000
-15,-60,12,1634891694.0,32.000000
-16,-60,12,1634891694.0,32.000000
-16,-60,11,1634891694.0,32.000000
-15,-60,11,1634891694.0,32.000000
-15,-60,11,1634891694.0,32.000000
-16,-60,11,1634891694.0,32.000000
-16,-60,11,1634891694.0,32.000000
-16,-60,11,1634891694.0,32.000000
-16,-60,11,1634891694.0,32.000000
-16,-60,11,1634891694.0,32.000000
-15,-60,11,1634891694.0,32.000000
-16,-60,11,1634891694.0,32.000000
-15,-60,12,1634891694.0,32.000000
-16,-60,12,1634891694.0,32.000000
-16,-60,12,1634891694.0,32.000000
-16,-60,11,1634891694.0,32.000000
-16,-60,12,1634891694.0,32.000000
-15,-60,12,1634891694.0,32.000000
-16,-60,11,1634891694.0,32.000000
-15,-60,11,1634891694.0,32.000000
-16,-60,11,1634891694.0,32.000000
-16,-60,12,1634891694.0,32.000000
-16,-60,12,1634891694.0,32.000000
-16,-60,11,1634891694.0,32.000000
-15,-60,11,1634891694.0,32.000000
-16,-60,12,1634891694.0,32.000000
-17,-60,11,1634891694.0,32.000000
-16,-60,11,1634891694.0,32.000000
-16,-60,11,1634891694.0,32.000000
-15,-60,11,1634891694.0,32.000000
-16,-60,11,1634891694.0,32.000000
-16,-60,11,1634891694.0,32.000000
-16,-60,11,1634891694.0,32.000000
-16,-60,12,1634891694.0,32.000000
-16,-60,12,1634891694.0,32.000000
-16,-60,11,1634891694.0,32.000000
-16,-60,11,1634891694.0,32.000000
-15,-60,12,1634891694.0,32.000000
-15,-60,12,1634891694.0,32.000000
-15,-60,12,1634891694.0,32.000000
-15,-60,12,1634891694.0,32.000000
-16,-60,11,1634891694.0,32.000000
-16,-60,10,1634891694.0,32.000000
-16,-60,10,1634891694.0,32.000000
-15,-60,11,1634891694.0,32.000000
-15,-60,12,1634891694.0,32.000000
-16,-60,12,1634891694.0,32.000000
-16,-60,11,1634891694.0,32.000000
-15,-60,11,1634891694.0,32.000000
-15,-60,11,1634891694.0,32.000000
-15,-60,12,1634891694.0,32.000000
-15,-60,12,1634891694.0,32.000000
-16,-60,11,1634891694.0,32.000000
-15,-60,11,1634891694.0,32.000000
-15,-60,11,1634891694.0,32.000000
-16,-60,11,1634891694.0,32.000000
-16,-60,11,1634891694.0,32.000000
-15,-60,11,1634891694.0,32.000000
-15,-60,11,1634891694.0,32.000000
-15,-60,11,1634891694.0,32.000000
-15,-60,11,1634891694.0,32.000000
-15,-60,11,1634891694.0,32.000000
-15,-60,11,1634891694.0,32.000000
-16,-60,11,1634891694.0,32.000000
-16,-60,11,1634891694.0,32.000000
-15,-60,11,1634891694.0,32.000000
-16,-60,11,1634891694.0,32.000000
-15,-60,11,1634891694.0,32.000000
-15,-60,11,1634891694.0,32.000000
-15,-60,11,1634891694.0,32.000000
-15,-60,12,1634891694.0,32.000000
-15,-60,11,1634891694.0,32.000000
-15,-60,11,1634891694.0,32.000000
-15,-60,12,1634891694.0,32.000000
-15,-60,12,1634891694.0,32.000000
-15,-60,11,1634891694.0,32.000000
-15,-60,11,1634891694.0,32.000000
-15,-60,11,1634891694.0,32.000000
-15,-60,11,1634891694.0,32.000000
-16,-60,11,1634891694.0,32.000000
-16,-60,11,1634891694.0,32.000000
-15,-60,11,1634891694.0,32.000000
-15,-60,11,1634891694.0,32.000000
-15,-60,11,1634891694.0,32.000000
-15,-60,11,1634891694.0,32.000000
-15,-60,11,1634891694.0,32.000000
-15,-60,12,1634891694.0,32.000000
-15,-60,11,1634891694.0,32.000000
-15,-60,11,1634891694.0,32.000000
-15,-60,11,1634891694.0,32.000000
-15,-60,11,1634891694.0,32.000000
-15,-60,11,1634891694.0,32.000000
-15,-60,11,1634891694.0,32.000000
-15,-60,11,1634891694.0,32.000000
-15,-60,11,1634891694.0,32.000000
-15,-60,11,1634891694.0,32.000000
-15,-60,11,1634891694.0,32.000000
-16,-60,11,1634891694.0,32.000000
-16,-60,11,1634891694.0,32.000000
-15,-60,11,1634891694.0,32.000000
-15,-60,11,1634891694.0,32.000000
-15,-60,11,1634891694.0,32.000000
-15,-60,11,1634891694.0,32.000000
-15,-60,11,1634891694.0,32.000000
-15,-60,11,1634891694.0,32.000000
-15,-60,11,1634891694.0,32.000000
-15,-60,11,1634891694.0,32.000000
-15,-60,11,1634891694.0,32.000000
-15,-60,11,1634891694.0,32.000000
-15,-60,11,1634891694.0,32.000000
-15,-60,11,1634891694.0,32.000000
-15,-60,11,1634891694.0,32.000000
-15,-60,11,1634891694.0,32.000000
-16,-60,11,1634891694.0,32.000000
-15,-60,11,1634891694.0,32.000000
-15,-60,11,1634891694.0,32.000000
-15,-60,11,1634891694.0,32.000000
-15,-60,11,1634891694.0,32.000000
-15,-60,11,1634891694.0,32.000000
-16,-60,11,1634891694.0,32.000000
-15,-60,11,1634891694.0,32.000000
-15,-60,11,1634891694.0,32.000000
-15,-60,11,1634891694.0,32.000000
-15,-60,11,1634891694.0,32.000000
-15,-60,11,1634891694.0,32.000000
-15,-60,11,1634891694.0,32.000000
-15,-60,11,1634891694.0,32.000000
-15,-60,11,1634891694.0,32.000000
-15,-60,11,1634891694.0,32.000000
-15,-60,11,1634891694.0,32.000000
-15,-60,11,1634891694.0,32.000000
-15,-60,11,1634891694.0,32.000000
-15,-60,11,1634891694.0,32.000000
-15,-60,11,1634891694.0,32.000000
-15,-60,11,1634891694.0,32.000000
-15,-60,11,1634891694.0,32.000000
-15,-60,11,1634891694.0,32.000000
-15,-60,11,1634891694.0,32.000000
-15,-60,11,1634891694.0,32.000000
-15,-60,11,1634891694.0,32.000000
-15,-60,11,1634891694.0,32.000000
-15,-60,11,1634891694.0,32.000000
-15,-60,11,1634891694.0,32.000000
-15,-60,11,1634891694.0,32.000000
-15,-60,11,1634891694.0,32.000000
-15,-60,11,1634891694.0,32.000000
-15,-60,11,1634891694.0,32.000000
-15,-60,11,1634891694.0,32.000000
-15,-60,11,1634891694.0,32.000000
-15,-60,11,1634891694.0,32.000000
-15,-60,11,1634891694.0,32.000000
-15,-60,11,1634891694.0,32.000000
-15,-60,11,1634891694.0,32.000000
-15,-60,11,1634891694.0,32.000000
-15,-60,11,1634891694.0,32.000000
-15,-60,11,1634891694.0,32.000000
-15,-60,11,1634891694.0,32.000000
-15,-60,11,1634891694.0,32.000000
-15,-60,11,1634891694.0,32.000000
-15,-60,11,1634891694.0,32.000000
-14,-60,11,1634891694.0,32.000000
-15,-60,11,1634891694.0,32.000000
-15,-60,11,1634891694.0,32.000000
-14,-60,11,1634891694.0,32.000000
-15,-60,11,1634891694.0,32.000000
-16,-60,11,1634891694.0,32.000000
-15,-60,11,1634891694.0,32.000000
-14,-60,11,1634891694.0,32.000000
-15,-60,11,1634891694.0,32.000000
-15,-60,11,1634891694.0,32.000000
-15,-60,11,1634891694.0,32.000000
-14,-60,11,1634891694.0,32.000000
-14,-60,11,1634891694.0,32.000000
-15,-60,11,1634891694.0,32.000000
-15,-60,11,1634891694.0,32.000000
-15,-60,11,1634891694.0,32.000000
-15,-60,11,1634891694.0,32.000000
-15,-60,11,1634891694.0,32.000000
-15,-60,11,1634891694.0,32.000000
-15,-60,11,1634891694.0,32.000000
-15,-60,11,1634891694.0,32.000000
-15,-60,11,1634891694.0,32.000000
-15,-60,11,1634891694.0,32.000000
-15,-60,11,1634891694.0,32.000000
-15,-60,11,1634891694.0,32.000000
-15,-60,12,1634891694.0,32.000000
-15,-60,11,1634891694.0,32.000000
-15,-60,11,1634891694.0,32.000000
-15,-60,11,1634891694.0,32.000000
-15,-60,11,1634891694.0,32.000000
-15,-60,11,1634891694.0,32.000000
-14,-60,11,1634891694.0,32.000000
-15,-60,11,1634891694.0,32.000000
-15,-60,11,1634891694.0,32.000000
-15,-60,11,1634891694.0,32.000000
-15,-60,11,1634891694.0,32.000000
-15,-60,11,1634891694.0,32.000000
-15,-60,11,1634891694.0,32.000000
-15,-60,11,1634891694.0,32.000000
-15,-60,11,1634891694.0,32.000000
-15,-60,11,1634891694.0,32.000000
-15,-60,11,1634891694.0,32.000000
-15,-60,11,1634891694.0,32.000000
-15,-60,11,1634891694.0,32.000000
-15,-60,11,1634891694.0,32.000000
-15,-60,11,1634891694.0,32.000000
-15,-60,11,1634891694.0,32.000000
-15,-60,11,1634891694.0,32.000000
-15,-60,11,1634891694.0,32.000000
-15,-60,11,1634891694.0,32.000000
-15,-60,11,1634891694.0,32.000000
-15,-60,11,1634891694.0,32.000000
-15,-60,11,1634891694.0,32.000000
-14,-60,11,1634891694.0,32.000000
-15,-60,11,1634891694.0,32.000000
-15,-60,11,1634891694.0,32.000000
-15,-60,11,1634891694.0,32.000000
-14,-60,12,1634891694.0,32.000000
-15,-60,11,1634891694.0,32.000000
-15,-60,11,1634891694.0,32.000000
-15,-60,11,1634891694.0,32.000000
-13,-60,12,1634891694.0,32.000000
-14,-60,12,1634891694.0,32.000000
-16,-60,11,1634891694.0,32.000000
-15,-60,11,1634891694.0,32.000000
-14,-60,11,1634891694.0,32.000000
-14,-60,11,1634891694.0,32.000000
-15,-60,12,1634891694.0,32.000000
-15,-60,12,1634891694.0,32.000000
-14,-60,11,1634891694.0,32.000000
-13,-60,10,1634891694.0,32.000000
-13,-60,8,1634891694.0,32.000000
-13,-60,7,1634891694.0,32.000000
-15,-60,11,1634891694.0,32.000000
-12,-60,16,1634891694.0,32.000000
-12,-59,17,1634891694.0,32.000000
-15,-60,16,1634891694.0,32.000000
-14,-60,17,1634891694.0,32.000000
-16,-60,16,1634891694.0,32.000000
-16,-60,14,1634891694.0,32.000000
-16,-60,12,1634891694.0,32.000000
-15,-60,9,1634891694.0,32.000000
-15,-60,8,1634891694.0,32.000000
-14,-60,10,1634891694.0,32.000000
-13,-60,12,1634891694.0,32.000000
-14,-60,13,1634891694.0,32.000000
-16,-60,13,1634891694.0,32.000000
-15,-60,13,1634891694.0,32.000000
-14,-60,13,1634891694.0,32.000000
-14,-60,13,1634891694.0,32.000000
-13,-60,13,1634891694.0,32.000000
-13,-60,13,1634891694.0,32.000000
-13,-60,13,1634891694.0,32.000000
-14,-60,13,1634891694.0,32.000000
-14,-60,13,1634891694.0,32.000000
-14,-60,13,1634891694.0,32.000000
-14,-60,12,1634891694.0,32.000000
-14,-60,12,1634891694.0,32.000000
-14,-60,12,1634891694.0,32.000000
-14,-60,12,1634891694.0,32.000000
-14,-60,12,1634891694.0,32.000000
-14,-60,12,1634891694.0,32.000000
-14,-60,12,1634891694.0,32.000000
-14,-60,12,1634891694.0,32.000000
-14,-60,12,1634891694.0,32.000000
-14,-60,13,1634891694.0,32.000000
-15,-60,13,1634891694.0,32.000000
-14,-60,12,1634891694.0,32.000000
-14,-60,13,1634891694.0,32.000000
-14,-60,13,1634891694.0,32.000000
-14,-60,13,1634891694.0,32.000000
-14,-60,12,1634891694.0,32.000000
-14,-60,12,1634891694.0,32.000000
-14,-60,12,1634891694.0,32.000000
-14,-60,12,1634891694.0,32.000000
-14,-60,13,1634891694.0,32.000000
-15,-60,13,1634891694.0,32.000000
-16,-60,14,1634891694.0,32.000000
-17,-60,14,1634891694.0,32.000000
-15,-60,13,1634891694.0,32.000000
-13,-60,12,1634891694.0,32.000000
-9,-61,10,1634891694.0,32.000000
-8,-60,10,1634891694.0,32.000000
-11,-60,13,1634891694.0,32.000000
-14,-60,12,1634891694.0,32.000000
-17,-60,11,1634891694.0,32.000000
-17,-60,10,1634891694.0,32.000000
-17,-61,10,1634891694.0,32.000000
-18,-60,9,1634891694.0,32.000000
-18,-60,9,1634891694.0,32.000000
-18,-60,10,1634891694.0,32.000000
-16,-60,13,1634891694.0,32.000000
-16,-60,12,1634891694.0,32.000000
-15,-60,11,1634891694.0,32.000000
-17,-60,10,1634891694.0,32.000000
-18,-60,10,1634891694.0,32.000000
-16,-60,12,1634891694.0,32.000000
-15,-60,12,1634891694.0,32.000000
-19,-60,13,1634891694.0,32.000000
-18,-59,13,1634891694.0,32.000000
-18,-59,11,1634891694.0,32.000000
-17,-59,11,1634891694.0,32.000000
-20,-59,11,1634891694.0,32.000000
-18,-59,11,1634891694.0,32.000000
-17,-60,10,1634891694.0,32.000000
-17,-60,8,1634891694.0,32.000000
-17,-60,10,1634891694.0,32.000000
-17,-60,9,1634891694.0,32.000000
-18,-60,8,1634891694.0,32.000000
-18,-60,8,1634891694.0,32.000000
-18,-60,9,1634891694.0,32.000000
-18,-60,9,1634891694.0,32.000000
-18,-60,9,1634891694.0,32.000000
-18,-60,9,1634891694.0,32.000000
-17,-60,9,1634891694.0,32.000000
-19,-60,9,1634891694.0,32.000000
-18,-60,10,1634891694.0,32.000000
-18,-60,10,1634891694.0,32.000000
-17,-60,9,1634891694.0,32.000000
-17,-60,8,1634891694.0,32.000000
-18,-60,8,1634891694.0,32.000000
-20,-60,8,1634891694.0,32.000000
-18,-60,8,1634891694.0,32.000000
-18,-60,9,1634891694.0,32.000000
-18,-60,9,1634891694.0,32.000000
-18,-60,9,1634891694.0,32.000000
-18,-60,7,1634891694.0,32.000000
-20,-60,8,1634891694.0,32.000000
-19,-60,9,1634891694.0,32.000000
-18,-60,9,1634891694.0,32.000000
-16,-60,9,1634891694.0,32.000000
-18,-60,7,1634891694.0,32.000000
-19,-60,8,1634891694.0,32.000000
-20,-60,6,1634891694.0,32.000000
-21,-60,4,1634891694.0,32.000000
-17,-60,6,1634891694.0,32.000000
-17,-60,5,1634891694.0,32.000000
-18,-60,7,1634891694.0,32.000000
-17,-60,7,1634891694.0,32.000000
-17,-60,9,1634891694.0,32.000000
-19,-60,8,1634891694.0,32.000000
-19,-60,8,1634891694.0,32.000000
-19,-60,8,1634891694.0,32.000000
-20,-60,4,1634891694.0,32.000000
-19,-60,5,1634891694.0,32.000000
-18,-60,7,1634891694.0,32.000000
-19,-60,7,1634891694.0,32.000000
-19,-60,8,1634891694.0,32.000000
-18,-60,8,1634891694.0,32.000000
-18,-60,8,1634891694.0,32.000000
-18,-60,7,1634891694.0,32.000000
-18,-60,7,1634891694.0,32.000000
-18,-60,7,1634891694.0,32.000000
-18,-60,7,1634891694.0,32.000000
-18,-60,7,1634891694.0,32.000000
-18,-60,8,1634891694.0,32.000000
-18,-60,8,1634891694.0,32.000000
-18,-60,7,1634891694.0,32.000000
-18,-60,8,1634891694.0,32.000000
-18,-60,8,1634891694.0,32.000000
-19,-60,7,1634891694.0,32.000000
-18,-60,7,1634891694.0,32.000000
-17,-60,8,1634891694.0,32.000000
-17,-60,8,1634891694.0,32.000000
-18,-60,8,1634891694.0,32.000000
-18,-60,8,1634891694.0,32.000000
-18,-60,7,1634891694.0,32.000000
-17,-60,7,1634891694.0,32.000000
-18,-60,8,1634891694.0,32.000000
-18,-60,7,1634891694.0,32.000000
-18,-60,7,1634891694.0,32.000000
-17,-60,8,1634891694.0,32.000000
-17,-60,8,1634891694.0,32.000000
-18,-60,8,1634891694.0,32.000000
-18,-59,6,1634891694.0,32.000000
-20,-60,6,1634891694.0,32.000000
-17,-60,8,1634891694.0,32.000000
-20,-60,6,1634891694.0,32.000000
-19,-59,9,1634891694.0,32.000000
-19,-59,13,1634891694.0,32.000000
-22,-60,8,1634891694.0,32.000000
-21,-59,5,1634891694.0,32.000000
-18,-59,7,1634891694.0,32.000000
-22,-60,5,1634891694.0,32.000000
-22,-58,8,1634891694.0,32.000000
-17,-60,5,1634891694.0,32.000000
-21,-60,0,1634891694.0,32.000000
-20,-59,10,1634891694.0,32.000000
-24,-59,7,1634891694.0,32.000000
-24,-59,4,1634891694.0,32.000000
-24,-60,3,1634891694.0,32.000000
-21,-59,6,1634891694.0,32.000000
-21,-59,5,1634891694.0,32.000000
-22,-59,4,1634891694.0,32.000000
-21,-60,4,1634891694.0,32.000000
-21,-59,6,1634891694.0,32.000000
-19,-59,5,1634891694.0,32.000000
-25,-59,5,1634891694.0,32.000000
-23,-59,6,1634891694.0,32.000000
-25,-59,5,1634891694.0,32.000000
-24,-58,6,1634891694.0,32.000000
-24,-59,6,1634891694.0,32.000000
-26,-58,5,1634891694.0,32.000000
-23,-58,7,1634891694.0,32.000000
-22,-58,8,1634891694.0,32.000000
-22,-57,9,1634891694.0,32.000000
-20,-60,12,1634891694.0,32.000000
-20,-57,12,1634891694.0,32.000000
-23,-58,12,1634891694.0,32.000000
-24,-57,12,1634891694.0,32.000000
-19,-59,16,1634891694.0,32.000000
-20,-58,14,1634891694.0,32.000000
-21,-58,13,1634891694.0,32.000000
-21,-58,13,1634891694.0,32.000000
-14,-59,18,1634891694.0,32.000000
-14,-59,19,1634891694.0,32.000000
-20,-58,16,1634891694.0,32.000000
-20,-58,15,1634891694.0,32.000000
-19,-58,15,1634891694.0,32.000000
-18,-59,16,1634891694.0,32.000000
-17,-59,16,1634891694.0,32.000000
-18,-58,16,1634891694.0,32.000000
-18,-59,15,1634891694.0,32.000000
-16,-59,15,1634891694.0,32.000000
-15,-59,16,1634891694.0,32.000000
-18,-59,16,1634891694.0,32.000000
-19,-59,16,1634891694.0,32.000000
-17,-59,16,1634891694.0,32.000000
-17,-59,16,1634891694.0,32.000000
-17,-58,15,1634891694.0,32.000000
-17,-59,15,1634891694.0,32.000000
-18,-59,16,1634891694.0,32.000000
-17,-59,16,1634891694.0,32.000000
-17,-59,15,1634891694.0,32.000000
-17,-59,15,1634891694.0,32.000000
-17,-59,16,1634891694.0,32.000000
-17,-59,16,1634891694.0,32.000000
-15,-59,16,1634891694.0,32.000000
-17,-59,16,1634891694.0,32.000000
-16,-59,16,1634891694.0,32.000000
-17,-59,16,1634891694.0,32.000000
-17,-59,15,1634891694.0,32.000000
-17,-59,15,1634891694.0,32.000000
-17,-59,15,1634891694.0,32.000000
-17,-59,15,1634891694.0,32.000000
-16,-59,16,1634891694.0,32.000000
-17,-59,16,1634891694.0,32.000000
-16,-59,15,1634891694.0,32.000000
-16,-59,15,1634891694.0,32.000000
-16,-59,16,1634891694.0,32.000000
-17,-59,15,1634891694.0,32.000000
-16,-59,15,1634891694.0,32.000000
-16,-59,15,1634891694.0,32.000000
-16,-59,16,1634891694.0,32.000000
-16,-59,15,1634891694.0,32.000000
-17,-59,16,1634891694.0,32.000000
-17,-59,16,1634891694.0,32.000000
-16,-59,16,1634891694.0,32.000000
-16,-59,16,1634891694.0,32.000000
-16,-59,16,1634891694.0,32.000000
-16,-59,15,1634891694.0,32.000000
-16,-59,16,1634891694.0,32.000000
-16,-59,16,1634891694.0,32.000000
-17,-59,16,1634891694.0,32.000000
-16,-59,16,1634891694.0,32.000000
-17,-59,15,1634891694.0,32.000000
-16,-59,15,1634891694.0,32.000000
-16,-59,16,1634891694.0,32.000000
-17,-59,15,1634891694.0,32.000000
-16,-59,15,1634891694.0,32.000000
-16,-59,16,1634891694.0,32.000000
-16,-59,16,1634891694.0,32.000000
-16,-59,15,1634891694.0,32.000000
-17,-59,15,1634891694.0,32.000000
-16,-59,15,1634891694.0,32.000000
-16,-59,16,1634891694.0,32.000000
-16,-59,15,1634891694.0,32.000000
-16,-59,15,1634891694.0,32.000000
-16,-59,15,1634891694.0,32.000000
-17,-59,15,1634891694.0,32.000000
-17,-59,15,1634891694.0,32.000000
-15,-59,16,1634891694.0,32.000000
-16,-59,15,1634891694.0,32.000000
-16,-59,16,1634891694.0,32.000000
-16,-59,16,1634891694.0,32.000000
-16,-59,16,1634891694.0,32.000000
-16,-59,16,1634891694.0,32.000000
-16,-59,15,1634891694.0,32.000000
-17,-59,16,1634891694.0,32.000000
-15,-59,16,1634891694.0,32.000000
-15,-59,16,1634891694.0,32.000000
-16,-59,16,1634891694.0,32.000000
-17,-59,16,1634891694.0,32.000000
-16,-59,16,1634891694.0,32.000000
-17,-59,16,1634891694.0,32.000000
-15,-59,14,1634891694.0,32.000000
-15,-59,15,1634891694.0,32.000000
-15,-59,15,1634891694.0,32.000000
-16,-59,15,1634891694.0,32.000000
-17,-59,16,1634891694.0,32.000000
-17,-59,16,1634891694.0,32.000000
-17,-59,16,1634891694.0,32.000000
-16,-59,15,1634891694.0,32.000000
-15,-59,15,1634891694.0,32.000000
-15,-59,15,1634891694.0,32.000000
-16,-59,16,1634891694.0,32.000000
-16,-59,15,1634891694.0,32.000000
-17,-59,15,1634891694.0,32.000000
-15,-59,16,1634891694.0,32.000000
-16,-59,16,1634891694.0,32.000000
-17,-59,16,1634891694.0,32.000000
-17,-59,15,1634891694.0,32.000000
-16,-59,15,1634891694.0,32.000000
-16,-59,15,1634891694.0,32.000000
-16,-59,15,1634891694.0,32.000000
-16,-59,15,1634891694.0,32.000000
-16,-59,16,1634891694.0,32.000000
-16,-59,16,1634891694.0,32.000000
-16,-59,15,1634891694.0,32.000000
-16,-59,15,1634891694.0,32.000000
-16,-59,15,1634891694.0,32.000000
-16,-59,15,1634891694.0,32.000000
-16,-59,15,1634891694.0,32.000000
-16,-59,15,1634891694.0,32.000000
-16,-59,16,1634891694.0,32.000000
-16,-59,16,1634891694.0,32.000000
-17,-59,15,1634891694.0,32.000000
-16,-59,16,1634891694.0,32.000000
-16,-59,16,1634891694.0,32.000000
-16,-59,15,1634891694.0,32.000000
-17,-59,15,1634891694.0,32.000000
-16,-59,15,1634891694.0,32.000000
-17,-59,15,1634891694.0,32.000000
-16,-59,16,1634891694.0,32.000000
-16,-59,16,1634891694.0,32.000000
-16,-59,15,1634891694.0,32.000000
-17,-59,16,1634891694.0,32.000000
-17,-59,15,1634891694.0,32.000000
-16,-59,15,1634891694.0,32.000000
-17,-59,15,1634891694.0,32.000000
-16,-59,15,1634891694.0,32.000000
-16,-59,15,1634891694.0,32.000000
-16,-59,15,1634891694.0,32.000000
-17,-59,15,1634891694.0,32.000000
-16,-59,15,1634891694.0,32.000000
-17,-59,15,1634891694.0,32.000000
-15,-59,15,1634891694.0,32.000000
-16,-59,16,1634891694.0,32.000000
-16,-59,15,1634891694.0,32.000000
-15,-59,17,1634891694.0,32.000000
-15,-59,17,1634891694.0,32.000000
-13,-59,17,1634891694.0,32.000000
-15,-59,17,1634891694.0,32.000000
-13,-59,16,1634891694.0,32.000000
-10,-59,15,1634891694.0,32.000000
-9,-59,15,1634891694.0,32.000000
-9,-57,17,1634891694.0,32.000000
-14,-55,15,1634891694.0,32.000000
-15,-54,19,1634891694.0,32.000000
-9,-52,19,1634891694.0,32.000000
-8,-43,19,1634891694.0,32.000000
-21,-38,25,1634891694.0,32.000000
-24,-38,26,1634891694.0,32.000000
-23,-35,26,1634891694.0,32.000000
-43,-26,36,1634891694.0,32.000000
-47,-27,36,1634891694.0,32.000000
-46,-29,36,1634891694.0,32.000000
-49,-28,35,1634891694.0,32.000000
-52,-30,35,1634891694.0,32.000000
-57,-29,37,1634891694.0,32.000000
-67,-26,35,1634891694.0,32.000000
-64,-26,32,1634891694.0,32.000000
-61,-26,32,1634891694.0,32.000000
-60,-25,31,1634891694.0,32.000000
-56,-23,26,1634891694.0,32.000000
-57,-20,25,1634891694.0,32.000000
-57,-16,27,1634891694.0,32.000000
-55,-16,27,1634891694.0,32.000000
-58,-17,27,1634891694.0,32.000000
-72,-19,30,1634891694.0,32.000000
-63,-19,30,1634891694.0,32.000000
-44,-11,33,1634891694.0,32.000000
-50,-10,37,1634891694.0,32.000000
-60,-8,36,1634891694.0,32.000000
-60,-8,33,1634891694.0,32.000000
-57,-9,35,1634891694.0,32.000000
-55,-10,36,1634891694.0,32.000000
-51,-9,37,1634891694.0,32.000000
-52,-8,37,1634891694.0,32.000000
-50,-6,37,1634891694.0,32.000000
-51,-5,39,1634891694.0,32.000000
-51,-3,42,1634891694.0,32.000000
-52,-3,43,1634891694.0,32.000000
-51,-4,41,1634891694.0,32.000000
-50,-4,40,1634891694.0,32.000000
-49,-5,39,1634891694.0,32.000000
-51,-5,40,1634891694.0,32.000000
-52,-1,42,1634891694.0,32.000000
-51,-1,41,1634891694.0,32.000000
-51,-2,40,1634891694.0,32.000000
-49,-3,40,1634891694.0,32.000000
-50,-3,40,1634891694.0,32.000000
-50,-3,39,1634891694.0,32.000000
-50,-2,40,1634891694.0,32.000000
-51,-2,40,1634891694.0,32.000000
-51,-2,38,1634891694.0,32.000000
-52,-2,38,1634891694.0,32.000000
-52,-2,37,1634891694.0,32.000000
-52,-1,39,1634891694.0,32.000000
-51,-2,39,1634891694.0,32.000000
-51,-1,38,1634891694.0,32.000000
-53,-1,37,1634891694.0,32.000000
-54,-2,36,1634891694.0,32.000000
-53,-2,37,1634891694.0,32.000000
-52,-2,37,1634891694.0,32.000000
-51,-2,38,1634891694.0,32.000000
-53,-2,37,1634891694.0,32.000000
-53,-3,36,1634891694.0,32.000000
-53,-3,36,1634891694.0,32.000000
-53,-2,36,1634891694.0,32.000000
-53,-1,37,1634891694.0,32.000000
-53,-2,36,1634891694.0,32.000000
-52,-2,38,1634891694.0,32.000000
-51,-1,38,1634891694.0,32.000000
-52,-2,38,1634891694.0,32.000000
-53,-3,38,1634891694.0,32.000000
-51,-4,37,1634891694.0,32.000000
-51,-5,38,1634891694.0,32.000000
-51,-5,40,1634891694.0,32.000000
-51,-3,40,1634891694.0,32.000000
-52,-2,38,1634891694.0,32.000000
-53,-2,37,1634891694.0,32.000000
-53,-2,38,1634891694.0,32.000000
-51,-2,39,1634891694.0,32.000000
-51,-2,39,1634891694.0,32.000000
-51,-2,39,1634891694.0,32.000000
-51,-2,39,1634891694.0,32.000000
-52,-2,38,1634891694.0,32.000000
-51,-2,38,1634891694.0,32.000000
-52,-2,38,1634891694.0,32.000000
-51,0,38,1634891694.0,32.000000
-50,-2,39,1634891694.0,32.000000
-51,-3,39,1634891694.0,32.000000
-51,-2,40,1634891694.0,32.000000
-51,-1,40,1634891694.0,32.000000
-51,-4,38,1634891694.0,32.000000
-51,-5,39,1634891694.0,32.000000
-50,-8,39,1634891694.0,32.000000
-49,-6,39,1634891694.0,32.000000
-50,-2,40,1634891694.0,32.000000
-53,-3,38,1634891694.0,32.000000
-51,-3,38,1634891694.0,32.000000
-49,-3,39,1634891694.0,32.000000
-50,-2,40,1634891694.0,32.000000
-50,-1,40,1634891694.0,32.000000
-52,-2,39,1634891694.0,32.000000
-52,-2,37,1634891694.0,32.000000
-52,0,39,1634891694.0,32.000000
-52,1,37,1634891694.0,32.000000
-53,3,38,1634891694.0,32.000000
-53,1,39,1634891694.0,32.000000
-51,0,40,1634891694.0,32.000000
-49,-2,40,1634891694.0,32.000000
-50,-1,41,1634891694.0,32.000000
-50,0,40,1634891694.0,32.000000
-50,-1,40,1634891694.0,32.000000
-51,-2,39,1634891694.0,32.000000
-51,-2,39,1634891694.0,32.000000
-50,-1,40,1634891694.0,32.000000
-50,-2,40,1634891694.0,32.000000
-50,-1,40,1634891694.0,32.000000
-50,-2,40,1634891694.0,32.000000
-50,-2,40,1634891694.0,32.000000
-50,-2,40,1634891694.0,32.000000
-50,-2,40,1634891694.0,32.000000
-50,-2,41,1634891694.0,32.000000
-50,-1,41,1634891694.0,32.000000
-51,-1,40,1634891694.0,32.000000
-53,1,44,1634891694.0,32.000000
-49,-3,44,1634891694.0,32.000000
-45,-2,46,1634891694.0,32.000000
-58,3,47,1634891694.0,32.000000
-60,-6,44,1634891694.0,32.000000
-57,-7,43,1634891694.0,32.000000
-69,-9,40,1634891694.0,32.000000
-68,-14,27,1634891694.0,32.000000
-70,-17,24,1634891694.0,32.000000
-75,-25,22,1634891694.0,32.000000
-75,-29,20,1634891694.0,32.000000
-70,-31,19,1634891694.0,32.000000
-70,-30,17,1634891694.0,32.000000
-65,-26,15,1634891694.0,32.000000
-62,-24,10,1634891694.0,32.000000
-45,-24,13,1634891694.0,32.000000
-39,-22,14,1634891694.0,32.000000
-20,-29,13,1634891694.0,32.000000
-16,-26,17,1634891694.0,32.000000
4,-33,14,1634891694.0,32.000000
9,-39,13,1634891694.0,32.000000
16,-48,21,1634891694.0,32.000000
15,-48,25,1634891694.0,32.000000
21,-70,20,1634891694.0,32.000000
21,-99,31,1634891694.0,32.000000
20,-46,30,1634891694.0,32.000000
18,-61,18,1634891694.0,32.000000
17,-58,24,1634891694.0,32.000000
12,-61,22,1634891694.0,32.000000
12,-57,24,1634891694.0,32.000000
15,-59,31,1634891694.0,32.000000
11,-58,24,1634891694.0,32.000000
11,-57,20,1634891694.0,32.000000
11,-57,16,1634891694.0,32.000000
10,-60,14,1634891694.0,32.000000
10,-61,13,1634891694.0,32.000000
6,-62,13,1634891694.0,32.000000
5,-62,14,1634891694.0,32.000000
7,-61,15,1634891694.0,32.000000
8,-60,14,1634891694.0,32.000000
7,-60,13,1634891694.0,32.000000
5,-61,14,1634891694.0,32.000000
5,-61,14,1634891694.0,32.000000
6,-60,13,1634891694.0,32.000000
6,-60,14,1634891694.0,32.000000
6,-61,14,1634891694.0,32.000000
7,-60,14,1634891694.0,32.000000
7,-60,14,1634891694.0,32.000000
4,-60,12,1634891694.0,32.000000
4,-60,13,1634891694.0,32.000000
8,-61,14,1634891694.0,32.000000
6,-60,13,1634891694.0,32.000000
6,-60,15,1634891694.0,32.000000
7,-60,17,1634891694.0,32.000000
9,-59,19,1634891694.0,32.000000
14,-59,23,1634891694.0,32.000000
11,-58,20,1634891694.0,32.000000
10,-57,15,1634891694.0,32.000000
18,-57,19,1634891694.0,32.000000
10,-56,26,1634891694.0,32.000000
1,-55,29,1634891694.0,32.000000
-1,-56,32,1634891694.0,32.000000
-2,-56,30,1634891694.0,32.000000
4,-51,24,1634891694.0,32.000000
3,-51,22,1634891694.0,32.000000
-5,-54,29,1634891694.0,32.000000
-3,-52,29,1634891694.0,32.000000
-2,-46,17,1634891694.0,32.000000
-5,-37,19,1634891694.0,32.000000
-13,-29,27,1634891694.0,32.000000
-15,-22,29,1634891694.0,32.000000
-53,-17,29,1634891694.0,32.000000
-56,-12,38,1634891694.0,32.000000
-61,-11,38,1634891694.0,32.000000
-74,-11,37,1634891694.0,32.000000
-67,-18,42,1634891694.0,32.000000
-64,-19,44,1634891694.0,32.000000
-58,-21,51,1634891694.0,32.000000
-64,-16,55,1634891694.0,32.000000
-58,-10,53,1634891694.0,32.000000
-51,-8,46,1634891694.0,32.000000
-50,-6,42,1634891694.0,32.000000
-50,-6,43,1634891694.0,32.000000
-52,-5,42,1634891694.0,32.000000
-53,-4,47,1634891694.0,32.000000
-54,2,51,1634891694.0,32.000000
-41,-11,40,1634891694.0,32.000000
-42,-2,45,1634891694.0,32.000000
-52,-1,41,1634891694.0,32.000000
-52,-1,39,1634891694.0,32.000000
-51,-3,38,1634891694.0,32.000000
-47,-1,42,1634891694.0,32.000000
-48,-1,44,1634891694.0,32.000000
-49,-2,40,1634891694.0,32.000000
-52,0,39,1634891694.0,32.000000
-52,-1,38,1634891694.0,32.000000
-53,-2,37,1634891694.0,32.000000
-52,-1,38,1634891694.0,32.000000
-50,-1,40,1634891694.0,32.000000
-50,-1,40,1634891694.0,32.000000
-51,-2,39,1634891694.0,32.000000
-51,-2,38,1634891694.0,32.000000
-51,-1,39,1634891694.0,32.000000
-50,-1,41,1634891694.0,32.000000
-49,-1,41,1634891694.0,32.000000
-49,-1,42,1634891694.0,32.000000
-49,0,42,1634891694.0,32.000000
-49,0,42,1634891694.0,32.000000
-50,3,42,1634891694.0,32.000000
-50,1,42,1634891694.0,32.000000
-47,1,43,1634891694.0,32.000000
-47,3,43,1634891694.0,32.000000
-47,3,44,1634891694.0,32.000000
-48,5,44,1634891694.0,32.000000
-47,6,43,1634891694.0,32.000000
-49,8,42,1634891694.0,32.000000
-50,8,42,1634891694.0,32.000000
-49,7,45,1634891694.0,32.000000
-50,10,44,1634891694.0,32.000000
-49,8,43,1634891694.0,32.000000
-46,6,45,1634891694.0,32.000000
-40,2,50,1634891694.0,32.000000
-37,0,50,1634891694.0,32.000000
-41,-7,48,1634891694.0,32.000000
-40,-10,47,1634891694.0,32.000000
-49,-13,44,1634891694.0,32.000000
-46,-14,44,1634891694.0,32.000000
-53,-13,38,1634891694.0,32.000000
-51,-12,37,1634891694.0,32.000000
-54,-9,37,1634891694.0,32.000000
-53,-8,36,1634891694.0,32.000000
-53,-6,39,1634891694.0,32.000000
-49,-2,45,1634891694.0,32.000000
-39,5,50,1634891694.0,32.000000
-46,5,46,1634891694.0,32.000000
-45,5,45,1634891694.0,32.000000
-46,5,45,1634891694.0,32.000000
-46,4,45,1634891694.0,32.000000
-47,4,44,1634891694.0,32.000000
-46,5,44,1634891694.0,32.000000
-45,5,44,1634891694.0,32.000000
-44,5,45,1634891694.0,32.000000
-45,6,44,1634891694.0,32.000000
-46,6,45,1634891694.0,32.000000
-45,6,44,1634891694.0,32.000000
-46,6,46,1634891694.0,32.000000
-45,4,46,1634891694.0,32.000000
-45,5,46,1634891694.0,32.000000
-42,5,47,1634891694.0,32.000000
-43,5,47,1634891694.0,32.000000
-46,4,46,1634891694.0,32.000000
-47,3,43,1634891694.0,32.000000
-49,2,44,1634891694.0,32.000000
-47,2,44,1634891694.0,32.000000
-49,1,45,1634891694.0,32.000000
-43,0,48,1634891694.0,32.000000
-48,1,41,1634891694.0,32.000000
-45,2,47,1634891694.0,32.000000
-51,0,42,1634891694.0,32.000000
-50,0,43,1634891694.0,32.000000
-50,1,42,1634891694.0,32.000000
-47,2,42,1634891694.0,32.000000
-48,3,42,1634891694.0,32.000000
-49,0,42,1634891694.0,32.000000
-47,-2,43,1634891694.0,32.000000
-49,1,42,1634891694.0,32.000000
-51,-1,40,1634891694.0,32.000000
-49,-1,40,1634891694.0,32.000000
-41,-2,46,1634891694.0,32.000000
-48,0,43,1634891694.0,32.000000
-52,0,41,1634891694.0,32.000000
-49,-2,43,1634891694.0,32.000000
-46,-1,45,1634891694.0,32.000000
-48,2,43,1634891694.0,32.000000
-47,3,44,1634891694.0,32.000000
-49,1,41,1634891694.0,32.000000
-48,1,41,1634891694.0,32.000000
-48,2,43,1634891694.0,32.000000
-47,1,44,1634891694.0,32.000000
-45,0,46,1634891694.0,32.000000
-48,1,50,1634891694.0,32.000000
-53,0,39,1634891694.0,32.000000
-54,1,38,1634891694.0,32.000000
-47,-1,44,1634891694.0,32.000000
-43,-2,45,1634891694.0,32.000000
-43,0,44,1634891694.0,32.000000
-45,1,46,1634891694.0,32.000000
-49,-1,44,1634891694.0,32.000000
-48,0,43,1634891694.0,32.000000
-51,0,44,1634891694.0,32.000000
-49,0,44,1634891694.0,32.000000
-45,-6,45,1634891694.0,32.000000
-49,-8,43,1634891694.0,32.000000
-52,-9,38,1634891694.0,32.000000
-51,-6,38,1634891694.0,32.000000
-49,-5,39,1634891694.0,32.000000
-47,-8,43,1634891694.0,32.000000
-44,-6,44,1634891694.0,32.000000
-39,-6,51,1634891694.0,32.000000
-40,-5,48,1634891694.0,32.000000
-41,-1,47,1634891694.0,32.000000
-41,1,48,1634891694.0,32.000000
-45,4,49,1634891694.0,32.000000
-45,2,47,1634891694.0,32.000000
-44,5,46,1634891694.0,32.000000
-45,6,46,1634891694.0,32.000000
-44,5,47,1634891694.0,32.000000
-45,5,47,1634891694.0,32.000000
-40,5,50,1634891694.0,32.000000
-40,3,50,1634891694.0,32.000000
-49,-4,45,1634891694.0,32.000000
-49,-7,45,1634891694.0,32.000000
-41,-3,48,1634891694.0,32.000000
-34,-1,53,1634891694.0,32.000000
-30,1,55,1634891694.0,32.000000
-31,3,56,1634891694.0,32.000000
-32,6,56,1634891694.0,32.000000
-33,9,55,1634891694.0,32.000000
-33,11,54,1634891694.0,32.000000
-29,4,57,1634891694.0,32.000000
-28,4,56,1634891694.0,32.000000
-43,-1,46,1634891694.0,32.000000
-48,-3,46,1634891694.0,32.000000
-46,-3,43,1634891694.0,32.000000
-48,-4,43,1634891694.0,32.000000
-51,-3,41,1634891694.0,32.000000
-52,-2,40,1634891694.0,32.000000
-50,0,41,1634891694.0,32.000000
-48,-2,43,1634891694.0,32.000000
-46,-3,45,1634891694.0,32.000000
-46,-4,45,1634891694.0,32.000000
-47,-2,43,1634891694.0,32.000000
-49,-2,42,1634891694.0,32.000000
-51,0,40,1634891694.0,32.000000
-50,-1,41,1634891694.0,32.000000
-49,-1,42,1634891694.0,32.000000
-47,-1,43,1634891694.0,32.000000
-49,0,43,1634891694.0,32.000000
-46,0,43,1634891694.0,32.000000
-47,-3,43,1634891694.0,32.000000
-48,-4,43,1634891694.0,32.000000
-48,-3,43,1634891694.0,32.000000
-49,-2,42,1634891694.0,32.000000
-50,-2,41,1634891694.0,32.000000
-49,-2,42,1634891694.0,32.000000
-49,-2,42,1634891694.0,32.000000
-49,-2,41,1634891694.0,32.000000
-50,-2,41,1634891694.0,32.000000
-51,-1,40,1634891694.0,32.000000
-51,-1,40,1634891694.0,32.000000
-50,-2,40,1634891694.0,32.000000
-49,-2,41,1634891694.0,32.000000
-49,-2,41,1634891694.0,32.000000
-50,-2,40,1634891694.0,32.000000
-50,-2,40,1634891694.0,32.000000
-50,-2,41,1634891694.0,32.000000
-50,-2,40,1634891694.0,32.000000
-50,-2,40,1634891694.0,32.000000
-50,-2,41,1634891694.0,32.000000
-50,-2,41,1634891694.0,32.000000
-50,-2,40,1634891694.0,32.000000
-50,-2,40,1634891694.0,32.000000
-50,-2,41,1634891694.0,32.000000
-50,-2,40,1634891694.0,32.000000
-50,-2,41,1634891694.0,32.000000
-50,-2,41,1634891694.0,32.000000
-50,-2,40,1634891694.0,32.000000
-50,-2,40,1634891694.0,32.000000
-49,-2,41,1634891694.0,32.000000
-50,-2,41,1634891694.0,32.000000
-50,-2,40,1634891694.0,32.000000
-50,-2,41,1634891694.0,32.000000
-49,-2,41,1634891694.0,32.000000
-50,-2,40,1634891694.0,32.000000
-50,-2,40,1634891694.0,32.000000
-50,-2,40,1634891694.0,32.000000
-50,-2,40,1634891694.0,32.000000
-50,-2,41,1634891694.0,32.000000
-50,-2,41,1634891694.0,32.000000
-49,-2,41,1634891694.0,32.000000
-49,-2,41,1634891694.0,32.000000
-49,-2,41,1634891694.0,32.000000
-49,-2,41,1634891694.0,32.000000
-49,-2,41,1634891694.0,32.000000
-49,-3,40,1634891694.0,32.000000
-50,-2,40,1634891694.0,32.000000
-50,-2,41,1634891694.0,32.000000
-50,-2,41,1634891694.0,32.000000
-50,-2,41,1634891694.0,32.000000
-49,-3,42,1634891694.0,32.000000
-49,-3,42,1634891694.0,32.000000
-49,-2,41,1634891694.0,32.000000
-49,-3,41,1634891694.0,32.000000
-49,-3,41,1634891694.0,32.000000
-49,-3,41,1634891694.0,32.000000
-49,-3,41,1634891694.0,32.000000
-50,-2,40,1634891694.0,32.000000
-50,-2,40,1634891694.0,32.000000
-50,-2,41,1634891694.0,32.000000
-50,-2,41,1634891694.0,32.000000
-49,-2,42,1634891694.0,32.000000
-49,-3,42,1634891694.0,32.000000
-49,-3,42,1634891694.0,32.000000
-49,-3,42,1634891694.0,32.000000
-49,-3,42,1634891694.0,32.000000
-49,-3,41,1634891694.0,32.000000
-49,-2,41,1634891694.0,32.000000
-49,-3,41,1634891694.0,32.000000
-50,-3,40,1634891694.0,32.000000
-50,-3,40,1634891694.0,32.000000
-50,-3,41,1634891694.0,32.000000
-50,-3,41,1634891694.0,32.000000
-49,-3,41,1634891694.0,32.000000
-49,-3,41,1634891694.0,32.000000
-49,-3,41,1634891694.0,32.000000
-49,-3,41,1634891694.0,32.000000
-49,-3,41,1634891694.0,32.000000
-49,-3,41,1634891694.0,32.000000
-49,-3,41,1634891694.0,32.000000
-49,-3,42,1634891694.0,32.000000
-49,-3,41,1634891694.0,32.000000
-50,-3,41,1634891694.0,32.000000
-50,-3,41,1634891694.0,32.000000
-49,-3,41,1634891694.0,32.000000
-49,-3,42,1634891694.0,32.000000
-49,-3,42,1634891694.0,32.000000
-49,-3,42,1634891694.0,32.000000
-48,-3,42,1634891694.0,32.000000
-48,-3,42,1634891694.0,32.000000
-49,-3,41,1634891694.0,32.000000
-49,-3,41,1634891694.0,32.000000
-49,-3,41,1634891694.0,32.000000
-49,-3,41,1634891694.0,32.000000
-49,-2,42,1634891694.0,32.000000
-49,-3,42,1634891694.0,32.000000
-49,-3,41,1634891694.0,32.000000
-49,-3,42,1634891694.0,32.000000
-49,-3,42,1634891694.0,32.000000
-48,-3,42,1634891694.0,32.000000
-49,-3,42,1634891694.0,32.000000
-49,-3,41,1634891694.0,32.000000
-49,-3,42,1634891694.0,32.000000
-49,-3,42,1634891694.0,32.000000
-49,-2,42,1634891694.0,32.000000
-49,-2,42,1634891694.0,32.000000
-49,-3,42,1634891694.0,32.000000
-49,-3,42,1634891694.0,32.000000
-49,-3,42,1634891694.0,32.000000
-49,-3,41,1634891694.0,32.000000
-49,-3,41,1634891694.0,32.000000
-50,-3,41,1634891694.0,32.000000
-49,-3,41,1634891694.0,32.000000
-50,-3,41,1634891694.0,32.000000
-50,-3,41,1634891694.0,32.000000
-49,-3,41,1634891694.0,32.000000
-50,-3,41,1634891694.0,32.000000
-50,-3,41,1634891694.0,32.000000
-49,-3,42,1634891694.0,32.000000
-48,-3,42,1634891694.0,32.000000
-49,-3,42,1634891694.0,32.000000
-49,-3,42,1634891694.0,32.000000
-49,-3,42,1634891694.0,32.000000
-49,-3,41,1634891694.0,32.000000
-50,-2,41,1634891694.0,32.000000
-49,-2,41,1634891694.0,32.000000
-49,-3,42,1634891694.0,32.000000
-49,-3,41,1634891694.0,32.000000
-49,-2,41,1634891694.0,32.000000
-50,-2,41,1634891694.0,32.000000
-49,-2,41,1634891694.0,32.000000
-49,-2,42,1634891694.0,32.000000
-49,-3,42,1634891694.0,32.000000
-49,-3,42,1634891694.0,32.000000
-49,-3,42,1634891694.0,32.000000
-49,-3,42,1634891694.0,32.000000
-49,-3,42,1634891694.0,32.000000
-49,-3,42,1634891694.0,32.000000
-49,-2,41,1634891694.0,32.000000
-50,-3,41,1634891694.0,32.000000
-49,-3,41,1634891694.0,32.000000
-49,-3,42,1634891694.0,32.000000
-49,-3,42,1634891694.0,32.000000
-49,-3,42,1634891694.0,32.000000
-49,-3,42,1634891694.0,32.000000
-49,-3,42,1634891694.0,32.000000
-49,-3,41,1634891694.0,32.000000
-49,-3,42,1634891694.0,32.000000
-49,-3,41,1634891694.0,32.000000
-49,-3,41,1634891694.0,32.000000
-49,-3,42,1634891694.0,32.000000
-49,-3,41,1634891694.0,32.000000
-49,-3,42,1634891694.0,32.000000
-49,-4,41,1634891694.0,32.000000
-49,-3,42,1634891694.0,32.000000
-49,-3,42,1634891694.0,32.000000
-49,-3,41,1634891694.0,32.000000
-49,-3,41,1634891694.0,32.000000
-49,-3,42,1634891694.0,32.000000
-49,-4,42,1634891694.0,32.000000
-49,-3,42,1634891694.0,32.000000
-49,-3,42,1634891694.0,32.000000
-49,-3,42,1634891694.0,32.000000
-48,-3,42,1634891694.0,32.000000
-49,-3,42,1634891694.0,32.000000
-49,-4,42,1634891694.0,32.000000
-49,-4,42,1634891694.0,32.000000
-49,-4,42,1634891694.0,32.000000
-49,-4,42,1634891694.0,32.000000
-49,-4,42,1634891694.0,32.000000
-49,-3,42,1634891694.0,32.000000
-49,-3,42,1634891694.0,32.000000
-49,-4,42,1634891694.0,32.000000
-49,-3,42,1634891694.0,32.000000
-49,-4,42,1634891694.0,32.000000
-49,-4,42,1634891694.0,32.000000
-49,-4,42,1634891694.0,32.000000
-49,-3,42,1634891694.0,32.000000
-49,-3,42,1634891694.0,32.000000
-49,-3,42,1634891694.0,32.000000
-49,-3,42,1634891694.0,32.000000
-49,-3,42,1634891694.0,32.000000
-49,-3,42,1634891694.0,32.000000
-49,-3,42,1634891694.0,32.000000
-49,-4,42,1634891694.0,32.000000
-49,-3,42,1634891694.0,32.000000
-48,-4,42,1634891694.0,32.000000
-49,-4,42,1634891694.0,32.000000
-49,-3,42,1634891694.0,32.000000
-49,-4,42,1634891694.0,32.000000
-49,-3,42,1634891694.0,32.000000
-49,-4,42,1634891694.0,32.000000
-49,-4,42,1634891694.0,32.000000
-49,-3,42,1634891694.0,32.000000
-49,-4,42,1634891694.0,32.000000
-49,-3,42,1634891694.0,32.000000
-49,-4,42,1634891694.0,32.000000
-49,-4,42,1634891694.0,32.000000
-49,-4,42,1634891694.0,32.000000
-49,-3,42,1634891694.0,32.000000
-48,-4,42,1634891694.0,32.000000
-49,-4,42,1634891694.0,32.000000
-49,-4,42,1634891694.0,32.000000
-49,-4,42,1634891694.0,32.000000
-49,-4,42,1634891694.0,32.000000
-49,-3,42,1634891694.0,32.000000
-48,-4,42,1634891694.0,32.000000
-48,-3,43,1634891694.0,32.000000
-48,-3,43,1634891694.0,32.000000
-50,-4,42,1634891694.0,32.000000
-49,-3,42,1634891694.0,32.000000
-49,-4,42,1634891694.0,32.000000
-48,-4,42,1634891694.0,32.000000
-48,-4,42,1634891694.0,32.000000
-49,-5,42,1634891694.0,32.000000
-47,-5,43,1634891694.0,32.000000
-47,-5,43,1634891694.0,32.000000
-48,-5,43,1634891694.0,32.000000
-48,-5,43,1634891694.0,32.000000
-48,-5,43,1634891694.0,32.000000
-48,-6,43,1634891694.0,32.000000
-47,-6,43,1634891694.0,32.000000
-47,-6,43,1634891694.0,32.000000
-47,-6,43,1634891694.0,32.000000
-48,-6,43,1634891694.0,32.000000
-47,-6,43,1634891694.0,32.000000
-47,-6,43,1634891694.0,32.000000
-47,-5,43,1634891694.0,32.000000
-48,-6,43,1634891694.0,32.000000
-47,-6,43,1634891694.0,32.000000
-47,-5,43,1634891694.0,32.000000
-47,-5,43,1634891694.0,32.000000
-48,-5,43,1634891694.0,32.000000
-48,-5,43,1634891694.0,32.000000
-48,-5,42,1634891694.0,32.000000
-48,-5,42,1634891694.0,32.000000
-49,-5,42,1634891694.0,32.000000
-49,-5,42,1634891694.0,32.000000
-49,-5,42,1634891694.0,32.000000
-49,-5,42,1634891694.0,32.000000
-48,-5,42,1634891694.0,32.000000
-48,-4,42,1634891694.0,32.000000
-49,-5,42,1634891694.0,32.000000
-48,-5,42,1634891694.0,32.000000
-48,-5,42,1634891694.0,32.000000
-48,-5,42,1634891694.0,32.000000
-48,-5,42,1634891694.0,32.000000
-48,-5,42,1634891694.0,32.000000
-48,-5,43,1634891694.0,32.000000
-48,-5,42,1634891694.0,32.000000
-48,-5,42,1634891694.0,32.000000
-48,-5,42,1634891694.0,32.000000
-48,-4,42,1634891694.0,32.000000
-48,-5,42,1634891694.0,32.000000
-48,-5,42,1634891694.0,32.000000
-48,-5,42,1634891694.0,32.000000
-48,-4,42,1634891694.0,32.000000
-48,-5,42,1634891694.0,32.000000
-48,-5,43,1634891694.0,32.000000
-48,-5,42,1634891694.0,32.000000
-48,-5,42,1634891694.0,32.000000
-48,-4,42,1634891694.0,32.000000
-48,-5,43,1634891694.0,32.000000
-48,-5,42,1634891694.0,32.000000
-48,-5,42,1634891694.0,32.000000
-48,-4,42,1634891694.0,32.000000
-48,-4,42,1634891694.0,32.000000
-49,-5,42,1634891694.0,32.000000
-48,-4,42,1634891694.0,32.000000
-48,-4,42,1634891694.0,32.000000
-48,-4,42,1634891694.0,32.000000
-48,-4,42,1634891694.0,32.000000
-48,-5,42,1634891694.0,32.000000
-48,-4,42,1634891694.0,32.000000
-48,-4,42,1634891694.0,32.000000
-48,-4,43,1634891694.0,32.000000
-48,-4,43,1634891694.0,32.000000
-48,-4,42,1634891694.0,32.000000
-48,-4,42,1634891694.0,32.000000
-48,-4,42,1634891694.0,32.000000
-48,-4,42,1634891694.0,32.000000
-48,-4,43,1634891694.0,32.000000
-48,-4,42,1634891694.0,32.000000
-48,-4,43,1634891694.0,32.000000
-48,-4,43,1634891694.0,32.000000
-48,-4,42,1634891694.0,32.000000
-48,-4,42,1634891694.0,32.000000
-48,-4,42,1634891694.0,32.000000
-48,-4,42,1634891694.0,32.000000
-49,-4,42,1634891694.0,32.000000
-48,-4,42,1634891694.0,32.000000
-48,-4,43,1634891694.0,32.000000
-48,-4,43,1634891694.0,32.000000
-48,-4,43,1634891694.0,32.000000
-48,-4,43,1634891694.0,32.000000
-48,-4,42,1634891694.0,32.000000
-48,-4,43,1634891694.0,32.000000
-48,-4,43,1634891694.0,32.000000
-48,-4,43,1634891694.0,32.000000
-48,-4,43,1634891694.0,32.000000
-48,-4,43,1634891694.0,32.000000
-48,-4,43,1634891694.0,32.000000
-48,-4,43,1634891694.0,32.000000
-48,-4,43,1634891694.0,32.000000
-48,-4,43,1634891694.0,32.000000
-48,-4,43,1634891694.0,32.000000
-48,-4,43,1634891694.0,32.000000
-48,-4,42,1634891694.0,32.000000
-48,-4,43,1634891694.0,32.000000
-48,-4,43,1634891694.0,32.000000
-48,-4,42,1634891694.0,32.000000
-48,-4,43,1634891694.0,32.000000
-48,-4,43,1634891694.0,32.000000
-48,-4,42,1634891694.0,32.000000
-48,-4,42,1634891694.0,32.000000
-48,-4,43,1634891694.0,32.000000
-48,-4,42,1634891694.0,32.000000
-48,-4,43,1634891694.0,32.000000
-48,-4,43,1634891694.0,32.000000
-48,-4,43,1634891694.0,32.000000
-48,-4,43,1634891694.0,32.000000
-48,-4,43,1634891694.0,32.000000
-48,-4,43,1634891694.0,32.000000
-48,-4,43,1634891694.0,32.000000
-48,-4,43,1634891694.0,32.000000
-48,-4,43,1634891694.0,32.000000
-48,-4,43,1634891694.0,32.000000
-48,-4,43,1634891694.0,32.000000
-48,-4,43,1634891694.0,32.000000
-48,-4,43,1634891694.0,32.000000
-48,-4,43,1634891694.0,32.000000
-48,-4,43,1634891694.0,32.000000
-48,-4,43,1634891694.0,32.000000
-48,-4,43,1634891694.0,32.000000
-48,-4,42,1634891694.0,32.000000
-48,-4,43,1634891694.0,32.000000
-48,-4,43,1634891694.0,32.000000
-48,-4,42,1634891694.0,32.000000
-48,-4,42,1634891694.0,32.000000
-48,-4,43,1634891694.0,32.000000
-48,-4,43,1634891694.0,32.000000
-48,-4,43,1634891694.0,32.000000
-48,-4,43,1634891694.0,32.000000
-48,-4,43,1634891694.0,32.000000
-48,-4,43,1634891694.0,32.000000
-48,-4,43,1634891694.0,32.000000
-48,-4,43,1634891694.0,32.000000
-48,-4,43,1634891694.0,32.000000
-48,-4,43,1634891694.0,32.000000
-48,-4,43,1634891694.0,32.000000
-48,-4,43,1634891694.0,32.000000
-48,-4,43,1634891694.0,32.000000
-48,-4,43,1634891694.0,32.000000
-48,-4,43,1634891694.0,32.000000
-48,-4,43,1634891694.0,32.000000
-48,-4,43,1634891694.0,32.000000
-48,-4,43,1634891694.0,32.000000
-48,-4,43,1634891694.0,32.000000
-48,-4,43,1634891694.0,32.000000
-47,-4,43,1634891694.0,32.000000
-48,-4,43,1634891694.0,32.000000
-48,-4,43,1634891694.0,32.000000
-47,-4,43,1634891694.0,32.000000
-48,-4,43,1634891694.0,32.000000
-48,-4,43,1634891694.0,32.000000
-48,-4,43,1634891694.0,32.000000
-48,-4,43,1634891694.0,32.000000
-48,-4,43,1634891694.0,32.000000
-48,-4,43,1634891694.0,32.000000
-47,-4,43,1634891694.0,32.000000
-48,-4,43,1634891694.0,32.000000
-48,-4,43,1634891694.0,32.000000
-48,-4,43,1634891694.0,32.000000
-48,-4,43,1634891694.0,32.000000
-48,-4,43,1634891694.0,32.000000
-48,-4,43,1634891694.0,32.000000
-48,-4,43,1634891694.0,32.000000
-48,-4,43,1634891694.0,32.000000
-48,-4,43,1634891694.0,32.000000
-48,-4,43,1634891694.0,32.000000
-48,-4,43,1634891694.0,32.000000
-48,-4,43,1634891694.0,32.000000
-48,-4,43,1634891694.0,32.000000
-48,-4,43,1634891694.0,32.000000
-48,-4,43,1634891694.0,32.000000
-48,-4,43,1634891694.0,32.000000
-48,-4,43,1634891694.0,32.000000
-48,-4,43,1634891694.0,32.000000
-48,-4,42,1634891694.0,32.000000
-48,-4,43,1634891694.0,32.000000
-48,-4,43,1634891694.0,32.000000
-48,-4,43,1634891694.0,32.000000
-48,-4,43,1634891694.0,32.000000
-48,-4,43,1634891694.0,32.000000
-48,-4,43,1634891694.0,32.000000
-48,-4,43,1634891694.0,32.000000
-48,-4,43,1634891694.0,32.000000
-48,-4,43,1634891694.0,32.000000
-48,-4,43,1634891694.0,32.000000
-48,-4,43,1634891694.0,32.000000
-48,-4,43,1634891694.0,32.000000
-48,-4,43,1634891694.0,32.000000
-48,-4,43,1634891694.0,32.000000
-48,-4,43,1634891694.0,32.000000
-48,-4,43,1634891694.0,32.000000
-48,-4,43,1634891694.0,32.000000
-48,-4,43,1634891694.0,32.000000
-48,-4,43,1634891694.0,32.000000
-48,-4,43,1634891694.0,32.000000
-48,-4,43,1634891694.0,32.000000
-48,-4,43,1634891694.0,32.000000
-48,-4,43,1634891694.0,32.000000
-48,-4,43,1634891694.0,32.000000
-48,-4,43,1634891694.0,32.000000
-48,-4,43,1634891694.0,32.000000
-48,-4,43,1634891694.0,32.000000
-48,-4,43,1634891694.0,32.000000
-48,-4,43,1634891694.0,32.000000
-48,-4,43,1634891694.0,32.000000
-48,-4,43,1634891694.0,32.000000
-48,-4,43,1634891694.0,32.000000
-48,-4,43,1634891694.0,32.000000
-48,-4,43,1634891694.0,32.000000
-48,-4,43,1634891694.0,32.000000
-48,-4,43,1634891694.0,32.000000
-48,-4,43,1634891694.0,32.000000
-48,-4,42,1634891694.0,32.000000
-48,-4,43,1634891694.0,32.000000
-48,-4,43,1634891694.0,32.000000
-48,-4,43,1634891694.0,32.000000
-48,-4,43,1634891694.0,32.000000
-47,-4,43,1634891694.0,32.000000
-48,-4,43,1634891694.0,32.000000
-48,-4,43,1634891694.0,32.000000
-48,-4,43,1634891694.0,32.000000
-48,-4,43,1634891694.0,32.000000
-48,-4,43,1634891694.0,32.000000
-48,-4,43,1634891694.0,32.000000
-48,-4,43,1634891694.0,32.000000
-48,-4,43,1634891694.0,32.000000
-48,-4,43,1634891694.0,32.000000
-48,-4,43,1634891694.0,32.000000
-47,-4,43,1634891694.0,32.000000
-48,-4,43,1634891694.0,32.000000
-48,-4,43,1634891694.0,32.000000
-48,-4,43,1634891694.0,32.000000
-48,-4,43,1634891694.0,32.000000
-48,-4,43,1634891694.0,32.000000
-48,-4,43,1634891694.0,32.000000
-48,-4,43,1634891694.0,32.000000
-48,-4,43,1634891694.0,32.000000
-48,-4,43,1634891694.0,32.000000
-47,-4,43,1634891694.0,32.000000
-48,-4,43,1634891694.0,32.000000
-47,-4,43,1634891694.0,32.000000
-48,-4,43,1634891694.0,32.000000
-48,-4,43,1634891694.0,32.000000
-48,-4,43,1634891694.0,32.000000
-48,-4,43,1634891694.0,32.000000
-47,-4,43,1634891694.0,32.000000
-47,-4,43,1634891694.0,32.000000
-48,-4,43,1634891694.0,32.000000
-48,-4,43,1634891694.0,32.000000
-48,-4,43,1634891694.0,32.000000
-48,-4,43,1634891694.0,32.000000
-47,-4,43,1634891694.0,32.000000
-48,-4,43,1634891694.0,32.000000
-48,-4,43,1634891694.0,32.000000
-48,-4,43,1634891694.0,32.000000
-47,-4,43,1634891694.0,32.000000
-48,-4,43,1634891694.0,32.000000
-47,-4,43,1634891694.0,32.000000
-48,-4,43,1634891694.0,32.000000
-48,-4,43,1634891694.0,32.000000
-47,-4,43,1634891694.0,32.000000
-48,-5,43,1634891694.0,32.000000
-47,-4,43,1634891694.0,32.000000
-47,-4,43,1634891694.0,32.000000
-48,-4,43,1634891694.0,32.000000
-47,-4,43,1634891694.0,32.000000
-47,-4,43,1634891694.0,32.000000
-48,-4,43,1634891694.0,32.000000
-48,-4,43,1634891694.0,32.000000
-48,-4,43,1634891694.0,32.000000
-48,-4,43,1634891694.0,32.000000
-48,-4,43,1634891694.0,32.000000
-48,-4,43,1634891694.0,32.000000
-48,-4,43,1634891694.0,32.000000
-48,-4,43,1634891694.0,32.000000
-48,-4,43,1634891694.0,32.000000
-48,-4,43,1634891694.0,32.000000
-48,-4,43,1634891694.0,32.000000
-48,-4,43,1634891694.0,32.000000
-48,-4,43,1634891694.0,32.000000
-48,-4,43,1634891694.0,32.000000
-48,-4,42,1634891694.0,32.000000
-48,-4,43,1634891694.0,32.000000
-47,-4,43,1634891694.0,32.000000
-48,-4,43,1634891694.0,32.000000
-48,-4,43,1634891694.0,32.000000
-48,-4,43,1634891694.0,32.000000
-48,-4,43,1634891694.0,32.000000
-48,-4,43,1634891694.0,32.000000
-48,-4,43,1634891694.0,32.000000
-48,-4,43,1634891694.0,32.000000
-48,-4,43,1634891694.0,32.000000
-48,-4,43,1634891694.0,32.000000
-47,-4,43,1634891694.0,32.000000
-48,-4,43,1634891694.0,32.000000
-48,-4,43,1634891694.0,32.000000
-48,-4,43,1634891694.0,32.000000
-48,-5,43,1634891694.0,32.000000
-47,-5,44,1634891694.0,32.000000
-47,-4,43,1634891694.0,32.000000
-46,-4,45,1634891694.0,32.000000
-48,-4,41,1634891694.0,32.000000
-49,-5,42,1634891694.0,32.000000
-49,-5,42,1634891694.0,32.000000
-49,-5,41,1634891694.0,32.000000
-50,-4,42,1634891694.0,32.000000
-51,-3,41,1634891694.0,32.000000
-53,-3,38,1634891694.0,32.000000
-52,-5,37,1634891694.0,32.000000
-53,-4,39,1634891694.0,32.000000
-49,-3,41,1634891694.0,32.000000
-50,-3,43,1634891694.0,32.000000
-50,-4,40,1634891694.0,32.000000
-51,-4,40,1634891694.0,32.000000
-50,-4,40,1634891694.0,32.000000
-50,-4,40,1634891694.0,32.000000
-49,-4,41,1634891694.0,32.000000
-50,-4,39,1634891694.0,32.000000
-50,-4,40,1634891694.0,32.000000
-50,-4,40,1634891694.0,32.000000
-49,-4,40,1634891694.0,32.000000
-51,-3,39,1634891694.0,32.000000
-49,-4,41,1634891694.0,32.000000
-50,-4,40,1634891694.0,32.000000
-51,-3,39,1634891694.0,32.000000
-51,-3,41,1634891694.0,32.000000
-50,-3,40,1634891694.0,32.000000
-50,-3,40,1634891694.0,32.000000
-50,-3,40,1634891694.0,32.000000
-50,-4,39,1634891694.0,32.000000
-51,-3,40,1634891694.0,32.000000
-50,-3,40,1634891694.0,32.000000
-49,-3,40,1634891694.0,32.000000
-50,-2,42,1634891694.0,32.000000
-54,-4,36,1634891694.0,32.000000
-50,-4,39,1634891694.0,32.000000
-43,0,49,1634891694.0,32.000000
-41,-3,46,1634891694.0,32.000000
-53,-4,37,1634891694.0,32.000000
-54,-3,38,1634891694.0,32.000000
-53,-2,41,1634891694.0,32.000000
-51,-2,38,1634891694.0,32.000000
-53,-1,41,1634891694.0,32.000000
-48,-2,42,1634891694.0,32.000000
-51,-2,42,1634891694.0,32.000000
-49,-3,41,1634891694.0,32.000000
-50,-4,40,1634891694.0,32.000000
-50,-3,41,1634891694.0,32.000000
-49,-3,42,1634891694.0,32.000000
-49,-2,43,1634891694.0,32.000000
-48,-3,42,1634891694.0,32.000000
-49,-3,42,1634891694.0,32.000000
-48,-3,42,1634891694.0,32.000000
-49,-3,42,1634891694.0,32.000000
-50,-1,43,1634891694.0,32.000000
-49,-2,42,1634891694.0,32.000000
-49,-2,42,1634891694.0,32.000000
-49,-2,42,1634891694.0,32.000000
-48,-4,42,1634891694.0,32.000000
-50,-4,40,1634891694.0,32.000000
-51,-3,39,1634891694.0,32.000000
-43,-1,48,1634891694.0,32.000000
-42,-2,47,1634891694.0,32.000000
-48,-4,42,1634891694.0,32.000000
-50,-4,42,1634891694.0,32.000000
-51,-2,42,1634891694.0,32.000000
-49,-2,41,1634891694.0,32.000000
-50,-1,45,1634891694.0,32.000000
-45,-2,45,1634891694.0,32.000000
-47,-2,43,1634891694.0,32.000000
-49,-2,42,1634891694.0,32.000000
-48,-3,43,1634891694.0,32.000000
-47,-4,43,1634891694.0,32.000000
-48,-3,42,1634891694.0,32.000000
-49,-3,41,1634891694.0,32.000000
-47,-3,43,1634891694.0,32.000000
-46,-3,43,1634891694.0,32.000000
-49,-3,42,1634891694.0,32.000000
-49,-3,42,1634891694.0,32.000000
-49,-3,42,1634891694.0,32.000000
-51,-3,42,1634891694.0,32.000000
-50,-4,42,1634891694.0,32.000000
-50,-4,40,1634891694.0,32.000000
-48,-5,39,1634891694.0,32.000000
-49,-5,39,1634891694.0,32.000000
-49,-5,42,1634891694.0,32.000000
-49,-4,43,1634891694.0,32.000000
-47,-4,44,1634891694.0,32.000000
-47,-5,44,1634891694.0,32.000000
-46,-5,43,1634891694.0,32.000000
-47,-5,43,1634891694.0,32.000000
-47,-5,43,1634891694.0,32.000000
-46,-5,45,1634891694.0,32.000000
-42,-4,47,1634891694.0,32.000000
-48,-5,42,1634891694.0,32.000000
-48,-4,43,1634891694.0,32.000000
-46,-4,44,1634891694.0,32.000000
-47,-4,44,1634891694.0,32.000000
-47,-4,44,1634891694.0,32.000000
-47,-4,43,1634891694.0,32.000000
-47,-4,43,1634891694.0,32.000000
-47,-4,44,1634891694.0,32.000000
-47,-4,44,1634891694.0,32.000000
-47,-4,44,1634891694.0,32.000000
-48,-4,43,1634891694.0,32.000000
-47,-4,43,1634891694.0,32.000000
-47,-4,43,1634891694.0,32.000000
-47,-4,43,1634891694.0,32.000000
-47,-4,43,1634891694.0,32.000000
-47,-4,43,1634891694.0,32.000000
-48,-4,44,1634891694.0,32.000000
-48,-3,43,1634891694.0,32.000000
-48,-4,43,1634891694.0,32.000000
-47,-4,43,1634891694.0,32.000000
-47,-4,43,1634891694.0,32.000000
-47,-4,43,1634891694.0,32.000000
-48,-4,43,1634891694.0,32.000000
-48,-4,43,1634891694.0,32.000000
-48,-4,43,1634891694.0,32.000000
-47,-4,43,1634891694.0,32.000000
-47,-4,43,1634891694.0,32.000000
-48,-4,43,1634891694.0,32.000000
-48,-4,43,1634891694.0,32.000000
-47,-4,43,1634891694.0,32.000000
-47,-4,43,1634891694.0,32.000000
-47,-4,43,1634891694.0,32.000000
-48,-4,43,1634891694.0,32.000000
-47,-4,43,1634891694.0,32.000000
-47,-4,44,1634891694.0,32.000000
-47,-4,43,1634891694.0,32.000000
-48,-4,43,1634891694.0,32.000000
-48,-4,43,1634891694.0,32.000000
-47,-4,43,1634891694.0,32.000000
-48,-4,43,1634891694.0,32.000000
-47,-4,43,1634891694.0,32.000000
-48,-4,43,1634891694.0,32.000000
-47,-4,43,1634891694.0,32.000000
-48,-4,43,1634891694.0,32.000000
-47,-4,43,1634891694.0,32.000000
-47,-4,43,1634891694.0,32.000000
-47,-4,43,1634891694.0,32.000000
-47,-4,43,1634891694.0,32.000000
-47,-4,43,1634891694.0,32.000000
-48,-4,43,1634891694.0,32.000000
-47,-3,43,1634891694.0,32.000000
-48,-3,43,1634891694.0,32.000000
-47,-4,43,1634891694.0,32.000000
-47,-4,43,1634891694.0,32.000000
-48,-4,43,1634891694.0,32.000000
-48,-3,43,1634891694.0,32.000000
-47,-4,43,1634891694.0,32.000000
-47,-4,43,1634891694.0,32.000000
-47,-3,43,1634891694.0,32.000000
-47,-4,43,1634891694.0,32.000000
-47,-4,43,1634891694.0,32.000000
-47,-4,43,1634891694.0,32.000000
-47,-4,43,1634891694.0,32.000000
-47,-4,43,1634891694.0,32.000000
-47,-4,44,1634891694.0,32.000000
-47,-4,43,1634891694.0,32.000000
-48,-4,43,1634891694.0,32.000000
-48,-4,43,1634891694.0,32.000000
-47,-4,43,1634891694.0,32.000000
-47,-4,43,1634891694.0,32.000000
-48,-4,43,1634891694.0,32.000000
-48,-4,43,1634891694.0,32.000000
-47,-4,43,1634891694.0,32.000000
-47,-4,43,1634891694.0,32.000000
-47,-4,43,1634891694.0,32.000000
-47,-4,43,1634891694.0,32.000000
-47,-4,44,1634891694.0,32.000000
-47,-4,43,1634891694.0,32.000000
-47,-4,43,1634891694.0,32.000000
-47,-4,43,1634891694.0,32.000000
-47,-4,43,1634891694.0,32.000000
-47,-4,43,1634891694.0,32.000000
-47,-4,43,1634891694.0,32.000000
-47,-5,43,1634891694.0,32.000000
-47,-4,43,1634891694.0,32.000000
-47,-4,43,1634891694.0,32.000000
-47,-4,43,1634891694.0,32.000000
-48,-4,43,1634891694.0,32.000000
-48,-4,43,1634891694.0,32.000000
-48,-4,43,1634891694.0,32.000000
-47,-4,44,1634891694.0,32.000000
-46,-4,44,1634891694.0,32.000000
-47,-5,43,1634891694.0,32.000000
-47,-4,44,1634891694.0,32.000000
-47,-3,44,1634891694.0,32.000000
-48,-3,43,1634891694.0,32.000000
-48,-4,43,1634891694.0,32.000000
-47,-4,43,1634891694.0,32.000000
-47,-4,43,1634891694.0,32.000000
-47,-4,43,1634891694.0,32.000000
-47,-4,43,1634891694.0,32.000000
-48,-4,44,1634891694.0,32.000000
-48,-4,43,1634891694.0,32.000000
-47,-4,43,1634891694.0,32.000000
-47,-4,43,1634891694.0,32.000000
-47,-4,43,1634891694.0,32.000000
-48,-4,43,1634891694.0,32.000000
-47,-4,43,1634891694.0,32.000000
-47,-4,43,1634891694.0,32.000000
-47,-4,43,1634891694.0,32.000000
-47,-4,44,1634891694.0,32.000000
-47,-4,44,1634891694.0,32.000000
-47,-4,44,1634891694.0,32.000000
-48,-4,43,1634891694.0,32.000000
-47,-4,44,1634891694.0,32.000000
-47,-4,44,1634891694.0,32.000000
-48,-4,43,1634891694.0,32.000000
-47,-4,43,1634891694.0,32.000000
-47,-4,44,1634891694.0,32.000000
-46,-4,44,1634891694.0,32.000000
-47,-4,43,1634891694.0,32.000000
-47,-4,43,1634891694.0,32.000000
-47,-4,43,1634891694.0,32.000000
-48,-4,43,1634891694.0,32.000000
-47,-4,43,1634891694.0,32.000000
-47,-4,44,1634891694.0,32.000000
-47,-4,43,1634891694.0,32.000000
-47,-4,43,1634891694.0,32.000000
-47,-4,43,1634891694.0,32.000000
-47,-4,44,1634891694.0,32.000000
-47,-4,43,1634891694.0,32.000000
-47,-4,43,1634891694.0,32.000000
-47,-4,44,1634891694.0,32.000000
-47,-4,43,1634891694.0,32.000000
-47,-4,43,1634891694.0,32.000000
-47,-4,44,1634891694.0,32.000000
-48,-4,43,1634891694.0,32.000000
-47,-4,43,1634891694.0,32.000000
-47,-4,43,1634891694.0,32.000000
-47,-4,43,1634891694.0,32.000000
-47,-4,44,1634891694.0,32.000000
-47,-4,43,1634891694.0,32.000000
-47,-4,43,1634891694.0,32.000000
-47,-4,44,1634891694.0,32.000000
-47,-4,44,1634891694.0,32.000000
-48,-4,43,1634891694.0,32.000000
-48,-4,43,1634891694.0,32.000000
-47,-4,43,1634891694.0,32.000000
-47,-4,43,1634891694.0,32.000000
-47,-4,43,1634891694.0,32.000000
-47,-4,43,1634891694.0,32.000000
-47,-4,43,1634891694.0,32.000000
-48,-4,43,1634891694.0,32.000000
-48,-4,43,1634891694.0,32.000000
-47,-4,43,1634891694.0,32.000000
-47,-4,43,1634891694.0,32.000000
-47,-4,43,1634891694.0,32.000000
-48,-4,43,1634891694.0,32.000000
-47,-4,43,1634891694.0,32.000000
-47,-4,44,1634891694.0,32.000000
-48,-4,43,1634891694.0,32.000000
-48,-4,43,1634891694.0,32.000000
-47,-4,43,1634891694.0,32.000000
-47,-4,43,1634891694.0,32.000000
-47,-4,43,1634891694.0,32.000000
-48,-4,43,1634891694.0,32.000000
-47,-4,43,1634891694.0,32.000000
-47,-4,43,1634891694.0,32.000000
-47,-4,43,1634891694.0,32.000000
-48,-4,43,1634891694.0,32.000000
-48,-4,43,1634891694.0,32.000000
-47,-4,43,1634891694.0,32.000000
-47,-4,43,1634891694.0,32.000000
-48,-4,43,1634891694.0,32.000000
-48,-4,43,1634891694.0,32.000000
-48,-4,43,1634891694.0,32.000000
-48,-3,43,1634891694.0,32.000000
-48,-4,43,1634891694.0,32.000000
-48,-4,43,1634891694.0,32.000000
-48,-4,43,1634891694.0,32.000000
-48,-4,43,1634891694.0,32.000000
-48,-4,43,1634891694.0,32.000000
-47,-4,43,1634891694.0,32.000000
-48,-4,43,1634891694.0,32.000000
-48,-4,43,1634891694.0,32.000000
-47,-4,43,1634891694.0,32.000000
-48,-4,43,1634891694.0,32.000000
-48,-4,43,1634891694.0,32.000000
-48,-4,43,1634891694.0,32.000000
-48,-4,43,1634891694.0,32.000000
-48,-4,43,1634891694.0,32.000000
-48,-4,43,1634891694.0,32.000000
-48,-4,43,1634891694.0,32.000000
-48,-4,43,1634891694.0,32.000000
-47,-4,43,1634891694.0,32.000000
-48,-4,43,1634891694.0,32.000000
-48,-4,43,1634891694.0,32.000000
-48,-4,43,1634891694.0,32.000000
-47,-4,43,1634891694.0,32.000000
-47,-4,43,1634891694.0,32.000000
-47,-4,43,1634891694.0,32.000000
-48,-4,43,1634891694.0,32.000000
-47,-4,43,1634891694.0,32.000000
-47,-4,43,1634891694.0,32.000000
-47,-4,43,1634891694.0,32.000000
-47,-4,43,1634891694.0,32.000000
-47,-4,43,1634891694.0,32.000000
-47,-4,43,1634891694.0,32.000000
-47,-4,43,1634891694.0,32.000000
-48,-4,43,1634891694.0,32.000000
-48,-4,43,1634891694.0,32.000000
-47,-4,43,1634891694.0,32.000000
-47,-4,43,1634891694.0,32.000000
-48,-4,43,1634891694.0,32.000000
-47,-4,43,1634891694.0,32.000000
-47,-4,43,1634891694.0,32.000000
-47,-4,43,1634891694.0,32.000000
-47,-4,43,1634891694.0,32.000000
-48,-4,43,1634891694.0,32.000000
-48,-4,43,1634891694.0,32.000000
-48,-4,43,1634891694.0,32.000000
-47,-4,43,1634891694.0,32.000000
-47,-4,43,1634891694.0,32.000000
-47,-4,43,1634891694.0,32.000000
-47,-4,43,1634891694.0,32.000000
-47,-4,44,1634891694.0,32.000000
-47,-4,43,1634891694.0,32.000000
-47,-4,43,1634891694.0,32.000000
-47,-4,43,1634891694.0,32.000000
-47,-4,43,1634891694.0,32.000000
-47,-4,43,1634891694.0,32.000000
-48,-4,43,1634891694.0,32.000000
-47,-4,43,1634891694.0,32.000000
-47,-4,43,1634891694.0,32.000000
-47,-4,44,1634891694.0,32.000000
-47,-4,43,1634891694.0,32.000000
-47,-4,43,1634891694.0,32.000000
-47,-4,43,1634891694.0,32.000000
-47,-4,43,1634891694.0,32.000000
-47,-4,43,1634891694.0,32.000000
-47,-4,43,1634891694.0,32.000000
-48,-4,43,1634891694.0,32.000000
-48,-4,43,1634891694.0,32.000000
-47,-4,43,1634891694.0,32.000000
-47,-4,43,1634891694.0,32.000000
-48,-4,43,1634891694.0,32.000000
-48,-4,43,1634891694.0,32.000000
-47,-4,43,1634891694.0,32.000000
-47,-4,43,1634891694.0,32.000000
-47,-4,44,1634891694.0,32.000000
-47,-4,43,1634891694.0,32.000000
-47,-4,43,1634891694.0,32.000000
-47,-4,43,1634891694.0,32.000000
-48,-4,43,1634891694.0,32.000000
-47,-4,43,1634891694.0,32.000000
-47,-4,44,1634891694.0,32.000000
-47,-4,43,1634891694.0,32.000000
-47,-4,43,1634891694.0,32.000000
-47,-4,44,1634891694.0,32.000000
-47,-4,43,1634891694.0,32.000000
-47,-4,43,1634891694.0,32.000000
-47,-4,44,1634891694.0,32.000000
-47,-4,43,1634891694.0,32.000000
-47,-4,43,1634891694.0,32.000000
-47,-4,43,1634891694.0,32.000000
-47,-4,43,1634891694.0,32.000000
-47,-4,43,1634891694.0,32.000000
-47,-4,44,1634891694.0,32.000000
-47,-4,44,1634891694.0,32.000000
-47,-4,43,1634891694.0,32.000000
-48,-4,43,1634891694.0,32.000000
-47,-4,43,1634891694.0,32.000000
-47,-4,43,1634891694.0,32.000000
-48,-4,43,1634891694.0,32.000000
-48,-4,43,1634891694.0,32.000000
-47,-4,43,1634891694.0,32.000000
-47,-4,44,1634891694.0,32.000000
-47,-4,43,1634891694.0,32.000000
-47,-4,43,1634891694.0,32.000000
-47,-4,43,1634891694.0,32.000000
-47,-4,43,1634891694.0,32.000000
-47,-4,43,1634891694.0,32.000000
-47,-4,43,1634891694.0,32.000000
-48,-4,43,1634891694.0,32.000000
-48,-4,43,1634891694.0,32.000000
-47,-4,43,1634891694.0,32.000000
-47,-4,43,1634891694.0,32.000000
-48,-4,43,1634891694.0,32.000000
-48,-4,43,1634891694.0,32.000000
-47,-4,43,1634891694.0,32.000000
-47,-4,44,1634891694.0,32.000000
-47,-4,44,1634891694.0,32.000000
-47,-4,43,1634891694.0,32.000000
-48,-5,43,1634891694.0,32.000000
-47,-4,44,1634891694.0,32.000000
-47,-4,44,1634891694.0,32.000000
-47,-4,44,1634891694.0,32.000000
-48,-4,43,1634891694.0,32.000000
-48,-4,43,1634891694.0,32.000000
-48,-4,43,1634891694.0,32.000000
-48,-4,43,1634891694.0,32.000000
-48,-4,43,1634891694.0,32.000000
-47,-4,43,1634891694.0,32.000000
-47,-4,44,1634891694.0,32.000000
-47,-5,43,1634891694.0,32.000000
-47,-4,44,1634891694.0,32.000000
-47,-4,44,1634891694.0,32.000000
-47,-4,43,1634891694.0,32.000000
-48,-3,43,1634891694.0,32.000000
-48,-4,43,1634891694.0,32.000000
-47,-4,44,1634891694.0,32.000000
-47,-4,44,1634891694.0,32.000000
-48,-4,43,1634891694.0,32.000000
-48,-4,43,1634891694.0,32.000000
-47,-4,44,1634891694.0,32.000000
-47,-4,43,1634891694.0,32.000000
-47,-4,43,1634891694.0,32.000000
-47,-4,43,1634891694.0,32.000000
-48,-4,43,1634891694.0,32.000000
-48,-4,43,1634891694.0,32.000000
-48,-4,43,1634891694.0,32.000000
-47,-4,43,1634891694.0,32.000000
-47,-4,43,1634891694.0,32.000000
-48,-4,43,1634891694.0,32.000000
-47,-4,43,1634891694.0,32.000000
-47,-4,43,1634891694.0,32.000000
-47,-4,43,1634891694.0,32.000000
-48,-4,43,1634891694.0,32.000000
-47,-4,43,1634891694.0,32.000000
-47,-4,43,1634891694.0,32.000000
-47,-4,43,1634891694.0,32.000000
-48,-4,43,1634891694.0,32.000000
-48,-4,43,1634891694.0,32.000000
-47,-4,43,1634891694.0,32.000000
-47,-4,44,1634891694.0,32.000000
-47,-4,43,1634891694.0,32.000000
-48,-4,43,1634891694.0,32.000000
-47,-4,43,1634891694.0,32.000000
-47,-4,43,1634891694.0,32.000000
-47,-4,43,1634891694.0,32.000000
-47,-4,43,1634891694.0,32.000000
-47,-4,43,1634891694.0,32.000000
-48,-4,43,1634891694.0,32.000000
-47,-4,43,1634891694.0,32.000000
-47,-4,43,1634891694.0,32.000000
-48,-4,43,1634891694.0,32.000000
-48,-4,43,1634891694.0,32.000000
-47,-4,43,1634891694.0,32.000000
-47,-4,44,1634891694.0,32.000000
-48,-4,43,1634891694.0,32.000000
-48,-4,43,1634891694.0,32.000000
-47,-4,43,1634891694.0,32.000000
-47,-4,43,1634891694.0,32.000000
-47,-4,43,1634891694.0,32.000000
-47,-4,43,1634891694.0,32.000000
-47,-4,44,1634891694.0,32.000000
-47,-4,43,1634891694.0,32.000000
-47,-4,43,1634891694.0,32.000000
-48,-4,43,1634891694.0,32.000000
-47,-4,43,1634891694.0,32.000000
-47,-4,43,1634891694.0,32.000000
-47,-4,43,1634891694.0,32.000000
-47,-4,43,1634891694.0,32.000000
-47,-4,44,1634891694.0,32.000000
-47,-4,43,1634891694.0,32.000000
-47,-4,43,1634891694.0,32.000000
-48,-4,43,1634891694.0,32.000000
-47,-4,43,1634891694.0,32.000000
-48,-4,43,1634891694.0,32.000000
