ACC_X,ACC_Y,ACC_Z,start_time_unix,sampling_rate
-49,6,43,1634891695.0,32.000000
-50,6,43,1634891695.0,32.000000
-49,6,43,1634891695.0,32.000000
-49,6,44,1634891695.0,32.000000
-50,6,43,1634891695.0,32.000000
-50,6,43,1634891695.0,32.000000
-49,6,44,1634891695.0,32.000000
-50,6,43,1634891695.0,32.000000
-50,6,43,1634891695.0,32.000000
-49,6,43,1634891695.0,32.000000
-49,6,43,1634891695.0,32.000000
-49,6,43,1634891695.0,32.000000
-49,6,43,1634891695.0,32.000000
-49,5,43,1634891695.0,32.000000
-50,6,43,1634891695.0,32.000000
-50,6,43,1634891695.0,32.000000
-49,5,44,1634891695.0,32.000000
-49,5,44,1634891695.0,32.000000
-49,5,44,1634891695.0,32.000000
-49,5,45,1634891695.0,32.000000
-49,5,44,1634891695.0,32.000000
-48,5,45,1634891695.0,32.000000
-48,5,45,1634891695.0,32.000000
-48,5,45,1634891695.0,32.000000
-46,4,48,1634891695.0,32.000000
-44,3,49,1634891695.0,32.000000
-43,4,48,1634891695.0,32.000000
-40,5,51,1634891695.0,32.000000
-40,5,51,1634891695.0,32.000000
-42,5,49,1634891695.0,32.000000
-43,5,49,1634891695.0,32.000000
-43,5,49,1634891695.0,32.000000
-44,5,49,1634891695.0,32.000000
-44,5,49,1634891695.0,32.000000
-44,4,49,1634891695.0,32.000000
-44,5,48,1634891695.0,32.000000
-44,5,49,1634891695.0,32.000000
-45,5,49,1634891695.0,32.000000
-44,4,49,1634891695.0,32.000000
-43,4,50,1634891695.0,32.000000
-43,4,51,1634891695.0,32.000000
-43,4,50,1634891695.0,32.000000
-43,5,50,1634891695.0,32.000000
-44,5,50,1634891695.0,32.000000
-45,5,51,1634891695.0,32.000000
-41,3,51,1634891695.0,32.000000
-41,4,47,1634891695.0,32.000000
-39,4,47,1634891695.0,32.000000
-47,23,46,1634891695.0,32.000000
-51,9,49,1634891695.0,32.000000
-39,5,50,1634891695.0,32.000000
-36,4,48,1634891695.0,32.000000
-32,0,43,1634891695.0,32.000000
-32,-3,44,1634891695.0,32.000000
-44,10,62,1634891695.0,32.000000
-46,5,51,1634891695.0,32.000000
-40,7,48,1634891695.0,32.000000
-40,3,53,1634891695.0,32.000000
-40,3,52,1634891695.0,32.000000
-39,4,52,1634891695.0,32.000000
-45,4,50,1634891695.0,32.000000
-45,5,49,1634891695.0,32.000000
-47,6,48,1634891695.0,32.000000
-47,5,48,1634891695.0,32.000000
-44,7,47,1634891695.0,32.000000
-43,7,48,1634891695.0,32.000000
-43,6,49,1634891695.0,32.000000
-44,6,48,1634891695.0,32.000000
-45,6,47,1634891695.0,32.000000
-45,7,48,1634891695.0,32.000000
-43,7,49,1634891695.0,32.000000
-43,7,49,1634891695.0,32.000000
-45,7,48,1634891695.0,32.000000
-44,7,48,1634891695.0,32.000000
-45,7,49,1634891695.0,32.000000
-45,7,47,1634891695.0,32.000000
-45,7,48,1634891695.0,32.000000
-45,7,48,1634891695.0,32.000000
-43,7,49,1634891695.0,32.000000
-45,7,47,1634891695.0,32.000000
-45,7,47,1634891695.0,32.000000
-45,7,47,1634891695.0,32.000000
-45,7,48,1634891695.0,32.000000
-45,7,48,1634891695.0,32.000000
-45,7,48,1634891695.0,32.000000
-45,7,48,1634891695.0,32.000000
-45,7,47,1634891695.0,32.000000
-45,7,47,1634891695.0,32.000000
-45,7,47,1634891695.0,32.000000
-45,7,47,1634891695.0,32.000000
-45,7,47,1634891695.0,32.000000
-45,7,47,1634891695.0,32.000000
-45,7,47,1634891695.0,32.000000
-45,7,48,1634891695.0,32.000000
-46,7,47,1634891695.0,32.000000
-45,7,47,1634891695.0,32.000000
-45,7,47,1634891695.0,32.000000
-46,7,47,1634891695.0,32.000000
-45,7,47,1634891695.0,32.000000
-45,7,47,1634891695.0,32.000000
-45,7,47,1634891695.0,32.000000
-46,7,47,1634891695.0,32.000000
-45,7,47,1634891695.0,32.000000
-45,7,47,1634891695.0,32.000000
-45,7,47,1634891695.0,32.000000
-45,7,47,1634891695.0,32.000000
-46,7,48,1634891695.0,32.000000
-45,7,47,1634891695.0,32.000000
-46,7,48,1634891695.0,32.000000
-45,7,48,1634891695.0,32.000000
-45,7,48,1634891695.0,32.000000
-45,8,48,1634891695.0,32.000000
-44,7,48,1634891695.0,32.000000
-44,7,47,1634891695.0,32.000000
-45,7,48,1634891695.0,32.000000
-45,7,48,1634891695.0,32.000000
-44,7,47,1634891695.0,32.000000
-45,8,47,1634891695.0,32.000000
-45,8,47,1634891695.0,32.000000
-45,8,47,1634891695.0,32.000000
-45,8,47,1634891695.0,32.000000
-45,8,48,1634891695.0,32.000000
-45,7,48,1634891695.0,32.000000
-45,7,47,1634891695.0,32.000000
-45,7,48,1634891695.0,32.000000
-45,7,47,1634891695.0,32.000000
-45,7,48,1634891695.0,32.000000
-43,7,49,1634891695.0,32.000000
-44,6,49,1634891695.0,32.000000
-44,7,49,1634891695.0,32.000000
-43,7,49,1634891695.0,32.000000
-44,7,49,1634891695.0,32.000000
-44,7,49,1634891695.0,32.000000
-43,7,49,1634891695.0,32.000000
-42,8,49,1634891695.0,32.000000
-44,8,49,1634891695.0,32.000000
-44,7,48,1634891695.0,32.000000
-43,7,49,1634891695.0,32.000000
-44,6,49,1634891695.0,32.000000
-43,7,49,1634891695.0,32.000000
-44,7,49,1634891695.0,32.000000
-43,7,48,1634891695.0,32.000000
-43,7,49,1634891695.0,32.000000
-43,7,49,1634891695.0,32.000000
-44,7,49,1634891695.0,32.000000
-44,7,49,1634891695.0,32.000000
-44,7,48,1634891695.0,32.000000
-44,7,48,1634891695.0,32.000000
-44,7,48,1634891695.0,32.000000
-44,7,49,1634891695.0,32.000000
-44,7,48,1634891695.0,32.000000
-44,7,48,1634891695.0,32.000000
-44,7,49,1634891695.0,32.000000
-44,7,48,1634891695.0,32.000000
-44,6,49,1634891695.0,32.000000
-44,6,49,1634891695.0,32.000000
-44,7,48,1634891695.0,32.000000
-44,7,49,1634891695.0,32.000000
-44,6,49,1634891695.0,32.000000
-44,7,48,1634891695.0,32.000000
-44,7,49,1634891695.0,32.000000
-44,7,49,1634891695.0,32.000000
-44,7,48,1634891695.0,32.000000
-44,7,48,1634891695.0,32.000000
-44,7,48,1634891695.0,32.000000
-44,7,49,1634891695.0,32.000000
-43,7,48,1634891695.0,32.000000
-43,7,49,1634891695.0,32.000000
-44,7,48,1634891695.0,32.000000
-44,7,49,1634891695.0,32.000000
-43,7,49,1634891695.0,32.000000
-44,7,48,1634891695.0,32.000000
-44,7,48,1634891695.0,32.000000
-44,7,49,1634891695.0,32.000000
-44,7,48,1634891695.0,32.000000
-44,7,49,1634891695.0,32.000000
-44,7,49,1634891695.0,32.000000
-44,7,48,1634891695.0,32.000000
-43,7,48,1634891695.0,32.000000
-44,7,48,1634891695.0,32.000000
-44,7,48,1634891695.0,32.000000
-44,7,48,1634891695.0,32.000000
-44,7,48,1634891695.0,32.000000
-44,8,48,1634891695.0,32.000000
-44,7,48,1634891695.0,32.000000
-44,7,49,1634891695.0,32.000000
-45,7,48,1634891695.0,32.000000
-44,7,48,1634891695.0,32.000000
-39,6,51,1634891695.0,32.000000
-43,8,49,1634891695.0,32.000000
-45,8,47,1634891695.0,32.000000
-44,6,49,1634891695.0,32.000000
-43,7,49,1634891695.0,32.000000
-41,7,51,1634891695.0,32.000000
-41,7,51,1634891695.0,32.000000
-42,8,50,1634891695.0,32.000000
-41,7,50,1634891695.0,32.000000
-41,8,51,1634891695.0,32.000000
-40,8,52,1634891695.0,32.000000
-38,8,52,1634891695.0,32.000000
-37,7,53,1634891695.0,32.000000
-39,7,52,1634891695.0,32.000000
-39,7,52,1634891695.0,32.000000
-40,8,52,1634891695.0,32.000000
-40,8,52,1634891695.0,32.000000
-39,7,52,1634891695.0,32.000000
-39,8,51,1634891695.0,32.000000
-40,7,51,1634891695.0,32.000000
-39,8,52,1634891695.0,32.000000
-40,7,51,1634891695.0,32.000000
-40,8,51,1634891695.0,32.000000
-39,8,51,1634891695.0,32.000000
-41,8,51,1634891695.0,32.000000
-41,8,50,1634891695.0,32.000000
-40,5,51,1634891695.0,32.000000
-44,6,51,1634891695.0,32.000000
-40,8,51,1634891695.0,32.000000
-40,9,50,1634891695.0,32.000000
-35,7,55,1634891695.0,32.000000
-33,8,55,1634891695.0,32.000000
-32,9,54,1634891695.0,32.000000
-34,4,61,1634891695.0,32.000000
-27,3,57,1634891695.0,32.000000
-20,-1,51,1634891695.0,32.000000
-16,2,56,1634891695.0,32.000000
-3,6,73,1634891695.0,32.000000
3,-7,61,1634891695.0,32.000000
5,3,73,1634891695.0,32.000000
5,-8,48,1634891695.0,32.000000
4,1,66,1634891695.0,32.000000
5,-3,61,1634891695.0,32.000000
14,-6,63,1634891695.0,32.000000
7,-2,62,1634891695.0,32.000000
10,-5,64,1634891695.0,32.000000
7,-3,63,1634891695.0,32.000000
4,-4,63,1634891695.0,32.000000
4,-3,62,1634891695.0,32.000000
5,-3,63,1634891695.0,32.000000
7,-3,63,1634891695.0,32.000000
8,-3,63,1634891695.0,32.000000
9,-3,63,1634891695.0,32.000000
9,-4,63,1634891695.0,32.000000
7,-4,62,1634891695.0,32.000000
7,-4,63,1634891695.0,32.000000
8,-4,62,1634891695.0,32.000000
8,-3,63,1634891695.0,32.000000
8,-3,63,1634891695.0,32.000000
7,-3,63,1634891695.0,32.000000
7,-3,62,1634891695.0,32.000000
8,-3,62,1634891695.0,32.000000
7,-3,63,1634891695.0,32.000000
7,-3,63,1634891695.0,32.000000
7,-3,62,1634891695.0,32.000000
7,-3,63,1634891695.0,32.000000
7,-3,63,1634891695.0,32.000000
7,-3,63,1634891695.0,32.000000
7,-3,63,1634891695.0,32.000000
6,-3,63,1634891695.0,32.000000
7,-2,63,1634891695.0,32.000000
7,-2,63,1634891695.0,32.000000
6,-2,63,1634891695.0,32.000000
6,-2,63,1634891695.0,32.000000
7,-2,62,1634891695.0,32.000000
6,-2,63,1634891695.0,32.000000
6,-2,63,1634891695.0,32.000000
6,-2,63,1634891695.0,32.000000
6,-2,63,1634891695.0,32.000000
6,-1,63,1634891695.0,32.000000
6,-2,63,1634891695.0,32.000000
6,-1,63,1634891695.0,32.000000
6,-1,63,1634891695.0,32.000000
5,-2,63,1634891695.0,32.000000
5,-1,63,1634891695.0,32.000000
4,-1,63,1634891695.0,32.000000
5,-1,63,1634891695.0,32.000000
4,-1,63,1634891695.0,32.000000
3,-1,63,1634891695.0,32.000000
3,-1,63,1634891695.0,32.000000
3,-1,63,1634891695.0,32.000000
3,-1,63,1634891695.0,32.000000
3,-1,63,1634891695.0,32.000000
4,-1,63,1634891695.0,32.000000
3,-1,63,1634891695.0,32.000000
2,0,63,1634891695.0,32.000000
3,-1,63,1634891695.0,32.000000
3,-1,63,1634891695.0,32.000000
3,-1,63,1634891695.0,32.000000
3,0,63,1634891695.0,32.000000
2,0,63,1634891695.0,32.000000
2,0,64,1634891695.0,32.000000
3,0,63,1634891695.0,32.000000
1,0,63,1634891695.0,32.000000
1,1,63,1634891695.0,32.000000
0,1,63,1634891695.0,32.000000
0,0,64,1634891695.0,32.000000
0,0,64,1634891695.0,32.000000
-2,1,64,1634891695.0,32.000000
-2,1,64,1634891695.0,32.000000
-3,1,64,1634891695.0,32.000000
-10,2,63,1634891695.0,32.000000
-10,1,63,1634891695.0,32.000000
-15,2,62,1634891695.0,32.000000
-18,3,61,1634891695.0,32.000000
-19,1,60,1634891695.0,32.000000
-21,5,60,1634891695.0,32.000000
-24,4,61,1634891695.0,32.000000
-23,5,59,1634891695.0,32.000000
-22,5,59,1634891695.0,32.000000
-22,5,60,1634891695.0,32.000000
-21,6,59,1634891695.0,32.000000
-23,4,59,1634891695.0,32.000000
-27,5,59,1634891695.0,32.000000
-29,5,58,1634891695.0,32.000000
-32,5,57,1634891695.0,32.000000
-29,4,58,1634891695.0,32.000000
-29,4,58,1634891695.0,32.000000
-29,4,58,1634891695.0,32.000000
-30,5,58,1634891695.0,32.000000
-28,5,59,1634891695.0,32.000000
-29,4,59,1634891695.0,32.000000
-30,5,57,1634891695.0,32.000000
-31,4,56,1634891695.0,32.000000
-30,5,58,1634891695.0,32.000000
-31,5,57,1634891695.0,32.000000
-35,4,54,1634891695.0,32.000000
-35,6,55,1634891695.0,32.000000
-35,6,54,1634891695.0,32.000000
-33,5,56,1634891695.0,32.000000
-34,5,56,1634891695.0,32.000000
-32,5,57,1634891695.0,32.000000
-32,5,56,1634891695.0,32.000000
-33,6,55,1634891695.0,32.000000
-33,6,56,1634891695.0,32.000000
-34,5,55,1634891695.0,32.000000
-35,5,55,1634891695.0,32.000000
-33,6,56,1634891695.0,32.000000
-33,6,56,1634891695.0,32.000000
-33,7,55,1634891695.0,32.000000
-34,6,55,1634891695.0,32.000000
-36,7,54,1634891695.0,32.000000
-36,6,54,1634891695.0,32.000000
-36,5,54,1634891695.0,32.000000
-35,5,54,1634891695.0,32.000000
-33,4,55,1634891695.0,32.000000
-37,5,54,1634891695.0,32.000000
-34,5,55,1634891695.0,32.000000
-36,5,54,1634891695.0,32.000000
-38,6,53,1634891695.0,32.000000
-36,6,54,1634891695.0,32.000000
-36,5,54,1634891695.0,32.000000
-35,5,55,1634891695.0,32.000000
-35,5,55,1634891695.0,32.000000
-35,5,54,1634891695.0,32.000000
-35,5,55,1634891695.0,32.000000
-35,4,55,1634891695.0,32.000000
-36,5,54,1634891695.0,32.000000
-37,5,53,1634891695.0,32.000000
-35,4,54,1634891695.0,32.000000
-38,4,54,1634891695.0,32.000000
-37,5,53,1634891695.0,32.000000
-37,5,54,1634891695.0,32.000000
-37,5,53,1634891695.0,32.000000
-38,4,53,1634891695.0,32.000000
-39,4,53,1634891695.0,32.000000
-38,5,53,1634891695.0,32.000000
-38,4,53,1634891695.0,32.000000
-39,4,53,1634891695.0,32.000000
-39,5,52,1634891695.0,32.000000
-39,5,52,1634891695.0,32.000000
-39,5,52,1634891695.0,32.000000
-39,4,53,1634891695.0,32.000000
-39,4,52,1634891695.0,32.000000
-39,4,52,1634891695.0,32.000000
-39,5,52,1634891695.0,32.000000
-39,4,53,1634891695.0,32.000000
-39,4,52,1634891695.0,32.000000
-39,4,52,1634891695.0,32.000000
-38,4,52,1634891695.0,32.000000
-39,5,52,1634891695.0,32.000000
-40,4,52,1634891695.0,32.000000
-40,5,52,1634891695.0,32.000000
-39,4,52,1634891695.0,32.000000
-40,5,52,1634891695.0,32.000000
-39,5,52,1634891695.0,32.000000
-39,5,52,1634891695.0,32.000000
-41,5,51,1634891695.0,32.000000
-39,4,51,1634891695.0,32.000000
-43,4,52,1634891695.0,32.000000
-40,8,53,1634891695.0,32.000000
-39,5,49,1634891695.0,32.000000
-41,6,52,1634891695.0,32.000000
-41,6,52,1634891695.0,32.000000
-43,6,50,1634891695.0,32.000000
-41,4,52,1634891695.0,32.000000
-41,5,51,1634891695.0,32.000000
-41,6,51,1634891695.0,32.000000
-43,6,50,1634891695.0,32.000000
-40,4,51,1634891695.0,32.000000
-40,5,51,1634891695.0,32.000000
-42,6,50,1634891695.0,32.000000
-41,5,50,1634891695.0,32.000000
-41,6,51,1634891695.0,32.000000
-41,5,51,1634891695.0,32.000000
-42,5,50,1634891695.0,32.000000
-42,5,50,1634891695.0,32.000000
-42,5,50,1634891695.0,32.000000
-41,5,50,1634891695.0,32.000000
-42,6,50,1634891695.0,32.000000
-42,6,50,1634891695.0,32.000000
-42,6,50,1634891695.0,32.000000
-42,6,50,1634891695.0,32.000000
-42,6,50,1634891695.0,32.000000
-42,5,50,1634891695.0,32.000000
-42,6,50,1634891695.0,32.000000
-42,6,50,1634891695.0,32.000000
-42,6,50,1634891695.0,32.000000
-42,6,50,1634891695.0,32.000000
-41,5,50,1634891695.0,32.000000
-42,5,50,1634891695.0,32.000000
-43,6,49,1634891695.0,32.000000
-41,5,50,1634891695.0,32.000000
-42,5,50,1634891695.0,32.000000
-42,5,50,1634891695.0,32.000000
-42,5,50,1634891695.0,32.000000
-41,5,51,1634891695.0,32.000000
-42,5,50,1634891695.0,32.000000
-42,5,50,1634891695.0,32.000000
-42,5,50,1634891695.0,32.000000
-42,5,50,1634891695.0,32.000000
-42,5,50,1634891695.0,32.000000
-41,5,50,1634891695.0,32.000000
-42,5,50,1634891695.0,32.000000
-42,5,50,1634891695.0,32.000000
-42,6,50,1634891695.0,32.000000
-42,5,50,1634891695.0,32.000000
-43,5,50,1634891695.0,32.000000
-42,6,50,1634891695.0,32.000000
-42,5,50,1634891695.0,32.000000
-42,5,50,1634891695.0,32.000000
-42,5,50,1634891695.0,32.000000
-42,5,50,1634891695.0,32.000000
-42,5,50,1634891695.0,32.000000
-42,5,50,1634891695.0,32.000000
-42,5,50,1634891695.0,32.000000
-42,5,50,1634891695.0,32.000000
-42,5,50,1634891695.0,32.000000
-42,5,50,1634891695.0,32.000000
-41,5,50,1634891695.0,32.000000
-41,5,51,1634891695.0,32.000000
-42,6,50,1634891695.0,32.000000
-41,5,50,1634891695.0,32.000000
-42,5,50,1634891695.0,32.000000
-41,5,51,1634891695.0,32.000000
-42,5,50,1634891695.0,32.000000
-41,5,50,1634891695.0,32.000000
-41,5,50,1634891695.0,32.000000
-41,5,50,1634891695.0,32.000000
-41,5,51,1634891695.0,32.000000
-41,5,51,1634891695.0,32.000000
-41,5,50,1634891695.0,32.000000
-42,5,50,1634891695.0,32.000000
-41,5,50,1634891695.0,32.000000
-41,5,51,1634891695.0,32.000000
-42,5,51,1634891695.0,32.000000
-41,5,50,1634891695.0,32.000000
-41,5,50,1634891695.0,32.000000
-41,5,50,1634891695.0,32.000000
-41,5,50,1634891695.0,32.000000
-42,5,50,1634891695.0,32.000000
-42,5,50,1634891695.0,32.000000
-42,6,50,1634891695.0,32.000000
-42,6,50,1634891695.0,32.000000
-43,6,48,1634891695.0,32.000000
-43,6,50,1634891695.0,32.000000
-43,5,49,1634891695.0,32.000000
-43,5,49,1634891695.0,32.000000
-42,5,50,1634891695.0,32.000000
-43,5,49,1634891695.0,32.000000
-42,5,50,1634891695.0,32.000000
-42,5,50,1634891695.0,32.000000
-43,6,49,1634891695.0,32.000000
-43,6,49,1634891695.0,32.000000
-43,6,49,1634891695.0,32.000000
-42,5,50,1634891695.0,32.000000
-42,5,50,1634891695.0,32.000000
-43,5,50,1634891695.0,32.000000
-43,5,49,1634891695.0,32.000000
-43,5,50,1634891695.0,32.000000
-43,5,50,1634891695.0,32.000000
-43,5,49,1634891695.0,32.000000
-42,6,49,1634891695.0,32.000000
-42,6,50,1634891695.0,32.000000
-43,6,49,1634891695.0,32.000000
-43,6,49,1634891695.0,32.000000
-43,6,49,1634891695.0,32.000000
-43,6,49,1634891695.0,32.000000
-43,6,49,1634891695.0,32.000000
-42,6,50,1634891695.0,32.000000
-43,6,49,1634891695.0,32.000000
-43,6,49,1634891695.0,32.000000
-42,6,50,1634891695.0,32.000000
-42,6,50,1634891695.0,32.000000
-43,6,49,1634891695.0,32.000000
-43,6,49,1634891695.0,32.000000
-42,6,50,1634891695.0,32.000000
-43,6,50,1634891695.0,32.000000
-43,6,50,1634891695.0,32.000000
-42,6,50,1634891695.0,32.000000
-43,6,49,1634891695.0,32.000000
-43,6,49,1634891695.0,32.000000
-42,6,50,1634891695.0,32.000000
-42,6,50,1634891695.0,32.000000
-43,6,49,1634891695.0,32.000000
-42,6,49,1634891695.0,32.000000
-43,6,49,1634891695.0,32.000000
-43,6,50,1634891695.0,32.000000
-42,6,49,1634891695.0,32.000000
-42,6,50,1634891695.0,32.000000
-43,6,49,1634891695.0,32.000000
-43,6,49,1634891695.0,32.000000
-42,6,49,1634891695.0,32.000000
-42,6,50,1634891695.0,32.000000
-42,6,50,1634891695.0,32.000000
-42,6,50,1634891695.0,32.000000
-42,6,50,1634891695.0,32.000000
-42,6,49,1634891695.0,32.000000
-42,6,50,1634891695.0,32.000000
-42,6,50,1634891695.0,32.000000
-43,6,49,1634891695.0,32.000000
-43,6,49,1634891695.0,32.000000
-43,6,49,1634891695.0,32.000000
-42,6,50,1634891695.0,32.000000
-42,5,50,1634891695.0,32.000000
-42,6,50,1634891695.0,32.000000
-43,6,50,1634891695.0,32.000000
-43,6,49,1634891695.0,32.000000
-42,6,50,1634891695.0,32.000000
-42,6,50,1634891695.0,32.000000
-42,6,50,1634891695.0,32.000000
-42,6,49,1634891695.0,32.000000
-42,6,50,1634891695.0,32.000000
-42,6,50,1634891695.0,32.000000
-42,6,50,1634891695.0,32.000000
-42,5,50,1634891695.0,32.000000
-42,5,50,1634891695.0,32.000000
-42,5,50,1634891695.0,32.000000
-41,5,50,1634891695.0,32.000000
-42,6,50,1634891695.0,32.000000
-43,7,49,1634891695.0,32.000000
-41,6,51,1634891695.0,32.000000
-40,6,52,1634891695.0,32.000000
-41,7,50,1634891695.0,32.000000
-41,7,50,1634891695.0,32.000000
-42,8,50,1634891695.0,32.000000
-41,8,50,1634891695.0,32.000000
-40,7,51,1634891695.0,32.000000
-42,6,51,1634891695.0,32.000000
-43,6,48,1634891695.0,32.000000
-39,6,51,1634891695.0,32.000000
-39,6,52,1634891695.0,32.000000
-42,7,50,1634891695.0,32.000000
-41,8,50,1634891695.0,32.000000
-41,8,51,1634891695.0,32.000000
-40,6,52,1634891695.0,32.000000
-39,6,53,1634891695.0,32.000000
-38,6,53,1634891695.0,32.000000
-40,8,50,1634891695.0,32.000000
-39,6,54,1634891695.0,32.000000
-41,7,51,1634891695.0,32.000000
-39,7,51,1634891695.0,32.000000
-40,8,50,1634891695.0,32.000000
-38,5,55,1634891695.0,32.000000
-38,6,52,1634891695.0,32.000000
-42,8,51,1634891695.0,32.000000
-37,6,54,1634891695.0,32.000000
-40,7,49,1634891695.0,32.000000
-38,7,52,1634891695.0,32.000000
-41,8,50,1634891695.0,32.000000
-40,6,53,1634891695.0,32.000000
-40,8,51,1634891695.0,32.000000
-40,7,52,1634891695.0,32.000000
-40,8,53,1634891695.0,32.000000
-38,8,49,1634891695.0,32.000000
-34,7,55,1634891695.0,32.000000
-38,7,53,1634891695.0,32.000000
-38,8,52,1634891695.0,32.000000
-39,7,53,1634891695.0,32.000000
-38,7,52,1634891695.0,32.000000
-37,7,53,1634891695.0,32.000000
-37,8,53,1634891695.0,32.000000
-39,8,51,1634891695.0,32.000000
-39,9,53,1634891695.0,32.000000
-39,8,52,1634891695.0,32.000000
-38,9,51,1634891695.0,32.000000
-38,8,53,1634891695.0,32.000000
-40,7,51,1634891695.0,32.000000
-40,8,53,1634891695.0,32.000000
-37,8,53,1634891695.0,32.000000
-40,8,48,1634891695.0,32.000000
-42,8,54,1634891695.0,32.000000
-38,10,52,1634891695.0,32.000000
-38,8,52,1634891695.0,32.000000
-37,8,53,1634891695.0,32.000000
-38,9,54,1634891695.0,32.000000
-37,8,54,1634891695.0,32.000000
-38,9,52,1634891695.0,32.000000
-41,8,49,1634891695.0,32.000000
-41,9,53,1634891695.0,32.000000
-38,9,53,1634891695.0,32.000000
-38,9,51,1634891695.0,32.000000
-40,8,52,1634891695.0,32.000000
-39,8,52,1634891695.0,32.000000
-38,9,52,1634891695.0,32.000000
-38,9,52,1634891695.0,32.000000
-42,9,49,1634891695.0,32.000000
-41,10,53,1634891695.0,32.000000
-37,8,53,1634891695.0,32.000000
-36,9,53,1634891695.0,32.000000
-39,9,52,1634891695.0,32.000000
-38,9,52,1634891695.0,32.000000
-38,9,52,1634891695.0,32.000000
-39,9,52,1634891695.0,32.000000
-39,9,51,1634891695.0,32.000000
-39,8,52,1634891695.0,32.000000
-39,8,52,1634891695.0,32.000000
-38,8,52,1634891695.0,32.000000
-38,7,52,1634891695.0,32.000000
-39,6,52,1634891695.0,32.000000
-39,7,53,1634891695.0,32.000000
-39,6,53,1634891695.0,32.000000
-38,6,53,1634891695.0,32.000000
-39,5,52,1634891695.0,32.000000
-40,7,52,1634891695.0,32.000000
-38,3,53,1634891695.0,32.000000
-38,6,52,1634891695.0,32.000000
-39,8,52,1634891695.0,32.000000
-40,8,52,1634891695.0,32.000000
-38,8,52,1634891695.0,32.000000
-36,10,54,1634891695.0,32.000000
-36,6,54,1634891695.0,32.000000
-38,5,53,1634891695.0,32.000000
-39,7,52,1634891695.0,32.000000
-38,6,53,1634891695.0,32.000000
-38,6,53,1634891695.0,32.000000
-38,6,53,1634891695.0,32.000000
-39,7,52,1634891695.0,32.000000
-39,7,52,1634891695.0,32.000000
-38,7,52,1634891695.0,32.000000
-40,6,52,1634891695.0,32.000000
-41,6,51,1634891695.0,32.000000
-42,7,51,1634891695.0,32.000000
-42,7,50,1634891695.0,32.000000
-42,7,50,1634891695.0,32.000000
-42,7,50,1634891695.0,32.000000
-41,8,49,1634891695.0,32.000000
-39,8,50,1634891695.0,32.000000
-39,8,51,1634891695.0,32.000000
-40,8,50,1634891695.0,32.000000
-43,9,48,1634891695.0,32.000000
-44,6,49,1634891695.0,32.000000
-43,6,49,1634891695.0,32.000000
-43,7,49,1634891695.0,32.000000
-42,6,50,1634891695.0,32.000000
-41,5,51,1634891695.0,32.000000
-41,4,51,1634891695.0,32.000000
-42,4,51,1634891695.0,32.000000
-43,4,50,1634891695.0,32.000000
-44,5,49,1634891695.0,32.000000
-45,5,49,1634891695.0,32.000000
-46,7,48,1634891695.0,32.000000
-45,7,48,1634891695.0,32.000000
-43,8,49,1634891695.0,32.000000
-43,6,50,1634891695.0,32.000000
-43,6,49,1634891695.0,32.000000
-44,6,48,1634891695.0,32.000000
-45,8,48,1634891695.0,32.000000
-43,7,48,1634891695.0,32.000000
-43,6,49,1634891695.0,32.000000
-44,7,48,1634891695.0,32.000000
-44,7,48,1634891695.0,32.000000
-44,7,49,1634891695.0,32.000000
-40,6,51,1634891695.0,32.000000
-43,7,49,1634891695.0,32.000000
-42,8,50,1634891695.0,32.000000
-44,7,49,1634891695.0,32.000000
-43,6,50,1634891695.0,32.000000
-42,7,50,1634891695.0,32.000000
-42,7,50,1634891695.0,32.000000
-41,7,51,1634891695.0,32.000000
-40,7,51,1634891695.0,32.000000
-41,7,51,1634891695.0,32.000000
-38,7,52,1634891695.0,32.000000
-40,7,51,1634891695.0,32.000000
-40,7,51,1634891695.0,32.000000
-41,7,51,1634891695.0,32.000000
-40,7,51,1634891695.0,32.000000
-40,7,51,1634891695.0,32.000000
-40,7,52,1634891695.0,32.000000
-40,7,52,1634891695.0,32.000000
-40,7,51,1634891695.0,32.000000
-40,7,52,1634891695.0,32.000000
-40,7,51,1634891695.0,32.000000
-41,7,51,1634891695.0,32.000000
-41,7,51,1634891695.0,32.000000
-39,6,52,1634891695.0,32.000000
-41,6,51,1634891695.0,32.000000
-41,7,50,1634891695.0,32.000000
-40,7,51,1634891695.0,32.000000
-39,6,52,1634891695.0,32.000000
-40,6,51,1634891695.0,32.000000
-40,6,51,1634891695.0,32.000000
-41,7,51,1634891695.0,32.000000
-40,6,51,1634891695.0,32.000000
-40,6,52,1634891695.0,32.000000
-41,7,51,1634891695.0,32.000000
-41,7,51,1634891695.0,32.000000
-40,7,51,1634891695.0,32.000000
-40,6,51,1634891695.0,32.000000
-40,7,51,1634891695.0,32.000000
-41,7,51,1634891695.0,32.000000
-41,7,51,1634891695.0,32.000000
-40,7,51,1634891695.0,32.000000
-38,7,48,1634891695.0,32.000000
-46,6,55,1634891695.0,32.000000
-39,8,50,1634891695.0,32.000000
-39,6,51,1634891695.0,32.000000
-41,8,51,1634891695.0,32.000000
-39,6,51,1634891695.0,32.000000
-40,6,51,1634891695.0,32.000000
-41,6,51,1634891695.0,32.000000
-41,6,51,1634891695.0,32.000000
-40,6,51,1634891695.0,32.000000
-41,6,51,1634891695.0,32.000000
-41,6,51,1634891695.0,32.000000
-41,6,51,1634891695.0,32.000000
-41,6,51,1634891695.0,32.000000
-40,6,52,1634891695.0,32.000000
-41,6,50,1634891695.0,32.000000
-42,6,50,1634891695.0,32.000000
-40,7,51,1634891695.0,32.000000
-41,6,51,1634891695.0,32.000000
-41,6,50,1634891695.0,32.000000
-41,6,51,1634891695.0,32.000000
-41,6,50,1634891695.0,32.000000
-41,7,51,1634891695.0,32.000000
-41,6,51,1634891695.0,32.000000
-41,6,51,1634891695.0,32.000000
-41,6,51,1634891695.0,32.000000
-41,6,51,1634891695.0,32.000000
-41,6,51,1634891695.0,32.000000
-41,6,50,1634891695.0,32.000000
-41,6,51,1634891695.0,32.000000
-40,6,51,1634891695.0,32.000000
-41,7,51,1634891695.0,32.000000
-41,6,51,1634891695.0,32.000000
-41,6,51,1634891695.0,32.000000
-41,6,51,1634891695.0,32.000000
-41,6,51,1634891695.0,32.000000
-41,7,50,1634891695.0,32.000000
-41,6,50,1634891695.0,32.000000
-41,6,51,1634891695.0,32.000000
-41,6,50,1634891695.0,32.000000
-41,6,50,1634891695.0,32.000000
-41,6,51,1634891695.0,32.000000
-41,6,50,1634891695.0,32.000000
-41,7,50,1634891695.0,32.000000
-41,7,50,1634891695.0,32.000000
-41,6,51,1634891695.0,32.000000
-41,7,51,1634891695.0,32.000000
-41,6,50,1634891695.0,32.000000
-41,6,51,1634891695.0,32.000000
-41,6,51,1634891695.0,32.000000
-41,6,50,1634891695.0,32.000000
-41,6,51,1634891695.0,32.000000
-41,7,51,1634891695.0,32.000000
-41,6,51,1634891695.0,32.000000
-41,6,50,1634891695.0,32.000000
-41,6,51,1634891695.0,32.000000
-41,6,51,1634891695.0,32.000000
-41,6,51,1634891695.0,32.000000
-41,6,51,1634891695.0,32.000000
-41,6,51,1634891695.0,32.000000
-41,7,51,1634891695.0,32.000000
-41,7,50,1634891695.0,32.000000
-41,7,51,1634891695.0,32.000000
-41,6,51,1634891695.0,32.000000
-41,7,50,1634891695.0,32.000000
-41,7,50,1634891695.0,32.000000
-41,7,51,1634891695.0,32.000000
-41,7,50,1634891695.0,32.000000
-42,7,50,1634891695.0,32.000000
-41,7,50,1634891695.0,32.000000
-41,7,51,1634891695.0,32.000000
-41,7,50,1634891695.0,32.000000
-41,7,50,1634891695.0,32.000000
-41,7,51,1634891695.0,32.000000
-40,7,51,1634891695.0,32.000000
-41,7,50,1634891695.0,32.000000
-41,7,50,1634891695.0,32.000000
-41,7,50,1634891695.0,32.000000
-40,7,51,1634891695.0,32.000000
-41,7,51,1634891695.0,32.000000
-40,7,51,1634891695.0,32.000000
-41,8,50,1634891695.0,32.000000
-41,7,50,1634891695.0,32.000000
-40,7,51,1634891695.0,32.000000
-41,7,50,1634891695.0,32.000000
-41,7,50,1634891695.0,32.000000
-41,7,51,1634891695.0,32.000000
-41,7,51,1634891695.0,32.000000
-41,8,51,1634891695.0,32.000000
-41,7,51,1634891695.0,32.000000
-41,7,51,1634891695.0,32.000000
-41,7,51,1634891695.0,32.000000
-40,7,51,1634891695.0,32.000000
-41,7,51,1634891695.0,32.000000
-41,8,50,1634891695.0,32.000000
-41,7,50,1634891695.0,32.000000
-41,8,51,1634891695.0,32.000000
-41,8,51,1634891695.0,32.000000
-41,7,50,1634891695.0,32.000000
-41,7,50,1634891695.0,32.000000
-41,8,50,1634891695.0,32.000000
-41,8,50,1634891695.0,32.000000
-41,8,51,1634891695.0,32.000000
-41,8,50,1634891695.0,32.000000
-41,8,50,1634891695.0,32.000000
-41,8,50,1634891695.0,32.000000
-41,8,50,1634891695.0,32.000000
-41,8,50,1634891695.0,32.000000
-41,8,50,1634891695.0,32.000000
-40,8,51,1634891695.0,32.000000
-41,8,50,1634891695.0,32.000000
-42,8,50,1634891695.0,32.000000
-42,8,50,1634891695.0,32.000000
-41,7,51,1634891695.0,32.000000
-40,8,51,1634891695.0,32.000000
-41,8,50,1634891695.0,32.000000
-41,8,50,1634891695.0,32.000000
-41,8,50,1634891695.0,32.000000
-41,7,51,1634891695.0,32.000000
-41,8,50,1634891695.0,32.000000
-42,8,50,1634891695.0,32.000000
-41,8,50,1634891695.0,32.000000
-41,8,50,1634891695.0,32.000000
-41,8,50,1634891695.0,32.000000
-41,8,50,1634891695.0,32.000000
-41,8,50,1634891695.0,32.000000
-42,8,50,1634891695.0,32.000000
-42,8,50,1634891695.0,32.000000
-41,8,50,1634891695.0,32.000000
-41,8,50,1634891695.0,32.000000
-41,8,50,1634891695.0,32.000000
-41,8,50,1634891695.0,32.000000
-41,8,50,1634891695.0,32.000000
-41,8,50,1634891695.0,32.000000
-41,8,50,1634891695.0,32.000000
-42,8,50,1634891695.0,32.000000
-41,8,50,1634891695.0,32.000000
-42,7,50,1634891695.0,32.000000
-42,8,50,1634891695.0,32.000000
-41,8,50,1634891695.0,32.000000
-41,7,50,1634891695.0,32.000000
-41,8,50,1634891695.0,32.000000
-42,8,50,1634891695.0,32.000000
-41,7,50,1634891695.0,32.000000
-41,7,50,1634891695.0,32.000000
-42,7,50,1634891695.0,32.000000
-41,7,51,1634891695.0,32.000000
-41,7,50,1634891695.0,32.000000
-41,7,50,1634891695.0,32.000000
-41,7,50,1634891695.0,32.000000
-41,7,50,1634891695.0,32.000000
-41,7,50,1634891695.0,32.000000
-41,7,50,1634891695.0,32.000000
-41,7,51,1634891695.0,32.000000
-41,7,50,1634891695.0,32.000000
-41,7,50,1634891695.0,32.000000
-41,7,50,1634891695.0,32.000000
-41,7,51,1634891695.0,32.000000
-41,7,51,1634891695.0,32.000000
-42,7,50,1634891695.0,32.000000
-41,7,50,1634891695.0,32.000000
-41,7,50,1634891695.0,32.000000
-41,7,50,1634891695.0,32.000000
-41,7,50,1634891695.0,32.000000
-41,7,50,1634891695.0,32.000000
-42,7,50,1634891695.0,32.000000
-42,7,50,1634891695.0,32.000000
-41,7,50,1634891695.0,32.000000
-42,8,50,1634891695.0,32.000000
-42,7,50,1634891695.0,32.000000
-42,7,50,1634891695.0,32.000000
-42,8,50,1634891695.0,32.000000
-42,7,50,1634891695.0,32.000000
-42,8,50,1634891695.0,32.000000
-42,7,50,1634891695.0,32.000000
-42,8,49,1634891695.0,32.000000
-42,8,50,1634891695.0,32.000000
-42,8,50,1634891695.0,32.000000
-42,8,50,1634891695.0,32.000000
-42,7,50,1634891695.0,32.000000
-42,8,50,1634891695.0,32.000000
-42,8,49,1634891695.0,32.000000
-42,8,49,1634891695.0,32.000000
-41,8,50,1634891695.0,32.000000
-42,8,50,1634891695.0,32.000000
-42,8,50,1634891695.0,32.000000
-42,8,50,1634891695.0,32.000000
-42,7,50,1634891695.0,32.000000
-42,8,50,1634891695.0,32.000000
-41,7,50,1634891695.0,32.000000
-41,8,50,1634891695.0,32.000000
-42,8,50,1634891695.0,32.000000
-42,7,50,1634891695.0,32.000000
-42,7,50,1634891695.0,32.000000
-42,7,50,1634891695.0,32.000000
-41,7,50,1634891695.0,32.000000
-42,8,50,1634891695.0,32.000000
-42,8,49,1634891695.0,32.000000
-42,8,50,1634891695.0,32.000000
-42,8,50,1634891695.0,32.000000
-42,8,50,1634891695.0,32.000000
-42,8,50,1634891695.0,32.000000
-42,8,50,1634891695.0,32.000000
-42,8,50,1634891695.0,32.000000
-42,8,50,1634891695.0,32.000000
-42,8,49,1634891695.0,32.000000
-42,8,50,1634891695.0,32.000000
-42,8,50,1634891695.0,32.000000
-42,8,49,1634891695.0,32.000000
-42,8,50,1634891695.0,32.000000
-42,8,50,1634891695.0,32.000000
-42,8,50,1634891695.0,32.000000
-42,8,50,1634891695.0,32.000000
-42,8,50,1634891695.0,32.000000
-42,8,50,1634891695.0,32.000000
-42,8,49,1634891695.0,32.000000
-41,8,50,1634891695.0,32.000000
-42,8,50,1634891695.0,32.000000
-42,8,50,1634891695.0,32.000000
-42,8,50,1634891695.0,32.000000
-42,8,50,1634891695.0,32.000000
-42,8,50,1634891695.0,32.000000
-42,8,50,1634891695.0,32.000000
-42,8,50,1634891695.0,32.000000
-42,8,50,1634891695.0,32.000000
-42,7,50,1634891695.0,32.000000
-42,8,50,1634891695.0,32.000000
-42,8,50,1634891695.0,32.000000
-42,8,50,1634891695.0,32.000000
-42,8,50,1634891695.0,32.000000
-42,8,50,1634891695.0,32.000000
-42,8,50,1634891695.0,32.000000
-42,8,50,1634891695.0,32.000000
-42,8,50,1634891695.0,32.000000
-42,8,50,1634891695.0,32.000000
-42,8,50,1634891695.0,32.000000
-42,8,49,1634891695.0,32.000000
-42,7,49,1634891695.0,32.000000
-42,8,49,1634891695.0,32.000000
-42,8,50,1634891695.0,32.000000
-42,8,50,1634891695.0,32.000000
-42,8,50,1634891695.0,32.000000
-42,8,49,1634891695.0,32.000000
-43,8,49,1634891695.0,32.000000
-42,8,50,1634891695.0,32.000000
-42,8,49,1634891695.0,32.000000
-42,8,50,1634891695.0,32.000000
-42,8,50,1634891695.0,32.000000
-42,8,49,1634891695.0,32.000000
-42,8,50,1634891695.0,32.000000
-42,8,50,1634891695.0,32.000000
-42,8,49,1634891695.0,32.000000
-42,8,49,1634891695.0,32.000000
-42,8,50,1634891695.0,32.000000
-42,8,49,1634891695.0,32.000000
-43,8,49,1634891695.0,32.000000
-42,8,50,1634891695.0,32.000000
-42,8,50,1634891695.0,32.000000
-42,8,50,1634891695.0,32.000000
-42,8,50,1634891695.0,32.000000
-42,8,50,1634891695.0,32.000000
-42,8,50,1634891695.0,32.000000
-42,8,50,1634891695.0,32.000000
-42,8,50,1634891695.0,32.000000
-42,8,49,1634891695.0,32.000000
-42,8,50,1634891695.0,32.000000
-42,8,50,1634891695.0,32.000000
-42,8,50,1634891695.0,32.000000
-42,8,50,1634891695.0,32.000000
-42,8,50,1634891695.0,32.000000
-42,8,49,1634891695.0,32.000000
-42,8,50,1634891695.0,32.000000
-42,8,50,1634891695.0,32.000000
-42,8,49,1634891695.0,32.000000
-42,8,49,1634891695.0,32.000000
-42,8,49,1634891695.0,32.000000
-42,8,50,1634891695.0,32.000000
-42,8,50,1634891695.0,32.000000
-42,8,50,1634891695.0,32.000000
-42,8,50,1634891695.0,32.000000
-42,8,49,1634891695.0,32.000000
-42,8,50,1634891695.0,32.000000
-42,8,50,1634891695.0,32.000000
-42,8,49,1634891695.0,32.000000
-42,8,50,1634891695.0,32.000000
-42,8,50,1634891695.0,32.000000
-42,8,50,1634891695.0,32.000000
-42,8,50,1634891695.0,32.000000
-42,8,50,1634891695.0,32.000000
-42,8,49,1634891695.0,32.000000
-42,8,50,1634891695.0,32.000000
-41,8,50,1634891695.0,32.000000
-41,8,50,1634891695.0,32.000000
-42,8,50,1634891695.0,32.000000
-42,8,49,1634891695.0,32.000000
-41,8,50,1634891695.0,32.000000
-42,8,50,1634891695.0,32.000000
-42,8,49,1634891695.0,32.000000
-42,8,50,1634891695.0,32.000000
-41,8,50,1634891695.0,32.000000
-42,8,50,1634891695.0,32.000000
-42,8,50,1634891695.0,32.000000
-42,8,50,1634891695.0,32.000000
-42,8,50,1634891695.0,32.000000
-42,8,50,1634891695.0,32.000000
-42,7,50,1634891695.0,32.000000
-42,8,50,1634891695.0,32.000000
-42,8,49,1634891695.0,32.000000
-42,8,50,1634891695.0,32.000000
-42,8,50,1634891695.0,32.000000
-42,8,50,1634891695.0,32.000000
-42,8,49,1634891695.0,32.000000
-42,8,50,1634891695.0,32.000000
-42,8,50,1634891695.0,32.000000
-42,8,50,1634891695.0,32.000000
-42,8,50,1634891695.0,32.000000
-42,8,49,1634891695.0,32.000000
-42,8,50,1634891695.0,32.000000
-42,7,50,1634891695.0,32.000000
-42,8,50,1634891695.0,32.000000
-42,8,50,1634891695.0,32.000000
-42,8,49,1634891695.0,32.000000
-42,8,50,1634891695.0,32.000000
-41,8,50,1634891695.0,32.000000
-42,8,49,1634891695.0,32.000000
-42,8,49,1634891695.0,32.000000
-42,8,50,1634891695.0,32.000000
-42,8,50,1634891695.0,32.000000
-42,8,50,1634891695.0,32.000000
-42,8,49,1634891695.0,32.000000
-42,7,50,1634891695.0,32.000000
-41,8,50,1634891695.0,32.000000
-42,8,50,1634891695.0,32.000000
-42,8,49,1634891695.0,32.000000
-42,8,50,1634891695.0,32.000000
-42,7,50,1634891695.0,32.000000
-42,8,50,1634891695.0,32.000000
-42,8,50,1634891695.0,32.000000
-42,8,50,1634891695.0,32.000000
-42,8,50,1634891695.0,32.000000
-42,8,50,1634891695.0,32.000000
-42,8,50,1634891695.0,32.000000
-42,7,50,1634891695.0,32.000000
-41,8,50,1634891695.0,32.000000
-42,8,50,1634891695.0,32.000000
-42,8,50,1634891695.0,32.000000
-42,8,50,1634891695.0,32.000000
-42,8,49,1634891695.0,32.000000
-42,8,50,1634891695.0,32.000000
-41,8,50,1634891695.0,32.000000
-42,8,50,1634891695.0,32.000000
-42,8,49,1634891695.0,32.000000
-42,8,49,1634891695.0,32.000000
-42,8,50,1634891695.0,32.000000
-42,8,49,1634891695.0,32.000000
-42,8,49,1634891695.0,32.000000
-42,8,50,1634891695.0,32.000000
-42,8,50,1634891695.0,32.000000
-42,8,50,1634891695.0,32.000000
-42,8,50,1634891695.0,32.000000
-42,8,50,1634891695.0,32.000000
-42,8,50,1634891695.0,32.000000
-42,8,50,1634891695.0,32.000000
-42,8,50,1634891695.0,32.000000
-42,8,50,1634891695.0,32.000000
-42,8,50,1634891695.0,32.000000
-42,8,50,1634891695.0,32.000000
-42,7,50,1634891695.0,32.000000
-42,8,50,1634891695.0,32.000000
-41,8,50,1634891695.0,32.000000
-42,8,49,1634891695.0,32.000000
-42,8,50,1634891695.0,32.000000
-42,8,50,1634891695.0,32.000000
-42,8,50,1634891695.0,32.000000
-41,8,50,1634891695.0,32.000000
-42,8,50,1634891695.0,32.000000
-42,8,50,1634891695.0,32.000000
-42,8,50,1634891695.0,32.000000
-42,8,50,1634891695.0,32.000000
-42,8,50,1634891695.0,32.000000
-41,8,50,1634891695.0,32.000000
-42,8,50,1634891695.0,32.000000
-42,8,50,1634891695.0,32.000000
-42,8,49,1634891695.0,32.000000
-42,8,49,1634891695.0,32.000000
-42,8,50,1634891695.0,32.000000
-42,8,49,1634891695.0,32.000000
-42,8,50,1634891695.0,32.000000
-41,8,50,1634891695.0,32.000000
-42,8,50,1634891695.0,32.000000
-42,8,50,1634891695.0,32.000000
-42,8,50,1634891695.0,32.000000
-42,8,50,1634891695.0,32.000000
-41,7,50,1634891695.0,32.000000
-42,7,50,1634891695.0,32.000000
-42,8,50,1634891695.0,32.000000
-42,8,49,1634891695.0,32.000000
-42,8,50,1634891695.0,32.000000
-42,7,50,1634891695.0,32.000000
-42,8,50,1634891695.0,32.000000
-42,8,50,1634891695.0,32.000000
-42,8,50,1634891695.0,32.000000
-42,8,50,1634891695.0,32.000000
-42,8,50,1634891695.0,32.000000
-41,8,50,1634891695.0,32.000000
-42,8,49,1634891695.0,32.000000
-43,8,49,1634891695.0,32.000000
-42,8,49,1634891695.0,32.000000
-42,8,50,1634891695.0,32.000000
-42,8,49,1634891695.0,32.000000
-43,8,49,1634891695.0,32.000000
-42,8,50,1634891695.0,32.000000
-41,8,50,1634891695.0,32.000000
-42,8,49,1634891695.0,32.000000
-42,8,49,1634891695.0,32.000000
-42,8,50,1634891695.0,32.000000
-42,8,50,1634891695.0,32.000000
-43,8,50,1634891695.0,32.000000
-42,8,50,1634891695.0,32.000000
-42,8,50,1634891695.0,32.000000
-42,8,50,1634891695.0,32.000000
-42,8,49,1634891695.0,32.000000
-42,8,50,1634891695.0,32.000000
-42,8,49,1634891695.0,32.000000
-42,8,50,1634891695.0,32.000000
-42,8,50,1634891695.0,32.000000
-42,8,50,1634891695.0,32.000000
-42,8,50,1634891695.0,32.000000
-42,8,49,1634891695.0,32.000000
-42,8,50,1634891695.0,32.000000
-42,8,50,1634891695.0,32.000000
-42,8,50,1634891695.0,32.000000
-42,8,50,1634891695.0,32.000000
-42,8,49,1634891695.0,32.000000
-42,8,49,1634891695.0,32.000000
-42,8,50,1634891695.0,32.000000
-42,8,50,1634891695.0,32.000000
-42,8,49,1634891695.0,32.000000
-42,8,50,1634891695.0,32.000000
-42,8,50,1634891695.0,32.000000
-42,8,50,1634891695.0,32.000000
-42,8,50,1634891695.0,32.000000
-42,8,49,1634891695.0,32.000000
-42,8,50,1634891695.0,32.000000
-42,8,50,1634891695.0,32.000000
-42,8,50,1634891695.0,32.000000
-42,8,50,1634891695.0,32.000000
-42,8,50,1634891695.0,32.000000
-42,8,50,1634891695.0,32.000000
-42,8,50,1634891695.0,32.000000
-42,8,50,1634891695.0,32.000000
-42,8,49,1634891695.0,32.000000
-42,8,50,1634891695.0,32.000000
-42,8,50,1634891695.0,32.000000
-42,8,49,1634891695.0,32.000000
-42,8,49,1634891695.0,32.000000
-42,8,50,1634891695.0,32.000000
-42,8,50,1634891695.0,32.000000
-42,8,49,1634891695.0,32.000000
-42,8,50,1634891695.0,32.000000
-41,8,50,1634891695.0,32.000000
-42,8,50,1634891695.0,32.000000
-42,8,49,1634891695.0,32.000000
-42,8,50,1634891695.0,32.000000
-42,8,50,1634891695.0,32.000000
-41,8,50,1634891695.0,32.000000
-42,8,50,1634891695.0,32.000000
-42,8,49,1634891695.0,32.000000
-42,8,50,1634891695.0,32.000000
-42,8,50,1634891695.0,32.000000
-42,8,50,1634891695.0,32.000000
-42,8,49,1634891695.0,32.000000
-42,8,49,1634891695.0,32.000000
-42,8,49,1634891695.0,32.000000
-42,8,50,1634891695.0,32.000000
-42,8,49,1634891695.0,32.000000
-42,8,50,1634891695.0,32.000000
-42,8,50,1634891695.0,32.000000
-42,8,49,1634891695.0,32.000000
-42,8,50,1634891695.0,32.000000
-42,8,50,1634891695.0,32.000000
-42,8,50,1634891695.0,32.000000
-42,8,50,1634891695.0,32.000000
-42,8,50,1634891695.0,32.000000
-42,8,50,1634891695.0,32.000000
-42,8,49,1634891695.0,32.000000
-42,8,49,1634891695.0,32.000000
-42,8,50,1634891695.0,32.000000
-42,8,50,1634891695.0,32.000000
-42,8,49,1634891695.0,32.000000
-42,8,49,1634891695.0,32.000000
-42,8,50,1634891695.0,32.000000
-42,8,50,1634891695.0,32.000000
-42,8,49,1634891695.0,32.000000
-42,8,50,1634891695.0,32.000000
-42,8,49,1634891695.0,32.000000
-42,8,49,1634891695.0,32.000000
-43,8,49,1634891695.0,32.000000
-42,8,50,1634891695.0,32.000000
-42,8,50,1634891695.0,32.000000
-42,8,50,1634891695.0,32.000000
-42,8,49,1634891695.0,32.000000
-42,8,50,1634891695.0,32.000000
-42,8,50,1634891695.0,32.000000
-42,8,50,1634891695.0,32.000000
-42,8,49,1634891695.0,32.000000
-42,8,50,1634891695.0,32.000000
-42,8,49,1634891695.0,32.000000
-42,8,50,1634891695.0,32.000000
-42,8,49,1634891695.0,32.000000
-42,8,49,1634891695.0,32.000000
-42,8,49,1634891695.0,32.000000
-42,8,50,1634891695.0,32.000000
-43,8,49,1634891695.0,32.000000
-42,8,49,1634891695.0,32.000000
-42,8,49,1634891695.0,32.000000
-42,8,49,1634891695.0,32.000000
-42,8,49,1634891695.0,32.000000
-42,8,50,1634891695.0,32.000000
-42,8,49,1634891695.0,32.000000
-42,8,49,1634891695.0,32.000000
-42,8,49,1634891695.0,32.000000
-42,8,49,1634891695.0,32.000000
-42,8,49,1634891695.0,32.000000
-42,8,50,1634891695.0,32.000000
-42,8,49,1634891695.0,32.000000
-42,8,49,1634891695.0,32.000000
-42,8,49,1634891695.0,32.000000
-42,8,49,1634891695.0,32.000000
-42,8,49,1634891695.0,32.000000
-43,8,49,1634891695.0,32.000000
-42,8,49,1634891695.0,32.000000
-43,8,49,1634891695.0,32.000000
-42,8,49,1634891695.0,32.000000
-42,8,50,1634891695.0,32.000000
-42,8,49,1634891695.0,32.000000
-43,8,49,1634891695.0,32.000000
-42,8,49,1634891695.0,32.000000
-42,8,49,1634891695.0,32.000000
-42,8,49,1634891695.0,32.000000
-42,8,49,1634891695.0,32.000000
-42,8,49,1634891695.0,32.000000
-42,8,50,1634891695.0,32.000000
-43,8,50,1634891695.0,32.000000
-42,8,49,1634891695.0,32.000000
-42,8,49,1634891695.0,32.000000
-42,8,49,1634891695.0,32.000000
-42,8,49,1634891695.0,32.000000
-42,8,50,1634891695.0,32.000000
-42,8,49,1634891695.0,32.000000
-43,8,49,1634891695.0,32.000000
-42,8,49,1634891695.0,32.000000
-42,8,49,1634891695.0,32.000000
-42,8,49,1634891695.0,32.000000
-42,8,49,1634891695.0,32.000000
-43,8,49,1634891695.0,32.000000
-42,8,49,1634891695.0,32.000000
-42,8,49,1634891695.0,32.000000
-42,8,49,1634891695.0,32.000000
-43,8,49,1634891695.0,32.000000
-42,8,49,1634891695.0,32.000000
-42,8,49,1634891695.0,32.000000
-42,8,49,1634891695.0,32.000000
-42,8,50,1634891695.0,32.000000
-42,8,49,1634891695.0,32.000000
-42,8,49,1634891695.0,32.000000
-43,8,49,1634891695.0,32.000000
-42,8,49,1634891695.0,32.000000
-42,8,50,1634891695.0,32.000000
-42,9,49,1634891695.0,32.000000
-42,8,49,1634891695.0,32.000000
-42,8,49,1634891695.0,32.000000
-42,8,49,1634891695.0,32.000000
-42,8,49,1634891695.0,32.000000
-42,8,50,1634891695.0,32.000000
-42,8,50,1634891695.0,32.000000
-42,8,49,1634891695.0,32.000000
-42,8,49,1634891695.0,32.000000
-42,8,49,1634891695.0,32.000000
-42,8,49,1634891695.0,32.000000
-42,8,50,1634891695.0,32.000000
-42,8,49,1634891695.0,32.000000
-42,8,50,1634891695.0,32.000000
-42,8,50,1634891695.0,32.000000
-43,8,49,1634891695.0,32.000000
-42,8,49,1634891695.0,32.000000
-42,8,50,1634891695.0,32.000000
-42,8,49,1634891695.0,32.000000
-42,9,49,1634891695.0,32.000000
-42,8,49,1634891695.0,32.000000
-42,8,49,1634891695.0,32.000000
-42,8,50,1634891695.0,32.000000
-42,8,49,1634891695.0,32.000000
-42,8,49,1634891695.0,32.000000
-42,8,49,1634891695.0,32.000000
-42,8,49,1634891695.0,32.000000
-42,9,49,1634891695.0,32.000000
-42,8,49,1634891695.0,32.000000
-42,9,49,1634891695.0,32.000000
-42,8,49,1634891695.0,32.000000
-42,8,49,1634891695.0,32.000000
-41,8,48,1634891695.0,32.000000
-46,8,52,1634891695.0,32.000000
-42,10,49,1634891695.0,32.000000
-43,7,49,1634891695.0,32.000000
-45,8,49,1634891695.0,32.000000
-41,8,51,1634891695.0,32.000000
-43,8,48,1634891695.0,32.000000
-44,8,49,1634891695.0,32.000000
-41,8,50,1634891695.0,32.000000
-41,8,51,1634891695.0,32.000000
-44,8,49,1634891695.0,32.000000
-43,9,49,1634891695.0,32.000000
-42,8,50,1634891695.0,32.000000
-42,8,49,1634891695.0,32.000000
-42,8,49,1634891695.0,32.000000
-42,8,49,1634891695.0,32.000000
-42,8,49,1634891695.0,32.000000
-43,8,49,1634891695.0,32.000000
-42,8,50,1634891695.0,32.000000
-42,8,49,1634891695.0,32.000000
-42,8,49,1634891695.0,32.000000
-42,8,50,1634891695.0,32.000000
-42,8,49,1634891695.0,32.000000
-43,8,49,1634891695.0,32.000000
-42,8,50,1634891695.0,32.000000
-42,8,50,1634891695.0,32.000000
-42,8,49,1634891695.0,32.000000
-42,8,50,1634891695.0,32.000000
-42,8,50,1634891695.0,32.000000
-43,8,50,1634891695.0,32.000000
-42,8,50,1634891695.0,32.000000
-43,8,50,1634891695.0,32.000000
-42,8,50,1634891695.0,32.000000
-42,8,49,1634891695.0,32.000000
-43,8,49,1634891695.0,32.000000
-42,8,49,1634891695.0,32.000000
-42,8,50,1634891695.0,32.000000
-42,8,49,1634891695.0,32.000000
-43,8,49,1634891695.0,32.000000
-42,8,49,1634891695.0,32.000000
-42,8,49,1634891695.0,32.000000
-43,8,49,1634891695.0,32.000000
-42,8,49,1634891695.0,32.000000
-43,8,49,1634891695.0,32.000000
-42,8,50,1634891695.0,32.000000
-42,8,50,1634891695.0,32.000000
-43,8,49,1634891695.0,32.000000
-43,8,49,1634891695.0,32.000000
-42,8,50,1634891695.0,32.000000
-42,8,49,1634891695.0,32.000000
-43,8,49,1634891695.0,32.000000
-42,8,49,1634891695.0,32.000000
-42,8,49,1634891695.0,32.000000
-42,8,49,1634891695.0,32.000000
-43,8,49,1634891695.0,32.000000
-43,8,49,1634891695.0,32.000000
-43,8,50,1634891695.0,32.000000
-42,8,49,1634891695.0,32.000000
-43,8,49,1634891695.0,32.000000
-42,8,49,1634891695.0,32.000000
-42,8,48,1634891695.0,32.000000
-43,8,50,1634891695.0,32.000000
-43,8,50,1634891695.0,32.000000
-43,8,49,1634891695.0,32.000000
-42,9,48,1634891695.0,32.000000
-42,8,49,1634891695.0,32.000000
-42,9,50,1634891695.0,32.000000
-44,9,48,1634891695.0,32.000000
-43,9,49,1634891695.0,32.000000
-41,9,50,1634891695.0,32.000000
-42,9,50,1634891695.0,32.000000
-43,9,48,1634891695.0,32.000000
-43,9,48,1634891695.0,32.000000
-42,9,50,1634891695.0,32.000000
-42,8,49,1634891695.0,32.000000
-43,8,49,1634891695.0,32.000000
-43,9,49,1634891695.0,32.000000
-43,9,49,1634891695.0,32.000000
-43,9,49,1634891695.0,32.000000
-43,9,49,1634891695.0,32.000000
-43,9,48,1634891695.0,32.000000
-43,9,49,1634891695.0,32.000000
-42,9,49,1634891695.0,32.000000
-42,9,49,1634891695.0,32.000000
-43,9,49,1634891695.0,32.000000
-43,9,49,1634891695.0,32.000000
-43,9,49,1634891695.0,32.000000
-43,9,49,1634891695.0,32.000000
-43,9,49,1634891695.0,32.000000
-42,9,49,1634891695.0,32.000000
-42,8,49,1634891695.0,32.000000
-43,9,49,1634891695.0,32.000000
-43,9,49,1634891695.0,32.000000
-42,9,49,1634891695.0,32.000000
-42,8,50,1634891695.0,32.000000
-42,8,48,1634891695.0,32.000000
-43,9,49,1634891695.0,32.000000
-42,9,49,1634891695.0,32.000000
-43,8,49,1634891695.0,32.000000
-43,9,49,1634891695.0,32.000000
-42,9,49,1634891695.0,32.000000
-43,9,49,1634891695.0,32.000000
-42,9,49,1634891695.0,32.000000
-42,9,49,1634891695.0,32.000000
-43,9,49,1634891695.0,32.000000
-42,9,49,1634891695.0,32.000000
-43,9,49,1634891695.0,32.000000
-42,9,49,1634891695.0,32.000000
-43,9,49,1634891695.0,32.000000
-43,9,49,1634891695.0,32.000000
-43,8,49,1634891695.0,32.000000
-43,9,49,1634891695.0,32.000000
-42,9,49,1634891695.0,32.000000
-43,9,49,1634891695.0,32.000000
-43,9,49,1634891695.0,32.000000
-43,9,48,1634891695.0,32.000000
-43,9,49,1634891695.0,32.000000
-43,9,49,1634891695.0,32.000000
-43,9,49,1634891695.0,32.000000
-43,9,49,1634891695.0,32.000000
-43,9,49,1634891695.0,32.000000
-42,9,49,1634891695.0,32.000000
-44,9,49,1634891695.0,32.000000
-43,9,49,1634891695.0,32.000000
-42,9,49,1634891695.0,32.000000
-43,9,49,1634891695.0,32.000000
-43,9,49,1634891695.0,32.000000
-42,9,49,1634891695.0,32.000000
-43,9,49,1634891695.0,32.000000
-43,9,49,1634891695.0,32.000000
-43,9,49,1634891695.0,32.000000
-43,9,49,1634891695.0,32.000000
-43,9,49,1634891695.0,32.000000
-42,9,49,1634891695.0,32.000000
-43,9,49,1634891695.0,32.000000
-43,9,49,1634891695.0,32.000000
-42,9,49,1634891695.0,32.000000
-42,9,49,1634891695.0,32.000000
-43,9,49,1634891695.0,32.000000
-43,9,49,1634891695.0,32.000000
-42,9,49,1634891695.0,32.000000
-43,9,49,1634891695.0,32.000000
-43,9,49,1634891695.0,32.000000
-42,9,49,1634891695.0,32.000000
-42,9,49,1634891695.0,32.000000
-43,9,49,1634891695.0,32.000000
-42,9,49,1634891695.0,32.000000
-43,9,49,1634891695.0,32.000000
-43,9,49,1634891695.0,32.000000
-43,9,49,1634891695.0,32.000000
-42,9,49,1634891695.0,32.000000
-42,9,49,1634891695.0,32.000000
-43,9,49,1634891695.0,32.000000
-43,9,49,1634891695.0,32.000000
-42,9,49,1634891695.0,32.000000
-42,9,49,1634891695.0,32.000000
-43,9,49,1634891695.0,32.000000
-43,9,49,1634891695.0,32.000000
-42,9,49,1634891695.0,32.000000
-43,9,49,1634891695.0,32.000000
-43,9,48,1634891695.0,32.000000
-43,9,49,1634891695.0,32.000000
-42,9,49,1634891695.0,32.000000
-42,9,49,1634891695.0,32.000000
-42,9,49,1634891695.0,32.000000
-43,9,49,1634891695.0,32.000000
-42,9,49,1634891695.0,32.000000
-42,8,50,1634891695.0,32.000000
-42,8,50,1634891695.0,32.000000
-42,8,50,1634891695.0,32.000000
-43,9,49,1634891695.0,32.000000
-42,8,50,1634891695.0,32.000000
-43,8,49,1634891695.0,32.000000
-43,9,49,1634891695.0,32.000000
-43,8,49,1634891695.0,32.000000
-42,8,50,1634891695.0,32.000000
-42,8,49,1634891695.0,32.000000
-43,8,49,1634891695.0,32.000000
-43,8,49,1634891695.0,32.000000
-42,8,50,1634891695.0,32.000000
-42,8,50,1634891695.0,32.000000
-43,8,49,1634891695.0,32.000000
-43,8,49,1634891695.0,32.000000
-42,8,49,1634891695.0,32.000000
-41,8,50,1634891695.0,32.000000
-43,8,49,1634891695.0,32.000000
-43,8,49,1634891695.0,32.000000
-41,7,50,1634891695.0,32.000000
-41,7,50,1634891695.0,32.000000
-42,7,49,1634891695.0,32.000000
-43,7,51,1634891695.0,32.000000
-41,7,50,1634891695.0,32.000000
-41,7,50,1634891695.0,32.000000
-41,7,50,1634891695.0,32.000000
-41,7,51,1634891695.0,32.000000
-41,7,50,1634891695.0,32.000000
-42,7,50,1634891695.0,32.000000
-41,7,50,1634891695.0,32.000000
-42,6,50,1634891695.0,32.000000
-41,6,50,1634891695.0,32.000000
-41,7,50,1634891695.0,32.000000
-41,7,50,1634891695.0,32.000000
-42,7,50,1634891695.0,32.000000
-41,6,50,1634891695.0,32.000000
-41,6,51,1634891695.0,32.000000
-41,7,50,1634891695.0,32.000000
-43,7,49,1634891695.0,32.000000
-40,6,51,1634891695.0,32.000000
-41,6,51,1634891695.0,32.000000
-41,6,50,1634891695.0,32.000000
-41,5,51,1634891695.0,32.000000
-41,5,51,1634891695.0,32.000000
-42,5,50,1634891695.0,32.000000
-43,5,50,1634891695.0,32.000000
-43,6,50,1634891695.0,32.000000
-41,8,49,1634891695.0,32.000000
-40,8,49,1634891695.0,32.000000
-41,7,51,1634891695.0,32.000000
-42,6,50,1634891695.0,32.000000
-44,6,49,1634891695.0,32.000000
-42,5,50,1634891695.0,32.000000
-43,6,50,1634891695.0,32.000000
-42,6,50,1634891695.0,32.000000
-42,7,50,1634891695.0,32.000000
-42,7,49,1634891695.0,32.000000
-41,6,50,1634891695.0,32.000000
-41,6,50,1634891695.0,32.000000
-41,6,51,1634891695.0,32.000000
-41,6,50,1634891695.0,32.000000
-41,6,51,1634891695.0,32.000000
-40,6,51,1634891695.0,32.000000
-40,6,51,1634891695.0,32.000000
-41,6,50,1634891695.0,32.000000
-42,6,50,1634891695.0,32.000000
-41,6,51,1634891695.0,32.000000
-41,5,51,1634891695.0,32.000000
-41,5,51,1634891695.0,32.000000
-41,5,51,1634891695.0,32.000000
-41,5,51,1634891695.0,32.000000
-41,5,50,1634891695.0,32.000000
-41,5,51,1634891695.0,32.000000
-40,5,51,1634891695.0,32.000000
-41,5,51,1634891695.0,32.000000
-42,5,50,1634891695.0,32.000000
-42,6,50,1634891695.0,32.000000
-41,5,51,1634891695.0,32.000000
-41,5,51,1634891695.0,32.000000
-41,5,51,1634891695.0,32.000000
-41,5,51,1634891695.0,32.000000
-41,5,50,1634891695.0,32.000000
-41,6,50,1634891695.0,32.000000
-41,5,51,1634891695.0,32.000000
-41,5,51,1634891695.0,32.000000
-42,6,50,1634891695.0,32.000000
-42,5,50,1634891695.0,32.000000
-41,6,50,1634891695.0,32.000000
-41,5,50,1634891695.0,32.000000
-41,5,50,1634891695.0,32.000000
-41,6,50,1634891695.0,32.000000
-41,6,51,1634891695.0,32.000000
-41,6,50,1634891695.0,32.000000
-42,6,50,1634891695.0,32.000000
-41,6,50,1634891695.0,32.000000
-41,6,51,1634891695.0,32.000000
-42,6,50,1634891695.0,32.000000
-42,6,50,1634891695.0,32.000000
-41,6,50,1634891695.0,32.000000
-41,6,51,1634891695.0,32.000000
-42,6,50,1634891695.0,32.000000
-42,6,50,1634891695.0,32.000000
-42,6,50,1634891695.0,32.000000
-41,6,50,1634891695.0,32.000000
-42,6,50,1634891695.0,32.000000
-42,6,50,1634891695.0,32.000000
-42,6,50,1634891695.0,32.000000
-42,6,50,1634891695.0,32.000000
-41,6,50,1634891695.0,32.000000
-42,6,50,1634891695.0,32.000000
-42,6,50,1634891695.0,32.000000
-42,6,50,1634891695.0,32.000000
-42,6,50,1634891695.0,32.000000
-42,6,50,1634891695.0,32.000000
-42,6,50,1634891695.0,32.000000
-42,6,50,1634891695.0,32.000000
-42,6,50,1634891695.0,32.000000
-42,6,50,1634891695.0,32.000000
-42,6,50,1634891695.0,32.000000
-42,6,50,1634891695.0,32.000000
-42,6,50,1634891695.0,32.000000
-42,6,50,1634891695.0,32.000000
-42,6,50,1634891695.0,32.000000
-42,6,50,1634891695.0,32.000000
-42,6,50,1634891695.0,32.000000
-42,6,50,1634891695.0,32.000000
-42,6,50,1634891695.0,32.000000
-42,6,50,1634891695.0,32.000000
-42,6,50,1634891695.0,32.000000
-42,6,49,1634891695.0,32.000000
-41,6,50,1634891695.0,32.000000
-41,6,50,1634891695.0,32.000000
-42,6,50,1634891695.0,32.000000
-42,6,50,1634891695.0,32.000000
-42,6,49,1634891695.0,32.000000
-42,6,50,1634891695.0,32.000000
-42,6,50,1634891695.0,32.000000
-42,6,49,1634891695.0,32.000000
-42,6,50,1634891695.0,32.000000
-43,6,49,1634891695.0,32.000000
-43,6,49,1634891695.0,32.000000
-43,6,49,1634891695.0,32.000000
-42,6,50,1634891695.0,32.000000
-43,6,49,1634891695.0,32.000000
-43,6,49,1634891695.0,32.000000
-43,6,49,1634891695.0,32.000000
-42,6,50,1634891695.0,32.000000
-43,7,49,1634891695.0,32.000000
-42,7,49,1634891695.0,32.000000
-42,6,50,1634891695.0,32.000000
-43,7,49,1634891695.0,32.000000
-43,7,49,1634891695.0,32.000000
-42,7,50,1634891695.0,32.000000
-43,7,49,1634891695.0,32.000000
-43,7,49,1634891695.0,32.000000
-43,7,49,1634891695.0,32.000000
-42,6,49,1634891695.0,32.000000
-43,7,49,1634891695.0,32.000000
-43,7,49,1634891695.0,32.000000
-44,7,49,1634891695.0,32.000000
-44,7,48,1634891695.0,32.000000
-43,7,49,1634891695.0,32.000000
-43,7,49,1634891695.0,32.000000
-43,7,49,1634891695.0,32.000000
-43,6,49,1634891695.0,32.000000
-43,6,49,1634891695.0,32.000000
-42,6,50,1634891695.0,32.000000
-42,6,50,1634891695.0,32.000000
-44,7,48,1634891695.0,32.000000
-42,6,50,1634891695.0,32.000000
-43,7,49,1634891695.0,32.000000
-43,7,49,1634891695.0,32.000000
-44,7,49,1634891695.0,32.000000
-43,8,49,1634891695.0,32.000000
-42,8,49,1634891695.0,32.000000
-41,7,50,1634891695.0,32.000000
-42,7,50,1634891695.0,32.000000
-43,8,49,1634891695.0,32.000000
-43,8,49,1634891695.0,32.000000
-42,8,49,1634891695.0,32.000000
-42,8,49,1634891695.0,32.000000
-42,8,50,1634891695.0,32.000000
-42,8,49,1634891695.0,32.000000
-42,8,49,1634891695.0,32.000000
-43,8,49,1634891695.0,32.000000
-42,8,49,1634891695.0,32.000000
-42,8,50,1634891695.0,32.000000
-42,8,49,1634891695.0,32.000000
-42,8,49,1634891695.0,32.000000
-43,8,49,1634891695.0,32.000000
-43,8,49,1634891695.0,32.000000
-42,8,49,1634891695.0,32.000000
-42,7,50,1634891695.0,32.000000
-42,7,49,1634891695.0,32.000000
-42,7,50,1634891695.0,32.000000
-42,7,50,1634891695.0,32.000000
-42,7,50,1634891695.0,32.000000
-43,8,49,1634891695.0,32.000000
-43,7,50,1634891695.0,32.000000
-42,8,49,1634891695.0,32.000000
-42,8,49,1634891695.0,32.000000
-42,7,50,1634891695.0,32.000000
-42,7,50,1634891695.0,32.000000
-42,7,50,1634891695.0,32.000000
-42,7,49,1634891695.0,32.000000
-42,7,49,1634891695.0,32.000000
-42,7,50,1634891695.0,32.000000
-42,7,50,1634891695.0,32.000000
-42,7,50,1634891695.0,32.000000
-42,7,49,1634891695.0,32.000000
-42,8,49,1634891695.0,32.000000
-42,7,50,1634891695.0,32.000000
-42,7,50,1634891695.0,32.000000
-42,7,50,1634891695.0,32.000000
-42,7,50,1634891695.0,32.000000
-42,7,50,1634891695.0,32.000000
-42,7,50,1634891695.0,32.000000
-42,7,49,1634891695.0,32.000000
-42,7,50,1634891695.0,32.000000
-42,7,50,1634891695.0,32.000000
-42,7,50,1634891695.0,32.000000
-42,7,50,1634891695.0,32.000000
-42,7,50,1634891695.0,32.000000
-42,7,50,1634891695.0,32.000000
-42,7,50,1634891695.0,32.000000
-42,7,50,1634891695.0,32.000000
-42,7,50,1634891695.0,32.000000
-42,7,50,1634891695.0,32.000000
-42,7,50,1634891695.0,32.000000
-42,7,50,1634891695.0,32.000000
-42,7,50,1634891695.0,32.000000
-42,8,50,1634891695.0,32.000000
-42,7,50,1634891695.0,32.000000
-42,7,50,1634891695.0,32.000000
-42,8,50,1634891695.0,32.000000
-42,8,50,1634891695.0,32.000000
-42,7,49,1634891695.0,32.000000
-42,7,50,1634891695.0,32.000000
-42,7,50,1634891695.0,32.000000
-42,7,50,1634891695.0,32.000000
-42,7,50,1634891695.0,32.000000
-42,7,50,1634891695.0,32.000000
-42,7,50,1634891695.0,32.000000
-42,7,50,1634891695.0,32.000000
-42,8,50,1634891695.0,32.000000
-42,7,50,1634891695.0,32.000000
-42,7,50,1634891695.0,32.000000
-42,8,50,1634891695.0,32.000000
-42,7,50,1634891695.0,32.000000
-42,7,50,1634891695.0,32.000000
-42,7,50,1634891695.0,32.000000
-42,7,50,1634891695.0,32.000000
-42,7,50,1634891695.0,32.000000
-42,7,49,1634891695.0,32.000000
-42,7,50,1634891695.0,32.000000
-42,7,50,1634891695.0,32.000000
-42,7,50,1634891695.0,32.000000
-42,7,50,1634891695.0,32.000000
-42,7,50,1634891695.0,32.000000
-42,7,50,1634891695.0,32.000000
-42,8,49,1634891695.0,32.000000
-42,7,50,1634891695.0,32.000000
-42,7,50,1634891695.0,32.000000
-42,8,49,1634891695.0,32.000000
-42,8,50,1634891695.0,32.000000
-42,7,50,1634891695.0,32.000000
-42,8,49,1634891695.0,32.000000
-42,7,50,1634891695.0,32.000000
-42,7,50,1634891695.0,32.000000
-42,7,49,1634891695.0,32.000000
-42,7,49,1634891695.0,32.000000
-42,7,50,1634891695.0,32.000000
-42,7,50,1634891695.0,32.000000
-42,8,50,1634891695.0,32.000000
-42,7,50,1634891695.0,32.000000
-42,8,50,1634891695.0,32.000000
-42,7,50,1634891695.0,32.000000
-42,7,50,1634891695.0,32.000000
-42,7,49,1634891695.0,32.000000
-41,7,50,1634891695.0,32.000000
-42,8,50,1634891695.0,32.000000
-42,7,49,1634891695.0,32.000000
-42,7,50,1634891695.0,32.000000
-42,7,50,1634891695.0,32.000000
-42,8,49,1634891695.0,32.000000
-42,8,50,1634891695.0,32.000000
-41,7,50,1634891695.0,32.000000
-41,7,50,1634891695.0,32.000000
-42,8,49,1634891695.0,32.000000
-42,7,50,1634891695.0,32.000000
-42,7,50,1634891695.0,32.000000
-42,7,50,1634891695.0,32.000000
-42,8,50,1634891695.0,32.000000
-42,7,50,1634891695.0,32.000000
-42,7,50,1634891695.0,32.000000
-42,7,50,1634891695.0,32.000000
-42,8,50,1634891695.0,32.000000
-42,7,50,1634891695.0,32.000000
-42,7,50,1634891695.0,32.000000
-42,7,50,1634891695.0,32.000000
-42,7,50,1634891695.0,32.000000
-42,8,50,1634891695.0,32.000000
-42,7,50,1634891695.0,32.000000
-42,7,50,1634891695.0,32.000000
-42,7,50,1634891695.0,32.000000
-42,7,50,1634891695.0,32.000000
-42,7,50,1634891695.0,32.000000
-42,7,50,1634891695.0,32.000000
-42,8,50,1634891695.0,32.000000
-42,7,50,1634891695.0,32.000000
-42,7,50,1634891695.0,32.000000
-42,7,50,1634891695.0,32.000000
-42,7,50,1634891695.0,32.000000
-42,7,50,1634891695.0,32.000000
-42,7,50,1634891695.0,32.000000
-42,7,50,1634891695.0,32.000000
-42,8,50,1634891695.0,32.000000
-42,8,50,1634891695.0,32.000000
-42,8,50,1634891695.0,32.000000
-42,8,50,1634891695.0,32.000000
-42,7,50,1634891695.0,32.000000
-42,7,50,1634891695.0,32.000000
-42,7,50,1634891695.0,32.000000
-42,7,50,1634891695.0,32.000000
-42,8,49,1634891695.0,32.000000
-42,7,50,1634891695.0,32.000000
-42,8,50,1634891695.0,32.000000
-42,7,50,1634891695.0,32.000000
-42,7,50,1634891695.0,32.000000
-42,8,50,1634891695.0,32.000000
-42,8,50,1634891695.0,32.000000
-42,7,50,1634891695.0,32.000000
-42,7,50,1634891695.0,32.000000
-42,7,50,1634891695.0,32.000000
-42,7,50,1634891695.0,32.000000
-42,7,50,1634891695.0,32.000000
-42,7,50,1634891695.0,32.000000
-42,7,50,1634891695.0,32.000000
-42,7,49,1634891695.0,32.000000
-42,7,50,1634891695.0,32.000000
-42,7,50,1634891695.0,32.000000
-42,7,50,1634891695.0,32.000000
-42,8,50,1634891695.0,32.000000
-42,7,50,1634891695.0,32.000000
-42,7,50,1634891695.0,32.000000
-42,7,50,1634891695.0,32.000000
-42,7,50,1634891695.0,32.000000
-42,7,50,1634891695.0,32.000000
-42,8,49,1634891695.0,32.000000
-42,7,50,1634891695.0,32.000000
-42,7,50,1634891695.0,32.000000
-42,7,50,1634891695.0,32.000000
-42,8,50,1634891695.0,32.000000
-42,7,50,1634891695.0,32.000000
-42,7,50,1634891695.0,32.000000
-42,7,50,1634891695.0,32.000000
-42,7,50,1634891695.0,32.000000
-42,7,49,1634891695.0,32.000000
-42,7,50,1634891695.0,32.000000
-42,7,50,1634891695.0,32.000000
-42,8,50,1634891695.0,32.000000
-42,7,50,1634891695.0,32.000000
-42,8,50,1634891695.0,32.000000
-42,7,50,1634891695.0,32.000000
-42,8,50,1634891695.0,32.000000
-42,7,50,1634891695.0,32.000000
-42,7,50,1634891695.0,32.000000
-42,7,50,1634891695.0,32.000000
-42,7,50,1634891695.0,32.000000
-42,8,50,1634891695.0,32.000000
-42,8,50,1634891695.0,32.000000
-42,7,50,1634891695.0,32.000000
-42,7,50,1634891695.0,32.000000
-42,7,50,1634891695.0,32.000000
-42,8,50,1634891695.0,32.000000
-42,8,50,1634891695.0,32.000000
-42,7,50,1634891695.0,32.000000
-42,8,50,1634891695.0,32.000000
-42,7,50,1634891695.0,32.000000
-42,7,50,1634891695.0,32.000000
-42,7,50,1634891695.0,32.000000
-42,7,50,1634891695.0,32.000000
-42,7,50,1634891695.0,32.000000
-42,7,50,1634891695.0,32.000000
-42,8,50,1634891695.0,32.000000
-42,8,50,1634891695.0,32.000000
-42,7,50,1634891695.0,32.000000
-42,7,50,1634891695.0,32.000000
-42,7,50,1634891695.0,32.000000
-42,7,50,1634891695.0,32.000000
-41,7,50,1634891695.0,32.000000
-42,8,50,1634891695.0,32.000000
-42,7,49,1634891695.0,32.000000
-42,7,50,1634891695.0,32.000000
-42,7,50,1634891695.0,32.000000
-42,7,50,1634891695.0,32.000000
-42,7,50,1634891695.0,32.000000
-42,8,50,1634891695.0,32.000000
-42,8,50,1634891695.0,32.000000
-42,8,50,1634891695.0,32.000000
-42,8,50,1634891695.0,32.000000
-41,8,50,1634891695.0,32.000000
-42,7,50,1634891695.0,32.000000
-42,7,50,1634891695.0,32.000000
-42,7,50,1634891695.0,32.000000
-42,8,50,1634891695.0,32.000000
-42,7,50,1634891695.0,32.000000
-42,7,50,1634891695.0,32.000000
-42,7,50,1634891695.0,32.000000
-42,7,50,1634891695.0,32.000000
-42,8,50,1634891695.0,32.000000
-42,8,50,1634891695.0,32.000000
-41,8,50,1634891695.0,32.000000
-42,8,50,1634891695.0,32.000000
-42,7,50,1634891695.0,32.000000
-42,7,50,1634891695.0,32.000000
-42,7,50,1634891695.0,32.000000
-42,7,50,1634891695.0,32.000000
-42,8,50,1634891695.0,32.000000
-41,8,50,1634891695.0,32.000000
-42,7,50,1634891695.0,32.000000
-42,7,50,1634891695.0,32.000000
-42,8,50,1634891695.0,32.000000
-42,8,49,1634891695.0,32.000000
-42,8,50,1634891695.0,32.000000
-41,7,50,1634891695.0,32.000000
-42,7,50,1634891695.0,32.000000
-42,7,50,1634891695.0,32.000000
-42,7,50,1634891695.0,32.000000
-42,7,50,1634891695.0,32.000000
-42,8,50,1634891695.0,32.000000
-42,7,50,1634891695.0,32.000000
-42,7,50,1634891695.0,32.000000
-42,7,50,1634891695.0,32.000000
-42,7,50,1634891695.0,32.000000
-42,7,50,1634891695.0,32.000000
-42,7,50,1634891695.0,32.000000
-42,7,50,1634891695.0,32.000000
-42,7,50,1634891695.0,32.000000
-41,7,50,1634891695.0,32.000000
-42,8,50,1634891695.0,32.000000
-42,8,50,1634891695.0,32.000000
-41,7,50,1634891695.0,32.000000
-42,7,50,1634891695.0,32.000000
-42,8,50,1634891695.0,32.000000
-42,7,50,1634891695.0,32.000000
-41,7,50,1634891695.0,32.000000
-42,8,50,1634891695.0,32.000000
-42,8,49,1634891695.0,32.000000
-42,7,50,1634891695.0,32.000000
-42,7,50,1634891695.0,32.000000
-42,8,50,1634891695.0,32.000000
-42,7,50,1634891695.0,32.000000
-41,7,50,1634891695.0,32.000000
-42,7,50,1634891695.0,32.000000
-41,8,50,1634891695.0,32.000000
-42,8,50,1634891695.0,32.000000
-42,8,49,1634891695.0,32.000000
-42,7,50,1634891695.0,32.000000
-42,7,50,1634891695.0,32.000000
-42,8,50,1634891695.0,32.000000
-42,8,50,1634891695.0,32.000000
-42,7,50,1634891695.0,32.000000
-42,7,50,1634891695.0,32.000000
-42,7,50,1634891695.0,32.000000
-42,8,50,1634891695.0,32.000000
-41,8,50,1634891695.0,32.000000
-41,7,50,1634891695.0,32.000000
-41,7,50,1634891695.0,32.000000
-42,8,50,1634891695.0,32.000000
-41,8,50,1634891695.0,32.000000
-41,8,51,1634891695.0,32.000000
-42,8,50,1634891695.0,32.000000
-43,8,49,1634891695.0,32.000000
-41,8,50,1634891695.0,32.000000
-43,6,49,1634891695.0,32.000000
-42,7,49,1634891695.0,32.000000
-42,7,50,1634891695.0,32.000000
-42,8,50,1634891695.0,32.000000
-42,8,50,1634891695.0,32.000000
-42,8,50,1634891695.0,32.000000
-42,8,50,1634891695.0,32.000000
-41,8,50,1634891695.0,32.000000
-42,8,50,1634891695.0,32.000000
-42,8,50,1634891695.0,32.000000
-42,8,50,1634891695.0,32.000000
-42,8,50,1634891695.0,32.000000
-42,7,50,1634891695.0,32.000000
-42,8,50,1634891695.0,32.000000
-42,7,50,1634891695.0,32.000000
-41,7,50,1634891695.0,32.000000
-42,8,50,1634891695.0,32.000000
-42,8,50,1634891695.0,32.000000
-42,7,50,1634891695.0,32.000000
-42,7,50,1634891695.0,32.000000
-42,8,50,1634891695.0,32.000000
-42,7,50,1634891695.0,32.000000
-42,7,50,1634891695.0,32.000000
-42,8,50,1634891695.0,32.000000
-42,8,50,1634891695.0,32.000000
-42,8,50,1634891695.0,32.000000
-42,7,50,1634891695.0,32.000000
-42,8,50,1634891695.0,32.000000
-41,7,50,1634891695.0,32.000000
-42,7,50,1634891695.0,32.000000
-42,8,50,1634891695.0,32.000000
-41,7,50,1634891695.0,32.000000
-42,8,50,1634891695.0,32.000000
-42,7,50,1634891695.0,32.000000
-42,7,50,1634891695.0,32.000000
-42,8,50,1634891695.0,32.000000
-42,8,49,1634891695.0,32.000000
-42,7,50,1634891695.0,32.000000
-41,7,51,1634891695.0,32.000000
-41,7,51,1634891695.0,32.000000
-41,8,50,1634891695.0,32.000000
-42,7,50,1634891695.0,32.000000
-42,8,50,1634891695.0,32.000000
-41,8,50,1634891695.0,32.000000
-41,7,50,1634891695.0,32.000000
-43,8,50,1634891695.0,32.000000
-41,8,50,1634891695.0,32.000000
-42,8,49,1634891695.0,32.000000
-42,7,49,1634891695.0,32.000000
-42,8,50,1634891695.0,32.000000
-42,8,50,1634891695.0,32.000000
-42,8,50,1634891695.0,32.000000
-42,8,50,1634891695.0,32.000000
-42,8,50,1634891695.0,32.000000
-42,8,50,1634891695.0,32.000000
-41,8,50,1634891695.0,32.000000
-41,8,50,1634891695.0,32.000000
-42,8,50,1634891695.0,32.000000
-41,7,50,1634891695.0,32.000000
-42,8,50,1634891695.0,32.000000
-41,7,50,1634891695.0,32.000000
-41,8,50,1634891695.0,32.000000
-42,8,50,1634891695.0,32.000000
-41,7,50,1634891695.0,32.000000
-41,7,50,1634891695.0,32.000000
-41,7,50,1634891695.0,32.000000
-41,7,50,1634891695.0,32.000000
-41,7,50,1634891695.0,32.000000
-41,7,50,1634891695.0,32.000000
-42,7,50,1634891695.0,32.000000
-41,7,50,1634891695.0,32.000000
-41,8,50,1634891695.0,32.000000
-41,8,50,1634891695.0,32.000000
-41,8,50,1634891695.0,32.000000
-41,8,50,1634891695.0,32.000000
-41,7,50,1634891695.0,32.000000
-42,8,50,1634891695.0,32.000000
-41,8,50,1634891695.0,32.000000
-42,8,50,1634891695.0,32.000000
-42,8,50,1634891695.0,32.000000
-42,8,50,1634891695.0,32.000000
-41,8,50,1634891695.0,32.000000
-41,7,50,1634891695.0,32.000000
-41,8,50,1634891695.0,32.000000
-42,7,50,1634891695.0,32.000000
-41,7,50,1634891695.0,32.000000
-41,7,50,1634891695.0,32.000000
-42,8,50,1634891695.0,32.000000
-41,7,50,1634891695.0,32.000000
-41,7,50,1634891695.0,32.000000
-41,7,50,1634891695.0,32.000000
-42,8,50,1634891695.0,32.000000
-41,8,50,1634891695.0,32.000000
-42,7,50,1634891695.0,32.000000
-42,7,50,1634891695.0,32.000000
-41,7,50,1634891695.0,32.000000
-42,7,50,1634891695.0,32.000000
-41,7,50,1634891695.0,32.000000
-41,7,50,1634891695.0,32.000000
-41,7,50,1634891695.0,32.000000
-41,8,50,1634891695.0,32.000000
-41,8,50,1634891695.0,32.000000
-42,8,50,1634891695.0,32.000000
-42,7,50,1634891695.0,32.000000
-42,7,50,1634891695.0,32.000000
-42,7,50,1634891695.0,32.000000
-41,8,50,1634891695.0,32.000000
-42,8,50,1634891695.0,32.000000
-41,8,50,1634891695.0,32.000000
-41,8,50,1634891695.0,32.000000
-41,8,50,1634891695.0,32.000000
-41,7,50,1634891695.0,32.000000
-41,8,50,1634891695.0,32.000000
-41,7,50,1634891695.0,32.000000
-42,7,50,1634891695.0,32.000000
-41,7,50,1634891695.0,32.000000
-41,7,50,1634891695.0,32.000000
-41,8,50,1634891695.0,32.000000
-41,8,50,1634891695.0,32.000000
-41,7,50,1634891695.0,32.000000
-41,7,50,1634891695.0,32.000000
-41,8,50,1634891695.0,32.000000
-41,7,50,1634891695.0,32.000000
-41,7,50,1634891695.0,32.000000
-41,8,50,1634891695.0,32.000000
-41,8,50,1634891695.0,32.000000
-42,8,50,1634891695.0,32.000000
-41,8,50,1634891695.0,32.000000
-41,8,50,1634891695.0,32.000000
-41,8,50,1634891695.0,32.000000
-42,8,50,1634891695.0,32.000000
-42,7,50,1634891695.0,32.000000
-41,7,50,1634891695.0,32.000000
-41,7,50,1634891695.0,32.000000
-41,8,50,1634891695.0,32.000000
-41,8,50,1634891695.0,32.000000
-41,7,50,1634891695.0,32.000000
-41,8,50,1634891695.0,32.000000
-41,7,50,1634891695.0,32.000000
-41,8,50,1634891695.0,32.000000
-41,8,50,1634891695.0,32.000000
-41,8,50,1634891695.0,32.000000
-41,7,50,1634891695.0,32.000000
-41,8,50,1634891695.0,32.000000
-41,7,50,1634891695.0,32.000000
-41,7,50,1634891695.0,32.000000
-41,7,51,1634891695.0,32.000000
-41,7,51,1634891695.0,32.000000
-41,7,50,1634891695.0,32.000000
-41,7,51,1634891695.0,32.000000
-41,7,51,1634891695.0,32.000000
-41,7,51,1634891695.0,32.000000
-41,7,50,1634891695.0,32.000000
-41,7,50,1634891695.0,32.000000
-41,7,50,1634891695.0,32.000000
-41,7,51,1634891695.0,32.000000
-41,7,51,1634891695.0,32.000000
-40,7,51,1634891695.0,32.000000
-41,7,51,1634891695.0,32.000000
-40,7,51,1634891695.0,32.000000
-40,7,51,1634891695.0,32.000000
-40,7,51,1634891695.0,32.000000
-41,7,51,1634891695.0,32.000000
-40,7,51,1634891695.0,32.000000
-41,7,51,1634891695.0,32.000000
-41,7,51,1634891695.0,32.000000
-40,7,51,1634891695.0,32.000000
-40,7,51,1634891695.0,32.000000
-41,7,51,1634891695.0,32.000000
-40,7,51,1634891695.0,32.000000
-40,7,51,1634891695.0,32.000000
-41,7,51,1634891695.0,32.000000
-41,7,51,1634891695.0,32.000000
-40,7,51,1634891695.0,32.000000
-41,7,51,1634891695.0,32.000000
-40,7,51,1634891695.0,32.000000
-41,7,51,1634891695.0,32.000000
-41,7,51,1634891695.0,32.000000
-41,7,51,1634891695.0,32.000000
-41,7,51,1634891695.0,32.000000
-41,7,51,1634891695.0,32.000000
-41,7,51,1634891695.0,32.000000
-41,7,50,1634891695.0,32.000000
-41,7,51,1634891695.0,32.000000
-41,7,51,1634891695.0,32.000000
-41,7,51,1634891695.0,32.000000
-41,7,51,1634891695.0,32.000000
-41,7,51,1634891695.0,32.000000
-41,7,51,1634891695.0,32.000000
-41,7,51,1634891695.0,32.000000
-41,7,51,1634891695.0,32.000000
-41,7,50,1634891695.0,32.000000
-41,7,51,1634891695.0,32.000000
-41,7,51,1634891695.0,32.000000
-41,7,50,1634891695.0,32.000000
-41,7,50,1634891695.0,32.000000
-41,7,50,1634891695.0,32.000000
-41,7,51,1634891695.0,32.000000
-41,7,50,1634891695.0,32.000000
-41,7,50,1634891695.0,32.000000
-41,7,50,1634891695.0,32.000000
-41,7,50,1634891695.0,32.000000
-41,7,50,1634891695.0,32.000000
-41,7,50,1634891695.0,32.000000
-41,7,50,1634891695.0,32.000000
-41,7,51,1634891695.0,32.000000
-41,7,50,1634891695.0,32.000000
-41,7,50,1634891695.0,32.000000
-41,7,51,1634891695.0,32.000000
-41,7,50,1634891695.0,32.000000
-41,7,50,1634891695.0,32.000000
-41,7,51,1634891695.0,32.000000
-41,7,50,1634891695.0,32.000000
-41,7,50,1634891695.0,32.000000
-41,7,51,1634891695.0,32.000000
-41,7,51,1634891695.0,32.000000
-41,7,51,1634891695.0,32.000000
-41,7,51,1634891695.0,32.000000
-41,7,50,1634891695.0,32.000000
-41,7,50,1634891695.0,32.000000
-41,7,51,1634891695.0,32.000000
-41,7,51,1634891695.0,32.000000
-41,7,50,1634891695.0,32.000000
-41,7,50,1634891695.0,32.000000
-41,7,51,1634891695.0,32.000000
-41,7,51,1634891695.0,32.000000
-41,7,51,1634891695.0,32.000000
-41,7,50,1634891695.0,32.000000
-41,7,51,1634891695.0,32.000000
-41,7,50,1634891695.0,32.000000
-41,7,51,1634891695.0,32.000000
-41,7,50,1634891695.0,32.000000
-41,7,50,1634891695.0,32.000000
-40,7,51,1634891695.0,32.000000
-41,7,50,1634891695.0,32.000000
-41,7,50,1634891695.0,32.000000
-41,7,51,1634891695.0,32.000000
-41,7,50,1634891695.0,32.000000
-41,7,51,1634891695.0,32.000000
-41,7,50,1634891695.0,32.000000
-41,7,50,1634891695.0,32.000000
-41,7,51,1634891695.0,32.000000
-41,7,51,1634891695.0,32.000000
-41,7,50,1634891695.0,32.000000
-41,7,50,1634891695.0,32.000000
-41,7,50,1634891695.0,32.000000
-41,7,50,1634891695.0,32.000000
-41,7,51,1634891695.0,32.000000
-41,7,51,1634891695.0,32.000000
-41,7,50,1634891695.0,32.000000
-41,7,50,1634891695.0,32.000000
-41,7,50,1634891695.0,32.000000
-41,7,51,1634891695.0,32.000000
-41,7,50,1634891695.0,32.000000
-41,7,51,1634891695.0,32.000000
-41,7,51,1634891695.0,32.000000
-41,7,50,1634891695.0,32.000000
-41,7,51,1634891695.0,32.000000
-41,7,51,1634891695.0,32.000000
-41,7,50,1634891695.0,32.000000
-41,7,51,1634891695.0,32.000000
-41,7,51,1634891695.0,32.000000
-41,7,50,1634891695.0,32.000000
-41,7,50,1634891695.0,32.000000
-41,7,50,1634891695.0,32.000000
-41,7,50,1634891695.0,32.000000
-41,7,50,1634891695.0,32.000000
-41,7,50,1634891695.0,32.000000
-41,7,50,1634891695.0,32.000000
-41,7,50,1634891695.0,32.000000
-41,7,50,1634891695.0,32.000000
-41,7,51,1634891695.0,32.000000
-41,7,51,1634891695.0,32.000000
-41,7,50,1634891695.0,32.000000
-41,7,50,1634891695.0,32.000000
-41,7,50,1634891695.0,32.000000
-41,7,50,1634891695.0,32.000000
-41,7,51,1634891695.0,32.000000
-41,7,51,1634891695.0,32.000000
-41,7,50,1634891695.0,32.000000
-41,7,51,1634891695.0,32.000000
-41,7,51,1634891695.0,32.000000
-41,7,50,1634891695.0,32.000000
-41,7,50,1634891695.0,32.000000
-41,7,51,1634891695.0,32.000000
-41,7,50,1634891695.0,32.000000
-41,7,51,1634891695.0,32.000000
-41,7,50,1634891695.0,32.000000
-41,7,50,1634891695.0,32.000000
-41,7,50,1634891695.0,32.000000
-41,7,50,1634891695.0,32.000000
-41,7,50,1634891695.0,32.000000
-41,7,50,1634891695.0,32.000000
-41,7,50,1634891695.0,32.000000
-41,7,50,1634891695.0,32.000000
-41,7,50,1634891695.0,32.000000
-41,7,50,1634891695.0,32.000000
-41,7,50,1634891695.0,32.000000
-41,7,50,1634891695.0,32.000000
-41,7,50,1634891695.0,32.000000
-41,7,50,1634891695.0,32.000000
-41,7,50,1634891695.0,32.000000
-41,7,50,1634891695.0,32.000000
-41,7,50,1634891695.0,32.000000
-41,7,50,1634891695.0,32.000000
-41,7,51,1634891695.0,32.000000
-41,7,50,1634891695.0,32.000000
-41,7,50,1634891695.0,32.000000
-41,7,50,1634891695.0,32.000000
-42,7,50,1634891695.0,32.000000
-41,7,51,1634891695.0,32.000000
-41,7,50,1634891695.0,32.000000
-39,6,52,1634891695.0,32.000000
-40,6,51,1634891695.0,32.000000
-41,6,51,1634891695.0,32.000000
-41,5,52,1634891695.0,32.000000
-40,5,51,1634891695.0,32.000000
-39,5,52,1634891695.0,32.000000
-39,4,53,1634891695.0,32.000000
-39,5,52,1634891695.0,32.000000
-40,6,51,1634891695.0,32.000000
-40,6,51,1634891695.0,32.000000
-40,5,51,1634891695.0,32.000000
-39,5,52,1634891695.0,32.000000
-39,5,52,1634891695.0,32.000000
-40,5,52,1634891695.0,32.000000
-41,5,51,1634891695.0,32.000000
-40,5,51,1634891695.0,32.000000
-41,5,51,1634891695.0,32.000000
-41,5,51,1634891695.0,32.000000
-38,5,53,1634891695.0,32.000000
-38,4,52,1634891695.0,32.000000
-40,4,52,1634891695.0,32.000000
-40,4,52,1634891695.0,32.000000
-39,4,52,1634891695.0,32.000000
-40,4,52,1634891695.0,32.000000
-40,4,52,1634891695.0,32.000000
-39,4,51,1634891695.0,32.000000
-38,5,52,1634891695.0,32.000000
-39,4,51,1634891695.0,32.000000
-40,3,52,1634891695.0,32.000000
-40,4,52,1634891695.0,32.000000
-38,4,53,1634891695.0,32.000000
-39,4,52,1634891695.0,32.000000
-39,4,52,1634891695.0,32.000000
-38,4,52,1634891695.0,32.000000
-39,4,52,1634891695.0,32.000000
-39,4,52,1634891695.0,32.000000
-39,4,53,1634891695.0,32.000000
-39,4,52,1634891695.0,32.000000
-39,4,52,1634891695.0,32.000000
-39,4,52,1634891695.0,32.000000
-39,4,52,1634891695.0,32.000000
-39,4,51,1634891695.0,32.000000
-39,4,52,1634891695.0,32.000000
-40,4,52,1634891695.0,32.000000
-40,4,52,1634891695.0,32.000000
-40,4,51,1634891695.0,32.000000
-40,4,52,1634891695.0,32.000000
-39,4,52,1634891695.0,32.000000
-39,4,52,1634891695.0,32.000000
-39,4,52,1634891695.0,32.000000
-40,4,52,1634891695.0,32.000000
-40,4,52,1634891695.0,32.000000
-38,4,53,1634891695.0,32.000000
-39,4,52,1634891695.0,32.000000
-39,4,52,1634891695.0,32.000000
-39,3,52,1634891695.0,32.000000
-40,3,52,1634891695.0,32.000000
-40,3,52,1634891695.0,32.000000
-39,3,52,1634891695.0,32.000000
-38,3,53,1634891695.0,32.000000
-39,3,52,1634891695.0,32.000000
-39,3,53,1634891695.0,32.000000
-38,2,53,1634891695.0,32.000000
-37,2,54,1634891695.0,32.000000
-37,2,54,1634891695.0,32.000000
-37,2,54,1634891695.0,32.000000
-36,1,54,1634891695.0,32.000000
-36,2,54,1634891695.0,32.000000
-37,2,54,1634891695.0,32.000000
-35,2,54,1634891695.0,32.000000
-36,2,54,1634891695.0,32.000000
-37,1,54,1634891695.0,32.000000
-37,1,54,1634891695.0,32.000000
-36,1,54,1634891695.0,32.000000
-38,1,53,1634891695.0,32.000000
-39,1,53,1634891695.0,32.000000
-37,1,54,1634891695.0,32.000000
-36,1,54,1634891695.0,32.000000
-37,1,53,1634891695.0,32.000000
-37,1,54,1634891695.0,32.000000
-37,1,53,1634891695.0,32.000000
-36,1,54,1634891695.0,32.000000
-38,1,54,1634891695.0,32.000000
-38,1,53,1634891695.0,32.000000
-37,1,54,1634891695.0,32.000000
-38,1,54,1634891695.0,32.000000
-38,1,54,1634891695.0,32.000000
-38,2,53,1634891695.0,32.000000
-37,1,53,1634891695.0,32.000000
-35,1,54,1634891695.0,32.000000
-38,0,54,1634891695.0,32.000000
-39,1,52,1634891695.0,32.000000
-37,2,53,1634891695.0,32.000000
-35,0,54,1634891695.0,32.000000
-37,-1,53,1634891695.0,32.000000
-37,0,53,1634891695.0,32.000000
-39,2,53,1634891695.0,32.000000
-38,3,52,1634891695.0,32.000000
-40,3,53,1634891695.0,32.000000
-40,2,51,1634891695.0,32.000000
-40,2,52,1634891695.0,32.000000
-42,2,51,1634891695.0,32.000000
-42,2,50,1634891695.0,32.000000
-39,3,52,1634891695.0,32.000000
-43,3,50,1634891695.0,32.000000
-43,4,50,1634891695.0,32.000000
-42,4,50,1634891695.0,32.000000
-42,4,50,1634891695.0,32.000000
-43,4,49,1634891695.0,32.000000
-44,4,49,1634891695.0,32.000000
-45,4,48,1634891695.0,32.000000
-44,4,48,1634891695.0,32.000000
-43,5,49,1634891695.0,32.000000
-43,5,49,1634891695.0,32.000000
-45,5,47,1634891695.0,32.000000
-45,6,48,1634891695.0,32.000000
-45,5,48,1634891695.0,32.000000
-45,5,48,1634891695.0,32.000000
-44,5,48,1634891695.0,32.000000
-44,5,48,1634891695.0,32.000000
-45,6,48,1634891695.0,32.000000
-45,6,48,1634891695.0,32.000000
-45,5,48,1634891695.0,32.000000
-45,6,48,1634891695.0,32.000000
-44,5,48,1634891695.0,32.000000
-45,5,48,1634891695.0,32.000000
-45,6,47,1634891695.0,32.000000
-45,5,48,1634891695.0,32.000000
-45,6,48,1634891695.0,32.000000
-45,5,48,1634891695.0,32.000000
-45,5,48,1634891695.0,32.000000
-45,5,47,1634891695.0,32.000000
-46,5,48,1634891695.0,32.000000
-46,5,48,1634891695.0,32.000000
-46,5,47,1634891695.0,32.000000
-46,5,47,1634891695.0,32.000000
-44,5,48,1634891695.0,32.000000
-46,5,47,1634891695.0,32.000000
-46,5,47,1634891695.0,32.000000
-45,5,48,1634891695.0,32.000000
-45,5,48,1634891695.0,32.000000
-44,5,48,1634891695.0,32.000000
-44,6,49,1634891695.0,32.000000
-45,5,48,1634891695.0,32.000000
-44,5,49,1634891695.0,32.000000
-43,5,49,1634891695.0,32.000000
-45,5,49,1634891695.0,32.000000
-42,6,47,1634891695.0,32.000000
-44,2,50,1634891695.0,32.000000
-34,6,41,1634891695.0,32.000000
-43,7,53,1634891695.0,32.000000
-44,6,50,1634891695.0,32.000000
-43,4,53,1634891695.0,32.000000
-41,4,48,1634891695.0,32.000000
-39,5,53,1634891695.0,32.000000
-39,6,52,1634891695.0,32.000000
-40,5,51,1634891695.0,32.000000
-39,4,52,1634891695.0,32.000000
-39,4,52,1634891695.0,32.000000
-38,4,53,1634891695.0,32.000000
-39,4,53,1634891695.0,32.000000
-37,4,53,1634891695.0,32.000000
-38,4,53,1634891695.0,32.000000
-37,4,53,1634891695.0,32.000000
-37,4,54,1634891695.0,32.000000
-39,5,53,1634891695.0,32.000000
-39,5,52,1634891695.0,32.000000
-40,4,51,1634891695.0,32.000000
-40,5,52,1634891695.0,32.000000
-39,5,52,1634891695.0,32.000000
-39,4,52,1634891695.0,32.000000
-40,5,52,1634891695.0,32.000000
-40,4,51,1634891695.0,32.000000
-40,5,51,1634891695.0,32.000000
-40,5,52,1634891695.0,32.000000
-41,5,51,1634891695.0,32.000000
-41,5,51,1634891695.0,32.000000
-41,5,51,1634891695.0,32.000000
-41,5,50,1634891695.0,32.000000
-42,5,50,1634891695.0,32.000000
-41,6,50,1634891695.0,32.000000
-41,6,51,1634891695.0,32.000000
-41,5,51,1634891695.0,32.000000
-43,5,49,1634891695.0,32.000000
-45,5,49,1634891695.0,32.000000
-43,6,49,1634891695.0,32.000000
-44,6,49,1634891695.0,32.000000
-43,7,48,1634891695.0,32.000000
-43,7,48,1634891695.0,32.000000
-46,6,48,1634891695.0,32.000000
-44,6,49,1634891695.0,32.000000
-42,5,50,1634891695.0,32.000000
-41,5,49,1634891695.0,32.000000
-44,5,49,1634891695.0,32.000000
-46,5,48,1634891695.0,32.000000
-45,5,49,1634891695.0,32.000000
-44,5,48,1634891695.0,32.000000
-44,5,49,1634891695.0,32.000000
-43,5,48,1634891695.0,32.000000
-45,5,48,1634891695.0,32.000000
-45,5,48,1634891695.0,32.000000
-44,6,48,1634891695.0,32.000000
-43,5,49,1634891695.0,32.000000
-43,6,48,1634891695.0,32.000000
-44,5,48,1634891695.0,32.000000
-47,3,46,1634891695.0,32.000000
-49,4,46,1634891695.0,32.000000
-46,4,48,1634891695.0,32.000000
-46,5,47,1634891695.0,32.000000
-46,5,47,1634891695.0,32.000000
-49,5,50,1634891695.0,32.000000
-46,5,46,1634891695.0,32.000000
-42,4,49,1634891695.0,32.000000
-43,4,50,1634891695.0,32.000000
-48,4,47,1634891695.0,32.000000
-46,3,47,1634891695.0,32.000000
-46,3,48,1634891695.0,32.000000
-43,3,48,1634891695.0,32.000000
-43,4,50,1634891695.0,32.000000
-43,4,49,1634891695.0,32.000000
-42,3,50,1634891695.0,32.000000
-42,3,51,1634891695.0,32.000000
-42,3,50,1634891695.0,32.000000
-44,4,48,1634891695.0,32.000000
-47,5,47,1634891695.0,32.000000
-43,4,49,1634891695.0,32.000000
-44,4,49,1634891695.0,32.000000
-46,4,47,1634891695.0,32.000000
-45,4,48,1634891695.0,32.000000
-46,4,47,1634891695.0,32.000000
-48,4,46,1634891695.0,32.000000
-48,4,46,1634891695.0,32.000000
-48,4,46,1634891695.0,32.000000
-48,4,46,1634891695.0,32.000000
-47,4,46,1634891695.0,32.000000
-47,4,47,1634891695.0,32.000000
-45,3,47,1634891695.0,32.000000
-43,2,49,1634891695.0,32.000000
-43,2,50,1634891695.0,32.000000
-41,1,50,1634891695.0,32.000000
-41,3,50,1634891695.0,32.000000
-43,5,50,1634891695.0,32.000000
-42,4,49,1634891695.0,32.000000
-44,5,49,1634891695.0,32.000000
-44,4,49,1634891695.0,32.000000
-41,6,50,1634891695.0,32.000000
-44,5,49,1634891695.0,32.000000
-43,2,49,1634891695.0,32.000000
-43,-1,50,1634891695.0,32.000000
-42,0,50,1634891695.0,32.000000
-39,1,52,1634891695.0,32.000000
-38,1,53,1634891695.0,32.000000
-38,2,53,1634891695.0,32.000000
-40,1,52,1634891695.0,32.000000
-41,0,51,1634891695.0,32.000000
-35,0,55,1634891695.0,32.000000
-36,0,57,1634891695.0,32.000000
-40,0,52,1634891695.0,32.000000
-41,-1,50,1634891695.0,32.000000
-38,-3,52,1634891695.0,32.000000
-36,-5,54,1634891695.0,32.000000
-37,-5,52,1634891695.0,32.000000
-40,-5,51,1634891695.0,32.000000
-37,-6,53,1634891695.0,32.000000
-37,-5,54,1634891695.0,32.000000
-36,-6,53,1634891695.0,32.000000
-37,-6,52,1634891695.0,32.000000
-37,-6,53,1634891695.0,32.000000
-35,-6,55,1634891695.0,32.000000
-36,-7,54,1634891695.0,32.000000
-33,-6,56,1634891695.0,32.000000
-36,-5,55,1634891695.0,32.000000
-37,-7,53,1634891695.0,32.000000
-33,-6,55,1634891695.0,32.000000
-34,-5,56,1634891695.0,32.000000
-37,-3,55,1634891695.0,32.000000
-38,-5,53,1634891695.0,32.000000
-35,-6,54,1634891695.0,32.000000
-36,-4,55,1634891695.0,32.000000
-37,-4,54,1634891695.0,32.000000
-34,-3,55,1634891695.0,32.000000
-38,-3,55,1634891695.0,32.000000
-42,-2,51,1634891695.0,32.000000
-35,-1,53,1634891695.0,32.000000
-34,-1,56,1634891695.0,32.000000
-38,-2,53,1634891695.0,32.000000
-41,-4,51,1634891695.0,32.000000
-41,-4,49,1634891695.0,32.000000
-36,2,55,1634891695.0,32.000000
-36,1,56,1634891695.0,32.000000
-43,-3,49,1634891695.0,32.000000
-44,-7,48,1634891695.0,32.000000
-42,0,50,1634891695.0,32.000000
-40,-2,52,1634891695.0,32.000000
-38,-4,52,1634891695.0,32.000000
-47,-2,49,1634891695.0,32.000000
-54,-2,43,1634891695.0,32.000000
-49,0,47,1634891695.0,32.000000
-42,-1,49,1634891695.0,32.000000
-41,-4,50,1634891695.0,32.000000
-47,-4,46,1634891695.0,32.000000
-44,-4,48,1634891695.0,32.000000
-45,-3,49,1634891695.0,32.000000
-46,-1,48,1634891695.0,32.000000
-50,-1,50,1634891695.0,32.000000
-40,0,47,1634891695.0,32.000000
-45,-4,49,1634891695.0,32.000000
-40,0,50,1634891695.0,32.000000
-44,2,48,1634891695.0,32.000000
-44,2,48,1634891695.0,32.000000
-41,1,51,1634891695.0,32.000000
-37,0,54,1634891695.0,32.000000
-37,0,53,1634891695.0,32.000000
-44,2,49,1634891695.0,32.000000
-41,6,50,1634891695.0,32.000000
-39,3,53,1634891695.0,32.000000
-36,-1,54,1634891695.0,32.000000
-37,-1,54,1634891695.0,32.000000
-39,0,52,1634891695.0,32.000000
-40,2,52,1634891695.0,32.000000
-35,3,54,1634891695.0,32.000000
-33,4,56,1634891695.0,32.000000
-34,3,55,1634891695.0,32.000000
-39,5,52,1634891695.0,32.000000
-41,4,52,1634891695.0,32.000000
-38,5,53,1634891695.0,32.000000
-38,3,53,1634891695.0,32.000000
-38,3,52,1634891695.0,32.000000
-39,4,53,1634891695.0,32.000000
-39,4,52,1634891695.0,32.000000
-37,5,53,1634891695.0,32.000000
-39,6,52,1634891695.0,32.000000
-39,4,53,1634891695.0,32.000000
-38,5,52,1634891695.0,32.000000
-39,5,52,1634891695.0,32.000000
-39,6,53,1634891695.0,32.000000
-38,6,53,1634891695.0,32.000000
-38,6,53,1634891695.0,32.000000
-37,4,54,1634891695.0,32.000000
-35,4,54,1634891695.0,32.000000
-35,5,55,1634891695.0,32.000000
-36,6,54,1634891695.0,32.000000
-37,5,54,1634891695.0,32.000000
-36,6,53,1634891695.0,32.000000
-37,6,54,1634891695.0,32.000000
-35,5,54,1634891695.0,32.000000
-36,5,54,1634891695.0,32.000000
-37,6,53,1634891695.0,32.000000
-36,6,54,1634891695.0,32.000000
-36,5,54,1634891695.0,32.000000
-37,6,54,1634891695.0,32.000000
-36,5,54,1634891695.0,32.000000
-37,5,54,1634891695.0,32.000000
-36,6,54,1634891695.0,32.000000
-36,6,54,1634891695.0,32.000000
-36,5,54,1634891695.0,32.000000
-38,5,53,1634891695.0,32.000000
-39,5,52,1634891695.0,32.000000
-37,6,53,1634891695.0,32.000000
-36,6,54,1634891695.0,32.000000
-35,5,54,1634891695.0,32.000000
-38,6,53,1634891695.0,32.000000
-38,6,52,1634891695.0,32.000000
-36,6,54,1634891695.0,32.000000
-37,6,53,1634891695.0,32.000000
-38,5,53,1634891695.0,32.000000
-37,6,53,1634891695.0,32.000000
-37,6,53,1634891695.0,32.000000
-38,6,53,1634891695.0,32.000000
-38,6,53,1634891695.0,32.000000
-39,6,52,1634891695.0,32.000000
-38,6,53,1634891695.0,32.000000
-37,5,54,1634891695.0,32.000000
-38,5,53,1634891695.0,32.000000
-37,6,53,1634891695.0,32.000000
-37,5,53,1634891695.0,32.000000
-37,6,53,1634891695.0,32.000000
-37,6,53,1634891695.0,32.000000
-37,6,53,1634891695.0,32.000000
-38,6,53,1634891695.0,32.000000
-37,6,53,1634891695.0,32.000000
-37,5,53,1634891695.0,32.000000
-37,6,53,1634891695.0,32.000000
-38,6,53,1634891695.0,32.000000
-37,6,53,1634891695.0,32.000000
-37,6,53,1634891695.0,32.000000
-38,6,53,1634891695.0,32.000000
-38,6,53,1634891695.0,32.000000
-38,6,53,1634891695.0,32.000000
-38,6,52,1634891695.0,32.000000
-39,6,53,1634891695.0,32.000000
-37,6,53,1634891695.0,32.000000
-38,6,53,1634891695.0,32.000000
-38,6,53,1634891695.0,32.000000
-37,6,53,1634891695.0,32.000000
-38,6,53,1634891695.0,32.000000
-38,6,53,1634891695.0,32.000000
-38,6,53,1634891695.0,32.000000
-39,6,52,1634891695.0,32.000000
-38,6,53,1634891695.0,32.000000
-38,6,53,1634891695.0,32.000000
-38,6,53,1634891695.0,32.000000
-38,6,53,1634891695.0,32.000000
-39,6,52,1634891695.0,32.000000
-38,6,52,1634891695.0,32.000000
-38,6,53,1634891695.0,32.000000
-38,6,53,1634891695.0,32.000000
-38,6,52,1634891695.0,32.000000
-38,6,53,1634891695.0,32.000000
-38,6,53,1634891695.0,32.000000
-38,6,53,1634891695.0,32.000000
-38,6,53,1634891695.0,32.000000
-38,6,53,1634891695.0,32.000000
-38,6,53,1634891695.0,32.000000
-38,6,53,1634891695.0,32.000000
-38,6,53,1634891695.0,32.000000
-38,6,53,1634891695.0,32.000000
-38,6,53,1634891695.0,32.000000
-38,6,53,1634891695.0,32.000000
-39,6,52,1634891695.0,32.000000
-39,6,52,1634891695.0,32.000000
-38,6,52,1634891695.0,32.000000
-38,6,53,1634891695.0,32.000000
-39,6,52,1634891695.0,32.000000
-39,6,52,1634891695.0,32.000000
-39,6,52,1634891695.0,32.000000
-38,6,53,1634891695.0,32.000000
-38,6,53,1634891695.0,32.000000
-38,6,53,1634891695.0,32.000000
-39,6,52,1634891695.0,32.000000
-38,6,53,1634891695.0,32.000000
-38,6,53,1634891695.0,32.000000
-38,6,53,1634891695.0,32.000000
-38,6,53,1634891695.0,32.000000
-38,6,53,1634891695.0,32.000000
-39,6,52,1634891695.0,32.000000
-38,6,53,1634891695.0,32.000000
-38,6,53,1634891695.0,32.000000
-38,6,53,1634891695.0,32.000000
-38,6,53,1634891695.0,32.000000
-38,6,53,1634891695.0,32.000000
-38,6,53,1634891695.0,32.000000
-39,6,52,1634891695.0,32.000000
-39,6,52,1634891695.0,32.000000
-38,6,53,1634891695.0,32.000000
-37,6,53,1634891695.0,32.000000
-38,6,53,1634891695.0,32.000000
-39,6,52,1634891695.0,32.000000
-39,6,52,1634891695.0,32.000000
-37,6,53,1634891695.0,32.000000
-37,6,53,1634891695.0,32.000000
-38,6,53,1634891695.0,32.000000
-39,6,52,1634891695.0,32.000000
-39,6,52,1634891695.0,32.000000
-38,6,53,1634891695.0,32.000000
-37,6,53,1634891695.0,32.000000
-39,6,53,1634891695.0,32.000000
-39,6,52,1634891695.0,32.000000
-38,6,53,1634891695.0,32.000000
-38,6,53,1634891695.0,32.000000
-37,6,53,1634891695.0,32.000000
-37,6,53,1634891695.0,32.000000
-39,6,52,1634891695.0,32.000000
-39,6,52,1634891695.0,32.000000
-37,6,53,1634891695.0,32.000000
-33,5,56,1634891695.0,32.000000
-37,8,57,1634891695.0,32.000000
-37,4,52,1634891695.0,32.000000
-40,3,51,1634891695.0,32.000000
-35,5,50,1634891695.0,32.000000
-42,6,48,1634891695.0,32.000000
-56,6,41,1634891695.0,32.000000
-67,8,28,1634891695.0,32.000000
-59,10,28,1634891695.0,32.000000
-52,11,30,1634891695.0,32.000000
-55,11,27,1634891695.0,32.000000
-70,12,22,1634891695.0,32.000000
-65,10,24,1634891695.0,32.000000
-65,11,25,1634891695.0,32.000000
-62,10,29,1634891695.0,32.000000
-63,9,32,1634891695.0,32.000000
-49,9,39,1634891695.0,32.000000
-44,9,46,1634891695.0,32.000000
-42,6,53,1634891695.0,32.000000
-30,7,54,1634891695.0,32.000000
-35,8,52,1634891695.0,32.000000
-26,6,57,1634891695.0,32.000000
-26,3,62,1634891695.0,32.000000
-26,4,60,1634891695.0,32.000000
-36,7,53,1634891695.0,32.000000
-34,8,54,1634891695.0,32.000000
-34,8,56,1634891695.0,32.000000
-32,8,55,1634891695.0,32.000000
-31,8,55,1634891695.0,32.000000
-34,6,56,1634891695.0,32.000000
-31,6,57,1634891695.0,32.000000
-31,6,56,1634891695.0,32.000000
-33,6,57,1634891695.0,32.000000
-33,8,54,1634891695.0,32.000000
-34,8,56,1634891695.0,32.000000
-34,6,56,1634891695.0,32.000000
-35,7,54,1634891695.0,32.000000
-34,7,55,1634891695.0,32.000000
-34,7,55,1634891695.0,32.000000
-34,7,55,1634891695.0,32.000000
-35,7,54,1634891695.0,32.000000
-34,5,54,1634891695.0,32.000000
-33,6,56,1634891695.0,32.000000
-34,7,55,1634891695.0,32.000000
-34,7,55,1634891695.0,32.000000
-34,7,55,1634891695.0,32.000000
-34,7,55,1634891695.0,32.000000
-35,7,55,1634891695.0,32.000000
-34,7,55,1634891695.0,32.000000
-34,7,55,1634891695.0,32.000000
-33,7,55,1634891695.0,32.000000
-34,6,55,1634891695.0,32.000000
-36,7,53,1634891695.0,32.000000
-37,6,53,1634891695.0,32.000000
-34,7,55,1634891695.0,32.000000
-34,7,55,1634891695.0,32.000000
-34,7,55,1634891695.0,32.000000
-35,7,54,1634891695.0,32.000000
-35,7,54,1634891695.0,32.000000
-35,7,54,1634891695.0,32.000000
-35,7,54,1634891695.0,32.000000
-35,7,55,1634891695.0,32.000000
-34,7,55,1634891695.0,32.000000
-35,7,55,1634891695.0,32.000000
-36,7,54,1634891695.0,32.000000
-36,7,54,1634891695.0,32.000000
-35,7,54,1634891695.0,32.000000
-35,7,55,1634891695.0,32.000000
-34,7,54,1634891695.0,32.000000
-35,7,55,1634891695.0,32.000000
-35,7,54,1634891695.0,32.000000
-35,7,54,1634891695.0,32.000000
-35,7,55,1634891695.0,32.000000
-34,7,55,1634891695.0,32.000000
-35,7,55,1634891695.0,32.000000
-35,7,54,1634891695.0,32.000000
-35,7,54,1634891695.0,32.000000
-35,7,55,1634891695.0,32.000000
-35,7,54,1634891695.0,32.000000
-35,7,54,1634891695.0,32.000000
-35,7,54,1634891695.0,32.000000
-35,7,55,1634891695.0,32.000000
-35,7,55,1634891695.0,32.000000
-35,7,54,1634891695.0,32.000000
-35,7,54,1634891695.0,32.000000
-35,7,54,1634891695.0,32.000000
-34,7,54,1634891695.0,32.000000
-34,7,55,1634891695.0,32.000000
-35,7,55,1634891695.0,32.000000
-35,7,54,1634891695.0,32.000000
-35,7,55,1634891695.0,32.000000
-35,7,54,1634891695.0,32.000000
-35,7,54,1634891695.0,32.000000
-35,7,54,1634891695.0,32.000000
-35,7,54,1634891695.0,32.000000
-35,7,54,1634891695.0,32.000000
-35,7,54,1634891695.0,32.000000
-36,7,54,1634891695.0,32.000000
-36,7,53,1634891695.0,32.000000
-35,7,54,1634891695.0,32.000000
-35,7,54,1634891695.0,32.000000
-35,7,54,1634891695.0,32.000000
-35,7,54,1634891695.0,32.000000
-35,7,54,1634891695.0,32.000000
-35,7,54,1634891695.0,32.000000
-35,8,54,1634891695.0,32.000000
-35,7,54,1634891695.0,32.000000
-35,7,54,1634891695.0,32.000000
-35,6,55,1634891695.0,32.000000
-35,6,56,1634891695.0,32.000000
-34,6,55,1634891695.0,32.000000
-34,6,55,1634891695.0,32.000000
-35,6,54,1634891695.0,32.000000
-33,6,56,1634891695.0,32.000000
-33,6,56,1634891695.0,32.000000
-32,5,56,1634891695.0,32.000000
-33,6,56,1634891695.0,32.000000
-34,6,56,1634891695.0,32.000000
-33,6,56,1634891695.0,32.000000
-32,6,56,1634891695.0,32.000000
-33,6,56,1634891695.0,32.000000
-32,5,56,1634891695.0,32.000000
-33,6,56,1634891695.0,32.000000
-33,6,56,1634891695.0,32.000000
-33,6,56,1634891695.0,32.000000
-33,6,56,1634891695.0,32.000000
-34,6,56,1634891695.0,32.000000
-34,6,55,1634891695.0,32.000000
-34,6,55,1634891695.0,32.000000
-34,6,55,1634891695.0,32.000000
-34,6,55,1634891695.0,32.000000
-34,6,55,1634891695.0,32.000000
-34,6,55,1634891695.0,32.000000
-34,6,55,1634891695.0,32.000000
-35,6,54,1634891695.0,32.000000
-35,6,54,1634891695.0,32.000000
-35,6,54,1634891695.0,32.000000
-34,6,55,1634891695.0,32.000000
-35,6,55,1634891695.0,32.000000
-35,6,54,1634891695.0,32.000000
-35,6,54,1634891695.0,32.000000
-35,6,54,1634891695.0,32.000000
-34,6,55,1634891695.0,32.000000
-35,6,55,1634891695.0,32.000000
-34,6,55,1634891695.0,32.000000
-34,6,55,1634891695.0,32.000000
-35,6,54,1634891695.0,32.000000
-35,7,54,1634891695.0,32.000000
-34,6,54,1634891695.0,32.000000
-34,6,55,1634891695.0,32.000000
-35,6,54,1634891695.0,32.000000
-35,6,54,1634891695.0,32.000000
-35,6,55,1634891695.0,32.000000
-35,6,54,1634891695.0,32.000000
-35,6,54,1634891695.0,32.000000
-35,6,54,1634891695.0,32.000000
-35,6,54,1634891695.0,32.000000
-35,6,54,1634891695.0,32.000000
-36,6,54,1634891695.0,32.000000
-36,7,54,1634891695.0,32.000000
-35,6,54,1634891695.0,32.000000
-35,7,54,1634891695.0,32.000000
-36,6,54,1634891695.0,32.000000
-36,6,54,1634891695.0,32.000000
-36,7,54,1634891695.0,32.000000
-35,7,54,1634891695.0,32.000000
-35,6,54,1634891695.0,32.000000
-35,6,54,1634891695.0,32.000000
-35,6,54,1634891695.0,32.000000
-35,6,54,1634891695.0,32.000000
-35,7,54,1634891695.0,32.000000
-35,7,54,1634891695.0,32.000000
-35,6,54,1634891695.0,32.000000
-36,6,54,1634891695.0,32.000000
-36,6,54,1634891695.0,32.000000
-36,7,54,1634891695.0,32.000000
-36,7,54,1634891695.0,32.000000
-35,7,54,1634891695.0,32.000000
-36,7,54,1634891695.0,32.000000
-36,7,54,1634891695.0,32.000000
-36,7,54,1634891695.0,32.000000
-36,7,54,1634891695.0,32.000000
-36,7,54,1634891695.0,32.000000
-35,7,54,1634891695.0,32.000000
-36,7,54,1634891695.0,32.000000
-35,7,54,1634891695.0,32.000000
-36,7,54,1634891695.0,32.000000
-36,7,54,1634891695.0,32.000000
-36,7,54,1634891695.0,32.000000
-35,7,54,1634891695.0,32.000000
-35,7,54,1634891695.0,32.000000
-35,7,54,1634891695.0,32.000000
-35,7,54,1634891695.0,32.000000
-36,7,54,1634891695.0,32.000000
-36,7,54,1634891695.0,32.000000
-36,7,54,1634891695.0,32.000000
-36,7,54,1634891695.0,32.000000
-36,7,54,1634891695.0,32.000000
-36,7,54,1634891695.0,32.000000
-36,7,54,1634891695.0,32.000000
-36,7,54,1634891695.0,32.000000
-36,7,54,1634891695.0,32.000000
-36,7,54,1634891695.0,32.000000
-36,7,54,1634891695.0,32.000000
-36,7,54,1634891695.0,32.000000
-36,7,54,1634891695.0,32.000000
-36,7,54,1634891695.0,32.000000
-36,7,54,1634891695.0,32.000000
-36,7,54,1634891695.0,32.000000
-36,7,54,1634891695.0,32.000000
-36,7,54,1634891695.0,32.000000
-36,7,54,1634891695.0,32.000000
-36,7,54,1634891695.0,32.000000
-35,7,54,1634891695.0,32.000000
-35,7,54,1634891695.0,32.000000
-36,7,54,1634891695.0,32.000000
-36,7,54,1634891695.0,32.000000
-36,7,54,1634891695.0,32.000000
-36,7,54,1634891695.0,32.000000
-37,7,54,1634891695.0,32.000000
-36,7,54,1634891695.0,32.000000
-35,7,54,1634891695.0,32.000000
-36,7,54,1634891695.0,32.000000
-36,7,54,1634891695.0,32.000000
-37,7,53,1634891695.0,32.000000
-36,7,54,1634891695.0,32.000000
-36,7,54,1634891695.0,32.000000
-36,7,54,1634891695.0,32.000000
-36,7,53,1634891695.0,32.000000
-36,7,54,1634891695.0,32.000000
-36,7,54,1634891695.0,32.000000
-36,7,54,1634891695.0,32.000000
-36,7,54,1634891695.0,32.000000
-36,7,54,1634891695.0,32.000000
-36,7,54,1634891695.0,32.000000
-36,7,54,1634891695.0,32.000000
-36,7,54,1634891695.0,32.000000
-36,7,54,1634891695.0,32.000000
-36,7,54,1634891695.0,32.000000
-36,7,54,1634891695.0,32.000000
-36,7,54,1634891695.0,32.000000
-36,7,54,1634891695.0,32.000000
-36,7,54,1634891695.0,32.000000
-36,7,54,1634891695.0,32.000000
-36,7,54,1634891695.0,32.000000
-35,7,54,1634891695.0,32.000000
-35,7,54,1634891695.0,32.000000
-36,7,54,1634891695.0,32.000000
-36,7,54,1634891695.0,32.000000
-36,7,54,1634891695.0,32.000000
-35,7,54,1634891695.0,32.000000
-36,7,54,1634891695.0,32.000000
-36,7,54,1634891695.0,32.000000
-36,7,54,1634891695.0,32.000000
-36,7,54,1634891695.0,32.000000
-36,7,54,1634891695.0,32.000000
-36,7,54,1634891695.0,32.000000
-36,7,54,1634891695.0,32.000000
-36,7,54,1634891695.0,32.000000
-36,7,54,1634891695.0,32.000000
-35,7,54,1634891695.0,32.000000
-36,7,54,1634891695.0,32.000000
-36,7,54,1634891695.0,32.000000
-36,7,54,1634891695.0,32.000000
-36,7,54,1634891695.0,32.000000
-36,7,54,1634891695.0,32.000000
-36,7,54,1634891695.0,32.000000
-36,7,54,1634891695.0,32.000000
-36,7,54,1634891695.0,32.000000
-36,7,54,1634891695.0,32.000000
-36,7,54,1634891695.0,32.000000
-36,7,54,1634891695.0,32.000000
-36,7,54,1634891695.0,32.000000
-36,7,54,1634891695.0,32.000000
-36,7,54,1634891695.0,32.000000
-36,7,54,1634891695.0,32.000000
-36,7,54,1634891695.0,32.000000
-36,7,54,1634891695.0,32.000000
-36,7,54,1634891695.0,32.000000
-36,7,54,1634891695.0,32.000000
-36,7,54,1634891695.0,32.000000
-36,7,54,1634891695.0,32.000000
-36,7,54,1634891695.0,32.000000
-35,7,54,1634891695.0,32.000000
-36,7,54,1634891695.0,32.000000
-36,7,54,1634891695.0,32.000000
-36,7,54,1634891695.0,32.000000
-36,7,54,1634891695.0,32.000000
-35,7,54,1634891695.0,32.000000
-36,7,54,1634891695.0,32.000000
-36,7,54,1634891695.0,32.000000
-35,7,54,1634891695.0,32.000000
-36,7,54,1634891695.0,32.000000
-36,7,54,1634891695.0,32.000000
-36,7,54,1634891695.0,32.000000
-36,7,54,1634891695.0,32.000000
-36,7,54,1634891695.0,32.000000
-36,7,54,1634891695.0,32.000000
-36,7,54,1634891695.0,32.000000
-35,7,54,1634891695.0,32.000000
-35,7,54,1634891695.0,32.000000
-36,7,54,1634891695.0,32.000000
-36,7,54,1634891695.0,32.000000
-35,7,54,1634891695.0,32.000000
-36,7,54,1634891695.0,32.000000
-36,7,54,1634891695.0,32.000000
-36,7,54,1634891695.0,32.000000
-36,7,54,1634891695.0,32.000000
-35,7,54,1634891695.0,32.000000
-35,7,54,1634891695.0,32.000000
-36,7,54,1634891695.0,32.000000
-36,7,54,1634891695.0,32.000000
-36,7,54,1634891695.0,32.000000
-35,7,54,1634891695.0,32.000000
-36,7,54,1634891695.0,32.000000
-36,7,54,1634891695.0,32.000000
-36,7,54,1634891695.0,32.000000
-35,7,54,1634891695.0,32.000000
-36,7,54,1634891695.0,32.000000
-36,7,54,1634891695.0,32.000000
-36,7,54,1634891695.0,32.000000
-36,7,54,1634891695.0,32.000000
-36,7,54,1634891695.0,32.000000
-36,7,54,1634891695.0,32.000000
-35,7,54,1634891695.0,32.000000
-35,7,55,1634891695.0,32.000000
-34,7,55,1634891695.0,32.000000
-35,7,54,1634891695.0,32.000000
-35,7,54,1634891695.0,32.000000
-35,7,54,1634891695.0,32.000000
-35,7,54,1634891695.0,32.000000
-35,7,55,1634891695.0,32.000000
-35,7,54,1634891695.0,32.000000
-35,7,54,1634891695.0,32.000000
-35,7,55,1634891695.0,32.000000
-35,7,54,1634891695.0,32.000000
-35,7,54,1634891695.0,32.000000
-35,7,54,1634891695.0,32.000000
-35,7,54,1634891695.0,32.000000
-35,7,54,1634891695.0,32.000000
-35,7,54,1634891695.0,32.000000
-35,7,54,1634891695.0,32.000000
-36,7,54,1634891695.0,32.000000
-36,7,54,1634891695.0,32.000000
-36,7,54,1634891695.0,32.000000
-35,7,54,1634891695.0,32.000000
-35,7,54,1634891695.0,32.000000
-35,7,54,1634891695.0,32.000000
-35,7,54,1634891695.0,32.000000
-35,7,54,1634891695.0,32.000000
-36,7,54,1634891695.0,32.000000
-35,7,54,1634891695.0,32.000000
-35,7,54,1634891695.0,32.000000
-35,7,54,1634891695.0,32.000000
-36,7,54,1634891695.0,32.000000
-36,7,54,1634891695.0,32.000000
-35,7,54,1634891695.0,32.000000
-36,7,54,1634891695.0,32.000000
-36,7,54,1634891695.0,32.000000
-35,7,54,1634891695.0,32.000000
-35,7,54,1634891695.0,32.000000
-35,7,54,1634891695.0,32.000000
-35,7,54,1634891695.0,32.000000
-36,7,54,1634891695.0,32.000000
-35,7,54,1634891695.0,32.000000
-35,7,54,1634891695.0,32.000000
-35,7,54,1634891695.0,32.000000
-36,7,54,1634891695.0,32.000000
-36,7,54,1634891695.0,32.000000
-35,7,54,1634891695.0,32.000000
-35,7,54,1634891695.0,32.000000
-35,7,54,1634891695.0,32.000000
-35,7,54,1634891695.0,32.000000
-36,7,54,1634891695.0,32.000000
-35,7,54,1634891695.0,32.000000
-35,7,54,1634891695.0,32.000000
-35,7,54,1634891695.0,32.000000
-35,7,54,1634891695.0,32.000000
-35,7,54,1634891695.0,32.000000
-35,7,54,1634891695.0,32.000000
-35,7,54,1634891695.0,32.000000
-35,7,54,1634891695.0,32.000000
-35,7,54,1634891695.0,32.000000
-35,7,54,1634891695.0,32.000000
-36,7,54,1634891695.0,32.000000
-36,7,54,1634891695.0,32.000000
-35,7,54,1634891695.0,32.000000
-35,7,54,1634891695.0,32.000000
-35,7,54,1634891695.0,32.000000
-36,7,54,1634891695.0,32.000000
-36,7,54,1634891695.0,32.000000
-36,7,54,1634891695.0,32.000000
-35,7,54,1634891695.0,32.000000
-35,7,54,1634891695.0,32.000000
-35,7,54,1634891695.0,32.000000
-36,7,54,1634891695.0,32.000000
-35,7,54,1634891695.0,32.000000
-35,7,54,1634891695.0,32.000000
-35,7,54,1634891695.0,32.000000
-35,7,54,1634891695.0,32.000000
-36,7,54,1634891695.0,32.000000
-36,7,54,1634891695.0,32.000000
-35,6,54,1634891695.0,32.000000
-35,7,54,1634891695.0,32.000000
-35,7,54,1634891695.0,32.000000
-35,7,54,1634891695.0,32.000000
-36,7,54,1634891695.0,32.000000
-35,7,54,1634891695.0,32.000000
-35,7,54,1634891695.0,32.000000
-36,7,54,1634891695.0,32.000000
-35,7,54,1634891695.0,32.000000
-35,7,54,1634891695.0,32.000000
-36,7,54,1634891695.0,32.000000
-36,7,54,1634891695.0,32.000000
-36,7,54,1634891695.0,32.000000
-35,7,54,1634891695.0,32.000000
-35,7,54,1634891695.0,32.000000
-35,7,54,1634891695.0,32.000000
-35,7,54,1634891695.0,32.000000
-35,7,54,1634891695.0,32.000000
-35,7,54,1634891695.0,32.000000
-35,7,54,1634891695.0,32.000000
-35,7,54,1634891695.0,32.000000
-35,7,54,1634891695.0,32.000000
-35,7,54,1634891695.0,32.000000
-36,7,54,1634891695.0,32.000000
-35,7,54,1634891695.0,32.000000
-36,7,54,1634891695.0,32.000000
-36,7,54,1634891695.0,32.000000
-36,7,54,1634891695.0,32.000000
-36,7,54,1634891695.0,32.000000
-36,7,54,1634891695.0,32.000000
-36,7,54,1634891695.0,32.000000
-36,7,54,1634891695.0,32.000000
-36,7,54,1634891695.0,32.000000
-36,7,54,1634891695.0,32.000000
-36,7,54,1634891695.0,32.000000
-36,7,54,1634891695.0,32.000000
-36,7,54,1634891695.0,32.000000
-35,7,54,1634891695.0,32.000000
-36,7,54,1634891695.0,32.000000
-36,7,54,1634891695.0,32.000000
-36,7,54,1634891695.0,32.000000
-36,7,54,1634891695.0,32.000000
-36,7,54,1634891695.0,32.000000
-36,7,54,1634891695.0,32.000000
-35,7,54,1634891695.0,32.000000
-36,7,54,1634891695.0,32.000000
-36,7,54,1634891695.0,32.000000
-36,7,53,1634891695.0,32.000000
-36,7,54,1634891695.0,32.000000
-36,7,54,1634891695.0,32.000000
-36,7,54,1634891695.0,32.000000
-36,7,54,1634891695.0,32.000000
-37,7,53,1634891695.0,32.000000
-35,7,54,1634891695.0,32.000000
-35,7,54,1634891695.0,32.000000
-36,7,53,1634891695.0,32.000000
-36,7,54,1634891695.0,32.000000
-36,7,54,1634891695.0,32.000000
-36,7,54,1634891695.0,32.000000
-36,7,54,1634891695.0,32.000000
-36,7,54,1634891695.0,32.000000
-36,7,54,1634891695.0,32.000000
-36,7,54,1634891695.0,32.000000
-37,7,53,1634891695.0,32.000000
-37,7,53,1634891695.0,32.000000
-36,7,54,1634891695.0,32.000000
-36,7,54,1634891695.0,32.000000
-35,7,54,1634891695.0,32.000000
-36,8,54,1634891695.0,32.000000
-36,7,53,1634891695.0,32.000000
-36,7,54,1634891695.0,32.000000
-35,7,54,1634891695.0,32.000000
-35,7,54,1634891695.0,32.000000
-36,7,54,1634891695.0,32.000000
-36,7,54,1634891695.0,32.000000
-36,7,54,1634891695.0,32.000000
-35,7,54,1634891695.0,32.000000
-36,7,54,1634891695.0,32.000000
-37,7,53,1634891695.0,32.000000
-37,7,53,1634891695.0,32.000000
-36,7,54,1634891695.0,32.000000
-36,7,54,1634891695.0,32.000000
-36,7,53,1634891695.0,32.000000
-36,7,54,1634891695.0,32.000000
-37,8,53,1634891695.0,32.000000
-37,7,54,1634891695.0,32.000000
-37,8,53,1634891695.0,32.000000
-37,8,53,1634891695.0,32.000000
-36,7,53,1634891695.0,32.000000
-36,7,54,1634891695.0,32.000000
-36,7,54,1634891695.0,32.000000
-37,7,54,1634891695.0,32.000000
-37,7,54,1634891695.0,32.000000
-36,7,54,1634891695.0,32.000000
-35,7,55,1634891695.0,32.000000
-34,6,55,1634891695.0,32.000000
-34,6,55,1634891695.0,32.000000
-34,6,55,1634891695.0,32.000000
-35,6,54,1634891695.0,32.000000
-35,8,54,1634891695.0,32.000000
-34,7,55,1634891695.0,32.000000
-34,7,55,1634891695.0,32.000000
-35,7,55,1634891695.0,32.000000
-35,7,55,1634891695.0,32.000000
-35,7,55,1634891695.0,32.000000
-35,7,54,1634891695.0,32.000000
-36,7,54,1634891695.0,32.000000
-36,7,54,1634891695.0,32.000000
-36,7,54,1634891695.0,32.000000
-36,7,54,1634891695.0,32.000000
-36,7,54,1634891695.0,32.000000
-36,7,54,1634891695.0,32.000000
-36,7,54,1634891695.0,32.000000
-36,7,54,1634891695.0,32.000000
-36,7,54,1634891695.0,32.000000
-36,7,54,1634891695.0,32.000000
-36,7,54,1634891695.0,32.000000
-36,7,54,1634891695.0,32.000000
-35,7,54,1634891695.0,32.000000
-36,7,54,1634891695.0,32.000000
-35,7,54,1634891695.0,32.000000
-36,7,54,1634891695.0,32.000000
-36,7,54,1634891695.0,32.000000
-36,7,54,1634891695.0,32.000000
-35,7,54,1634891695.0,32.000000
-36,7,54,1634891695.0,32.000000
-35,7,54,1634891695.0,32.000000
-35,7,54,1634891695.0,32.000000
-36,7,54,1634891695.0,32.000000
-36,7,54,1634891695.0,32.000000
-36,7,54,1634891695.0,32.000000
-35,7,54,1634891695.0,32.000000
-35,7,54,1634891695.0,32.000000
-36,7,54,1634891695.0,32.000000
-35,7,54,1634891695.0,32.000000
-36,7,54,1634891695.0,32.000000
-36,7,54,1634891695.0,32.000000
-35,7,54,1634891695.0,32.000000
-36,7,54,1634891695.0,32.000000
-36,7,54,1634891695.0,32.000000
-36,7,54,1634891695.0,32.000000
-35,7,54,1634891695.0,32.000000
-35,7,54,1634891695.0,32.000000
-35,8,54,1634891695.0,32.000000
-35,7,55,1634891695.0,32.000000
-36,7,54,1634891695.0,32.000000
-35,7,54,1634891695.0,32.000000
-35,8,54,1634891695.0,32.000000
-34,8,56,1634891695.0,32.000000
-33,9,56,1634891695.0,32.000000
-34,10,56,1634891695.0,32.000000
-36,9,54,1634891695.0,32.000000
-38,7,54,1634891695.0,32.000000
-34,6,58,1634891695.0,32.000000
-33,7,53,1634891695.0,32.000000
-29,7,54,1634891695.0,32.000000
-31,8,58,1634891695.0,32.000000
-30,8,57,1634891695.0,32.000000
-32,8,56,1634891695.0,32.000000
-35,8,57,1634891695.0,32.000000
-32,10,57,1634891695.0,32.000000
-31,9,52,1634891695.0,32.000000
-32,9,54,1634891695.0,32.000000
-32,9,58,1634891695.0,32.000000
-30,9,58,1634891695.0,32.000000
-30,9,58,1634891695.0,32.000000
-31,9,57,1634891695.0,32.000000
-31,9,56,1634891695.0,32.000000
-31,9,57,1634891695.0,32.000000
-30,9,57,1634891695.0,32.000000
-30,9,57,1634891695.0,32.000000
-31,8,57,1634891695.0,32.000000
-31,8,56,1634891695.0,32.000000
-31,8,57,1634891695.0,32.000000
-31,8,56,1634891695.0,32.000000
-31,8,56,1634891695.0,32.000000
-30,8,57,1634891695.0,32.000000
-31,8,57,1634891695.0,32.000000
-31,8,56,1634891695.0,32.000000
-31,8,56,1634891695.0,32.000000
-32,7,57,1634891695.0,32.000000
-28,8,58,1634891695.0,32.000000
-29,9,56,1634891695.0,32.000000
-30,8,58,1634891695.0,32.000000
-30,7,58,1634891695.0,32.000000
-29,8,57,1634891695.0,32.000000
-34,7,56,1634891695.0,32.000000
-29,9,56,1634891695.0,32.000000
-29,9,55,1634891695.0,32.000000
-31,8,57,1634891695.0,32.000000
-30,8,57,1634891695.0,32.000000
-31,8,57,1634891695.0,32.000000
-31,8,56,1634891695.0,32.000000
-30,7,58,1634891695.0,32.000000
-29,8,58,1634891695.0,32.000000
-30,8,58,1634891695.0,32.000000
-30,8,55,1634891695.0,32.000000
-31,7,60,1634891695.0,32.000000
-30,8,57,1634891695.0,32.000000
-30,8,55,1634891695.0,32.000000
-29,7,57,1634891695.0,32.000000
-29,8,57,1634891695.0,32.000000
-32,7,57,1634891695.0,32.000000
-31,7,56,1634891695.0,32.000000
-30,8,60,1634891695.0,32.000000
-29,8,56,1634891695.0,32.000000
-30,8,57,1634891695.0,32.000000
-32,9,55,1634891695.0,32.000000
-31,7,60,1634891695.0,32.000000
-32,7,57,1634891695.0,32.000000
-25,7,59,1634891695.0,32.000000
-30,8,57,1634891695.0,32.000000
-31,8,56,1634891695.0,32.000000
-31,8,56,1634891695.0,32.000000
-31,8,57,1634891695.0,32.000000
-29,7,59,1634891695.0,32.000000
-30,8,56,1634891695.0,32.000000
-30,8,57,1634891695.0,32.000000
-30,8,57,1634891695.0,32.000000
-32,7,53,1634891695.0,32.000000
-31,7,61,1634891695.0,32.000000
-32,7,56,1634891695.0,32.000000
-32,8,56,1634891695.0,32.000000
-30,9,54,1634891695.0,32.000000
-30,8,57,1634891695.0,32.000000
-29,8,58,1634891695.0,32.000000
-31,8,56,1634891695.0,32.000000
-30,8,59,1634891695.0,32.000000
-29,8,57,1634891695.0,32.000000
-30,8,56,1634891695.0,32.000000
-31,8,57,1634891695.0,32.000000
-31,9,56,1634891695.0,32.000000
-30,8,56,1634891695.0,32.000000
-31,8,57,1634891695.0,32.000000
-28,8,59,1634891695.0,32.000000
-28,8,57,1634891695.0,32.000000
-30,7,57,1634891695.0,32.000000
-30,7,59,1634891695.0,32.000000
-29,9,56,1634891695.0,32.000000
-33,8,56,1634891695.0,32.000000
-32,8,58,1634891695.0,32.000000
-30,8,59,1634891695.0,32.000000
-32,7,66,1634891695.0,32.000000
-28,9,59,1634891695.0,32.000000
-31,11,49,1634891695.0,32.000000
-34,9,48,1634891695.0,32.000000
-34,8,46,1634891695.0,32.000000
-28,9,54,1634891695.0,32.000000
-28,9,56,1634891695.0,32.000000
-34,10,65,1634891695.0,32.000000
-33,9,57,1634891695.0,32.000000
-29,7,56,1634891695.0,32.000000
-30,8,57,1634891695.0,32.000000
-31,8,56,1634891695.0,32.000000
-31,8,56,1634891695.0,32.000000
-31,8,58,1634891695.0,32.000000
-31,7,57,1634891695.0,32.000000
-31,8,57,1634891695.0,32.000000
-30,8,57,1634891695.0,32.000000
-30,8,57,1634891695.0,32.000000
-30,8,57,1634891695.0,32.000000
-30,8,57,1634891695.0,32.000000
-30,7,57,1634891695.0,32.000000
-30,8,57,1634891695.0,32.000000
-30,8,57,1634891695.0,32.000000
-31,7,57,1634891695.0,32.000000
-31,8,57,1634891695.0,32.000000
-31,8,57,1634891695.0,32.000000
-30,7,57,1634891695.0,32.000000
-30,7,57,1634891695.0,32.000000
-30,8,57,1634891695.0,32.000000
-30,7,57,1634891695.0,32.000000
-30,7,57,1634891695.0,32.000000
-31,8,57,1634891695.0,32.000000
-31,8,57,1634891695.0,32.000000
-31,8,57,1634891695.0,32.000000
-31,8,56,1634891695.0,32.000000
-30,8,57,1634891695.0,32.000000
-30,8,57,1634891695.0,32.000000
-30,8,57,1634891695.0,32.000000
-30,7,57,1634891695.0,32.000000
-31,7,57,1634891695.0,32.000000
-31,8,57,1634891695.0,32.000000
-30,8,57,1634891695.0,32.000000
-30,8,57,1634891695.0,32.000000
-30,8,57,1634891695.0,32.000000
-31,8,57,1634891695.0,32.000000
-30,8,57,1634891695.0,32.000000
-30,8,57,1634891695.0,32.000000
-31,7,57,1634891695.0,32.000000
-31,8,57,1634891695.0,32.000000
-30,8,57,1634891695.0,32.000000
-31,7,57,1634891695.0,32.000000
-30,8,57,1634891695.0,32.000000
-31,8,57,1634891695.0,32.000000
-30,8,57,1634891695.0,32.000000
-30,8,57,1634891695.0,32.000000
-31,8,56,1634891695.0,32.000000
-31,8,57,1634891695.0,32.000000
-30,8,57,1634891695.0,32.000000
-30,8,57,1634891695.0,32.000000
-31,8,57,1634891695.0,32.000000
-31,8,57,1634891695.0,32.000000
-31,8,57,1634891695.0,32.000000
-30,8,57,1634891695.0,32.000000
-30,8,57,1634891695.0,32.000000
-30,8,57,1634891695.0,32.000000
-31,8,57,1634891695.0,32.000000
-31,8,57,1634891695.0,32.000000
-31,8,57,1634891695.0,32.000000
-31,8,57,1634891695.0,32.000000
-30,8,57,1634891695.0,32.000000
-31,8,57,1634891695.0,32.000000
-31,7,57,1634891695.0,32.000000
-31,8,57,1634891695.0,32.000000
-31,8,57,1634891695.0,32.000000
-31,8,57,1634891695.0,32.000000
-31,8,57,1634891695.0,32.000000
-31,8,57,1634891695.0,32.000000
-31,8,57,1634891695.0,32.000000
-31,8,56,1634891695.0,32.000000
-31,8,57,1634891695.0,32.000000
-31,8,57,1634891695.0,32.000000
-31,8,56,1634891695.0,32.000000
-31,8,57,1634891695.0,32.000000
-31,8,57,1634891695.0,32.000000
-31,8,57,1634891695.0,32.000000
-31,8,57,1634891695.0,32.000000
-31,8,57,1634891695.0,32.000000
-31,8,57,1634891695.0,32.000000
-31,8,57,1634891695.0,32.000000
-31,8,57,1634891695.0,32.000000
-31,8,57,1634891695.0,32.000000
-31,8,57,1634891695.0,32.000000
-31,8,57,1634891695.0,32.000000
-32,8,56,1634891695.0,32.000000
-32,8,56,1634891695.0,32.000000
-31,8,56,1634891695.0,32.000000
-31,8,56,1634891695.0,32.000000
-31,8,57,1634891695.0,32.000000
-31,8,56,1634891695.0,32.000000
-31,8,56,1634891695.0,32.000000
-31,8,57,1634891695.0,32.000000
-31,8,57,1634891695.0,32.000000
-31,8,57,1634891695.0,32.000000
-31,8,57,1634891695.0,32.000000
-31,8,57,1634891695.0,32.000000
-32,8,56,1634891695.0,32.000000
-31,8,56,1634891695.0,32.000000
-31,8,57,1634891695.0,32.000000
-31,7,57,1634891695.0,32.000000
-31,7,57,1634891695.0,32.000000
-31,8,56,1634891695.0,32.000000
-32,8,56,1634891695.0,32.000000
-32,8,56,1634891695.0,32.000000
-31,8,57,1634891695.0,32.000000
-30,8,57,1634891695.0,32.000000
-31,8,56,1634891695.0,32.000000
-32,8,56,1634891695.0,32.000000
-32,8,56,1634891695.0,32.000000
-31,8,57,1634891695.0,32.000000
-31,7,57,1634891695.0,32.000000
-31,8,57,1634891695.0,32.000000
-31,8,56,1634891695.0,32.000000
-31,8,56,1634891695.0,32.000000
-31,8,56,1634891695.0,32.000000
-31,8,56,1634891695.0,32.000000
-31,8,56,1634891695.0,32.000000
-31,8,56,1634891695.0,32.000000
-32,8,56,1634891695.0,32.000000
-31,8,56,1634891695.0,32.000000
-31,8,57,1634891695.0,32.000000
-31,8,57,1634891695.0,32.000000
-31,8,56,1634891695.0,32.000000
-31,8,57,1634891695.0,32.000000
-32,8,56,1634891695.0,32.000000
-32,7,56,1634891695.0,32.000000
-32,8,56,1634891695.0,32.000000
-31,8,57,1634891695.0,32.000000
-31,8,57,1634891695.0,32.000000
-32,8,56,1634891695.0,32.000000
-31,8,57,1634891695.0,32.000000
-31,8,57,1634891695.0,32.000000
-31,9,57,1634891695.0,32.000000
-31,8,57,1634891695.0,32.000000
-31,8,57,1634891695.0,32.000000
-31,8,57,1634891695.0,32.000000
-31,8,57,1634891695.0,32.000000
-31,8,56,1634891695.0,32.000000
-31,8,56,1634891695.0,32.000000
-32,8,56,1634891695.0,32.000000
-31,8,57,1634891695.0,32.000000
-31,8,57,1634891695.0,32.000000
-32,8,56,1634891695.0,32.000000
-32,8,56,1634891695.0,32.000000
-31,7,56,1634891695.0,32.000000
-31,8,57,1634891695.0,32.000000
-31,8,56,1634891695.0,32.000000
-31,8,57,1634891695.0,32.000000
-32,8,56,1634891695.0,32.000000
-32,8,56,1634891695.0,32.000000
-32,7,56,1634891695.0,32.000000
-32,7,57,1634891695.0,32.000000
-31,7,56,1634891695.0,32.000000
-31,7,57,1634891695.0,32.000000
-32,8,56,1634891695.0,32.000000
-32,8,56,1634891695.0,32.000000
-32,8,56,1634891695.0,32.000000
-31,8,57,1634891695.0,32.000000
-31,8,57,1634891695.0,32.000000
-32,8,56,1634891695.0,32.000000
-32,7,56,1634891695.0,32.000000
-32,7,56,1634891695.0,32.000000
-31,8,56,1634891695.0,32.000000
-31,8,57,1634891695.0,32.000000
-32,8,56,1634891695.0,32.000000
-31,8,56,1634891695.0,32.000000
-31,8,57,1634891695.0,32.000000
-31,8,57,1634891695.0,32.000000
-31,8,56,1634891695.0,32.000000
-32,8,56,1634891695.0,32.000000
-32,8,56,1634891695.0,32.000000
-31,8,56,1634891695.0,32.000000
-31,7,57,1634891695.0,32.000000
-32,7,56,1634891695.0,32.000000
-32,8,56,1634891695.0,32.000000
-32,8,57,1634891695.0,32.000000
-31,8,56,1634891695.0,32.000000
-31,8,56,1634891695.0,32.000000
-31,8,56,1634891695.0,32.000000
-31,8,56,1634891695.0,32.000000
-32,8,56,1634891695.0,32.000000
-31,8,57,1634891695.0,32.000000
-32,7,57,1634891695.0,32.000000
-31,8,56,1634891695.0,32.000000
-31,7,56,1634891695.0,32.000000
-31,8,57,1634891695.0,32.000000
-32,8,56,1634891695.0,32.000000
-32,8,56,1634891695.0,32.000000
-31,8,57,1634891695.0,32.000000
-31,8,56,1634891695.0,32.000000
-31,8,56,1634891695.0,32.000000
-31,8,56,1634891695.0,32.000000
-32,8,56,1634891695.0,32.000000
-31,8,57,1634891695.0,32.000000
-31,8,57,1634891695.0,32.000000
-31,8,56,1634891695.0,32.000000
-31,8,56,1634891695.0,32.000000
-31,7,56,1634891695.0,32.000000
-31,8,56,1634891695.0,32.000000
-31,8,57,1634891695.0,32.000000
-31,8,56,1634891695.0,32.000000
-32,8,56,1634891695.0,32.000000
-31,8,57,1634891695.0,32.000000
-31,8,56,1634891695.0,32.000000
-32,8,56,1634891695.0,32.000000
-32,7,56,1634891695.0,32.000000
-31,8,57,1634891695.0,32.000000
-31,8,57,1634891695.0,32.000000
-31,8,56,1634891695.0,32.000000
-32,8,56,1634891695.0,32.000000
-31,8,56,1634891695.0,32.000000
-31,7,57,1634891695.0,32.000000
-31,8,57,1634891695.0,32.000000
-31,8,57,1634891695.0,32.000000
-31,8,56,1634891695.0,32.000000
-32,8,56,1634891695.0,32.000000
-31,8,57,1634891695.0,32.000000
-31,7,56,1634891695.0,32.000000
-31,8,56,1634891695.0,32.000000
-31,8,57,1634891695.0,32.000000
-32,8,56,1634891695.0,32.000000
-31,7,56,1634891695.0,32.000000
-32,8,56,1634891695.0,32.000000
-31,8,56,1634891695.0,32.000000
-31,8,56,1634891695.0,32.000000
-32,8,56,1634891695.0,32.000000
-32,8,56,1634891695.0,32.000000
-31,8,56,1634891695.0,32.000000
-31,8,56,1634891695.0,32.000000
-32,8,56,1634891695.0,32.000000
-32,8,56,1634891695.0,32.000000
-31,8,57,1634891695.0,32.000000
-31,8,56,1634891695.0,32.000000
-31,7,56,1634891695.0,32.000000
-31,8,56,1634891695.0,32.000000
-32,8,57,1634891695.0,32.000000
-32,8,56,1634891695.0,32.000000
-31,8,56,1634891695.0,32.000000
-31,8,56,1634891695.0,32.000000
-31,7,57,1634891695.0,32.000000
-31,8,56,1634891695.0,32.000000
-32,8,56,1634891695.0,32.000000
-32,8,56,1634891695.0,32.000000
-32,8,56,1634891695.0,32.000000
-31,8,56,1634891695.0,32.000000
-32,8,56,1634891695.0,32.000000
-32,8,56,1634891695.0,32.000000
-31,9,57,1634891695.0,32.000000
-32,8,56,1634891695.0,32.000000
-33,8,56,1634891695.0,32.000000
-30,8,57,1634891695.0,32.000000
-29,7,58,1634891695.0,32.000000
-30,7,57,1634891695.0,32.000000
-32,8,56,1634891695.0,32.000000
-31,8,57,1634891695.0,32.000000
-30,8,57,1634891695.0,32.000000
-31,8,57,1634891695.0,32.000000
-31,8,57,1634891695.0,32.000000
-31,8,56,1634891695.0,32.000000
-30,8,57,1634891695.0,32.000000
-30,8,57,1634891695.0,32.000000
-30,8,57,1634891695.0,32.000000
-31,8,57,1634891695.0,32.000000
-31,8,56,1634891695.0,32.000000
-32,9,56,1634891695.0,32.000000
-27,7,58,1634891695.0,32.000000
-29,8,57,1634891695.0,32.000000
-32,9,56,1634891695.0,32.000000
-34,8,55,1634891695.0,32.000000
-31,8,57,1634891695.0,32.000000
-27,8,58,1634891695.0,32.000000
-31,8,56,1634891695.0,32.000000
-33,8,56,1634891695.0,32.000000
-32,8,56,1634891695.0,32.000000
-30,8,57,1634891695.0,32.000000
-30,8,57,1634891695.0,32.000000
-30,8,57,1634891695.0,32.000000
-31,8,57,1634891695.0,32.000000
-31,8,56,1634891695.0,32.000000
-32,8,56,1634891695.0,32.000000
-31,8,56,1634891695.0,32.000000
-31,8,57,1634891695.0,32.000000
-31,8,56,1634891695.0,32.000000
-32,8,56,1634891695.0,32.000000
-31,8,57,1634891695.0,32.000000
-31,8,57,1634891695.0,32.000000
-32,8,56,1634891695.0,32.000000
-32,8,56,1634891695.0,32.000000
-32,8,56,1634891695.0,32.000000
-31,8,56,1634891695.0,32.000000
-31,8,56,1634891695.0,32.000000
-32,8,56,1634891695.0,32.000000
-32,8,56,1634891695.0,32.000000
-33,8,56,1634891695.0,32.000000
-31,8,56,1634891695.0,32.000000
-31,8,57,1634891695.0,32.000000
-32,8,56,1634891695.0,32.000000
-32,8,56,1634891695.0,32.000000
-32,8,56,1634891695.0,32.000000
-32,8,56,1634891695.0,32.000000
-31,8,56,1634891695.0,32.000000
-31,8,56,1634891695.0,32.000000
-32,8,56,1634891695.0,32.000000
-32,8,56,1634891695.0,32.000000
-32,8,56,1634891695.0,32.000000
-31,8,56,1634891695.0,32.000000
-32,8,56,1634891695.0,32.000000
-32,8,56,1634891695.0,32.000000
-32,8,56,1634891695.0,32.000000
-32,8,56,1634891695.0,32.000000
-33,8,56,1634891695.0,32.000000
-32,8,56,1634891695.0,32.000000
-32,8,56,1634891695.0,32.000000
-32,8,56,1634891695.0,32.000000
-32,8,56,1634891695.0,32.000000
-32,8,56,1634891695.0,32.000000
-32,8,56,1634891695.0,32.000000
-32,8,56,1634891695.0,32.000000
-32,8,56,1634891695.0,32.000000
-32,8,56,1634891695.0,32.000000
-32,8,56,1634891695.0,32.000000
-31,8,56,1634891695.0,32.000000
-31,8,56,1634891695.0,32.000000
-32,8,56,1634891695.0,32.000000
-32,8,56,1634891695.0,32.000000
-31,8,56,1634891695.0,32.000000
-31,8,56,1634891695.0,32.000000
-32,8,56,1634891695.0,32.000000
-32,8,56,1634891695.0,32.000000
-33,8,56,1634891695.0,32.000000
-32,8,56,1634891695.0,32.000000
-32,8,56,1634891695.0,32.000000
-32,8,56,1634891695.0,32.000000
-32,8,56,1634891695.0,32.000000
-33,8,56,1634891695.0,32.000000
-32,8,56,1634891695.0,32.000000
-32,8,56,1634891695.0,32.000000
-31,8,56,1634891695.0,32.000000
-32,8,56,1634891695.0,32.000000
-32,8,56,1634891695.0,32.000000
-32,8,56,1634891695.0,32.000000
-31,8,56,1634891695.0,32.000000
-31,8,56,1634891695.0,32.000000
-32,8,56,1634891695.0,32.000000
-31,8,56,1634891695.0,32.000000
-31,8,56,1634891695.0,32.000000
-32,8,57,1634891695.0,32.000000
-32,8,56,1634891695.0,32.000000
-32,8,56,1634891695.0,32.000000
-32,8,56,1634891695.0,32.000000
-32,8,56,1634891695.0,32.000000
-32,8,56,1634891695.0,32.000000
-31,8,56,1634891695.0,32.000000
