ACC_X,ACC_Y,ACC_Z,start_time_unix,sampling_rate
-30,-20,54,1628937049.0,32.000000
-30,-20,54,1628937049.0,32.000000
-30,-20,54,1628937049.0,32.000000
-31,-20,54,1628937049.0,32.000000
-30,-20,54,1628937049.0,32.000000
-30,-20,54,1628937049.0,32.000000
-30,-20,54,1628937049.0,32.000000
-30,-20,54,1628937049.0,32.000000
-30,-20,54,1628937049.0,32.000000
-30,-20,54,1628937049.0,32.000000
-30,-20,54,1628937049.0,32.000000
-30,-20,54,1628937049.0,32.000000
-30,-20,54,1628937049.0,32.000000
-30,-20,54,1628937049.0,32.000000
-30,-20,54,1628937049.0,32.000000
-31,-20,54,1628937049.0,32.000000
-31,-20,54,1628937049.0,32.000000
-30,-20,54,1628937049.0,32.000000
-31,-20,54,1628937049.0,32.000000
-30,-20,54,1628937049.0,32.000000
-30,-20,54,1628937049.0,32.000000
-31,-20,54,1628937049.0,32.000000
-30,-20,54,1628937049.0,32.000000
-31,-20,54,1628937049.0,32.000000
-31,-20,54,1628937049.0,32.000000
-31,-20,54,1628937049.0,32.000000
-30,-20,54,1628937049.0,32.000000
-31,-20,54,1628937049.0,32.000000
-31,-20,54,1628937049.0,32.000000
-31,-20,54,1628937049.0,32.000000
-31,-20,54,1628937049.0,32.000000
-31,-20,54,1628937049.0,32.000000
-31,-20,54,1628937049.0,32.000000
-31,-20,53,1628937049.0,32.000000
-31,-20,54,1628937049.0,32.000000
-31,-20,54,1628937049.0,32.000000
-31,-20,54,1628937049.0,32.000000
-31,-20,54,1628937049.0,32.000000
-31,-20,54,1628937049.0,32.000000
-31,-20,54,1628937049.0,32.000000
-31,-20,54,1628937049.0,32.000000
-31,-20,54,1628937049.0,32.000000
-30,-20,54,1628937049.0,32.000000
-31,-20,54,1628937049.0,32.000000
-31,-20,54,1628937049.0,32.000000
-31,-20,54,1628937049.0,32.000000
-30,-20,54,1628937049.0,32.000000
-31,-20,54,1628937049.0,32.000000
-31,-20,54,1628937049.0,32.000000
-31,-20,54,1628937049.0,32.000000
-31,-20,54,1628937049.0,32.000000
-31,-20,54,1628937049.0,32.000000
-31,-20,54,1628937049.0,32.000000
-31,-20,54,1628937049.0,32.000000
-31,-20,54,1628937049.0,32.000000
-31,-20,54,1628937049.0,32.000000
-31,-20,54,1628937049.0,32.000000
-31,-20,55,1628937049.0,32.000000
-31,-20,55,1628937049.0,32.000000
-30,-20,55,1628937049.0,32.000000
-31,-20,53,1628937049.0,32.000000
-31,-20,54,1628937049.0,32.000000
-34,-21,52,1628937049.0,32.000000
-33,-19,53,1628937049.0,32.000000
-32,-19,53,1628937049.0,32.000000
-34,-19,52,1628937049.0,32.000000
-34,-19,52,1628937049.0,32.000000
-33,-18,53,1628937049.0,32.000000
-34,-18,52,1628937049.0,32.000000
-35,-18,52,1628937049.0,32.000000
-34,-18,53,1628937049.0,32.000000
-34,-18,54,1628937049.0,32.000000
-34,-18,53,1628937049.0,32.000000
-35,-18,52,1628937049.0,32.000000
-36,-18,52,1628937049.0,32.000000
-35,-17,52,1628937049.0,32.000000
-35,-18,52,1628937049.0,32.000000
-38,-19,51,1628937049.0,32.000000
-35,-18,51,1628937049.0,32.000000
-34,-17,52,1628937049.0,32.000000
-35,-15,52,1628937049.0,32.000000
-36,-14,52,1628937049.0,32.000000
-36,-15,53,1628937049.0,32.000000
-36,-15,54,1628937049.0,32.000000
-34,-13,54,1628937049.0,32.000000
-35,-11,53,1628937049.0,32.000000
-35,-12,52,1628937049.0,32.000000
-35,-13,50,1628937049.0,32.000000
-33,-12,53,1628937049.0,32.000000
-37,-20,47,1628937049.0,32.000000
-51,-18,41,1628937049.0,32.000000
-51,-18,35,1628937049.0,32.000000
-57,-16,58,1628937049.0,32.000000
-41,-14,69,1628937049.0,32.000000
-29,-20,62,1628937049.0,32.000000
-15,-15,64,1628937049.0,32.000000
-14,-10,67,1628937049.0,32.000000
-1,-14,73,1628937049.0,32.000000
-9,-15,66,1628937049.0,32.000000
-11,-15,56,1628937049.0,32.000000
-14,-20,54,1628937049.0,32.000000
-14,-23,54,1628937049.0,32.000000
-6,-24,55,1628937049.0,32.000000
-4,-24,55,1628937049.0,32.000000
4,-21,58,1628937049.0,32.000000
-2,-22,54,1628937049.0,32.000000
-2,-22,53,1628937049.0,32.000000
-3,-19,59,1628937049.0,32.000000
-6,-20,63,1628937049.0,32.000000
-10,-21,62,1628937049.0,32.000000
-10,-20,61,1628937049.0,32.000000
-9,-20,59,1628937049.0,32.000000
-8,-19,61,1628937049.0,32.000000
-8,-17,60,1628937049.0,32.000000
-8,-19,61,1628937049.0,32.000000
-13,-18,62,1628937049.0,32.000000
-16,-19,61,1628937049.0,32.000000
-12,-17,65,1628937049.0,32.000000
-13,-18,65,1628937049.0,32.000000
-13,-22,60,1628937049.0,32.000000
-12,-22,55,1628937049.0,32.000000
-9,-18,57,1628937049.0,32.000000
-7,-18,61,1628937049.0,32.000000
-8,-20,60,1628937049.0,32.000000
-10,-19,57,1628937049.0,32.000000
-12,-19,60,1628937049.0,32.000000
-14,-18,61,1628937049.0,32.000000
-9,-19,64,1628937049.0,32.000000
-10,-19,65,1628937049.0,32.000000
-12,-19,66,1628937049.0,32.000000
-9,-19,66,1628937049.0,32.000000
-6,-17,65,1628937049.0,32.000000
-2,-15,61,1628937049.0,32.000000
-1,-14,61,1628937049.0,32.000000
2,-14,58,1628937049.0,32.000000
-3,-13,62,1628937049.0,32.000000
-8,-19,57,1628937049.0,32.000000
-1,-13,65,1628937049.0,32.000000
-3,-14,66,1628937049.0,32.000000
2,-16,61,1628937049.0,32.000000
2,-13,61,1628937049.0,32.000000
-8,-21,61,1628937049.0,32.000000
-4,-17,65,1628937049.0,32.000000
7,-16,59,1628937049.0,32.000000
-2,-22,61,1628937049.0,32.000000
-6,-17,64,1628937049.0,32.000000
-4,-17,61,1628937049.0,32.000000
1,-15,59,1628937049.0,32.000000
0,-14,61,1628937049.0,32.000000
-2,-18,61,1628937049.0,32.000000
2,-14,64,1628937049.0,32.000000
4,-15,62,1628937049.0,32.000000
7,-13,67,1628937049.0,32.000000
2,-16,63,1628937049.0,32.000000
-6,-20,57,1628937049.0,32.000000
-9,-17,60,1628937049.0,32.000000
-7,-18,62,1628937049.0,32.000000
-1,-16,62,1628937049.0,32.000000
0,-18,60,1628937049.0,32.000000
-10,-20,58,1628937049.0,32.000000
-7,-17,62,1628937049.0,32.000000
-5,-18,63,1628937049.0,32.000000
-3,-18,62,1628937049.0,32.000000
0,-17,62,1628937049.0,32.000000
-9,-19,64,1628937049.0,32.000000
-7,-17,65,1628937049.0,32.000000
-3,-16,64,1628937049.0,32.000000
-2,-17,64,1628937049.0,32.000000
-7,-17,62,1628937049.0,32.000000
-10,-18,62,1628937049.0,32.000000
-10,-17,62,1628937049.0,32.000000
-11,-17,61,1628937049.0,32.000000
-13,-17,61,1628937049.0,32.000000
-15,-17,61,1628937049.0,32.000000
-17,-18,59,1628937049.0,32.000000
-18,-18,59,1628937049.0,32.000000
-19,-18,59,1628937049.0,32.000000
-18,-18,58,1628937049.0,32.000000
-18,-18,60,1628937049.0,32.000000
-20,-19,59,1628937049.0,32.000000
-20,-19,59,1628937049.0,32.000000
-22,-20,60,1628937049.0,32.000000
-23,-20,60,1628937049.0,32.000000
-23,-19,59,1628937049.0,32.000000
-22,-19,59,1628937049.0,32.000000
-21,-19,59,1628937049.0,32.000000
-22,-19,58,1628937049.0,32.000000
-22,-19,57,1628937049.0,32.000000
-22,-19,57,1628937049.0,32.000000
-22,-19,57,1628937049.0,32.000000
-22,-20,56,1628937049.0,32.000000
-21,-20,55,1628937049.0,32.000000
-21,-20,55,1628937049.0,32.000000
-23,-20,54,1628937049.0,32.000000
-24,-20,54,1628937049.0,32.000000
-27,-19,56,1628937049.0,32.000000
-28,-19,54,1628937049.0,32.000000
-29,-18,54,1628937049.0,32.000000
-27,-16,59,1628937049.0,32.000000
-28,-17,56,1628937049.0,32.000000
-29,-17,56,1628937049.0,32.000000
-29,-17,56,1628937049.0,32.000000
-31,-16,55,1628937049.0,32.000000
-45,-17,55,1628937049.0,32.000000
-45,-17,55,1628937049.0,32.000000
-35,-17,53,1628937049.0,32.000000
-35,-15,51,1628937049.0,32.000000
-36,-15,52,1628937049.0,32.000000
-37,-15,52,1628937049.0,32.000000
-37,-16,52,1628937049.0,32.000000
-37,-16,51,1628937049.0,32.000000
-38,-16,52,1628937049.0,32.000000
-38,-17,52,1628937049.0,32.000000
-38,-17,52,1628937049.0,32.000000
-37,-17,52,1628937049.0,32.000000
-37,-16,51,1628937049.0,32.000000
-38,-16,51,1628937049.0,32.000000
-38,-16,51,1628937049.0,32.000000
-37,-16,51,1628937049.0,32.000000
-38,-17,51,1628937049.0,32.000000
-38,-16,51,1628937049.0,32.000000
-38,-16,51,1628937049.0,32.000000
-38,-16,51,1628937049.0,32.000000
-38,-16,51,1628937049.0,32.000000
-38,-17,51,1628937049.0,32.000000
-38,-16,51,1628937049.0,32.000000
-38,-17,51,1628937049.0,32.000000
-38,-16,51,1628937049.0,32.000000
-38,-16,51,1628937049.0,32.000000
-38,-17,51,1628937049.0,32.000000
-38,-17,51,1628937049.0,32.000000
-39,-17,50,1628937049.0,32.000000
-38,-17,51,1628937049.0,32.000000
-38,-17,51,1628937049.0,32.000000
-39,-17,51,1628937049.0,32.000000
-38,-17,51,1628937049.0,32.000000
-39,-17,51,1628937049.0,32.000000
-38,-17,51,1628937049.0,32.000000
-38,-17,50,1628937049.0,32.000000
-38,-17,50,1628937049.0,32.000000
-38,-17,50,1628937049.0,32.000000
-38,-17,50,1628937049.0,32.000000
-39,-17,50,1628937049.0,32.000000
-38,-17,50,1628937049.0,32.000000
-38,-17,51,1628937049.0,32.000000
-39,-17,50,1628937049.0,32.000000
-38,-18,50,1628937049.0,32.000000
-39,-18,50,1628937049.0,32.000000
-38,-18,50,1628937049.0,32.000000
-38,-18,50,1628937049.0,32.000000
-38,-17,50,1628937049.0,32.000000
-38,-18,50,1628937049.0,32.000000
-39,-18,50,1628937049.0,32.000000
-39,-17,50,1628937049.0,32.000000
-38,-18,50,1628937049.0,32.000000
-39,-17,50,1628937049.0,32.000000
-38,-18,50,1628937049.0,32.000000
-39,-17,50,1628937049.0,32.000000
-38,-18,50,1628937049.0,32.000000
-38,-18,50,1628937049.0,32.000000
-38,-17,50,1628937049.0,32.000000
-38,-17,50,1628937049.0,32.000000
-39,-18,50,1628937049.0,32.000000
-38,-18,50,1628937049.0,32.000000
-38,-18,50,1628937049.0,32.000000
-38,-17,50,1628937049.0,32.000000
-38,-18,50,1628937049.0,32.000000
-39,-18,50,1628937049.0,32.000000
-38,-18,50,1628937049.0,32.000000
-39,-18,50,1628937049.0,32.000000
-39,-18,50,1628937049.0,32.000000
-39,-18,50,1628937049.0,32.000000
-39,-18,49,1628937049.0,32.000000
-39,-18,50,1628937049.0,32.000000
-39,-18,50,1628937049.0,32.000000
-39,-18,49,1628937049.0,32.000000
-39,-18,49,1628937049.0,32.000000
-39,-18,50,1628937049.0,32.000000
-39,-18,49,1628937049.0,32.000000
-39,-18,49,1628937049.0,32.000000
-39,-18,49,1628937049.0,32.000000
-39,-18,50,1628937049.0,32.000000
-40,-18,50,1628937049.0,32.000000
-40,-19,49,1628937049.0,32.000000
-39,-19,50,1628937049.0,32.000000
-40,-18,49,1628937049.0,32.000000
-41,-18,48,1628937049.0,32.000000
-42,-18,47,1628937049.0,32.000000
-45,-18,44,1628937049.0,32.000000
-46,-19,43,1628937049.0,32.000000
-48,-19,40,1628937049.0,32.000000
-49,-19,40,1628937049.0,32.000000
-50,-19,38,1628937049.0,32.000000
-51,-19,36,1628937049.0,32.000000
-53,-19,35,1628937049.0,32.000000
-53,-19,34,1628937049.0,32.000000
-53,-19,33,1628937049.0,32.000000
-54,-19,32,1628937049.0,32.000000
-55,-19,31,1628937049.0,32.000000
-56,-19,30,1628937049.0,32.000000
-56,-20,29,1628937049.0,32.000000
-56,-19,30,1628937049.0,32.000000
-55,-20,30,1628937049.0,32.000000
-55,-20,31,1628937049.0,32.000000
-55,-19,31,1628937049.0,32.000000
-55,-20,31,1628937049.0,32.000000
-56,-20,30,1628937049.0,32.000000
-57,-20,32,1628937049.0,32.000000
-57,-19,34,1628937049.0,32.000000
-77,-16,42,1628937049.0,32.000000
-99,-24,45,1628937049.0,32.000000
-88,-27,51,1628937049.0,32.000000
-74,-32,44,1628937049.0,32.000000
-68,-37,38,1628937049.0,32.000000
-49,-40,31,1628937049.0,32.000000
-38,-41,19,1628937049.0,32.000000
-19,-42,16,1628937049.0,32.000000
-11,-43,15,1628937049.0,32.000000
-5,-41,14,1628937049.0,32.000000
-2,-48,14,1628937049.0,32.000000
3,-46,22,1628937049.0,32.000000
7,-47,22,1628937049.0,32.000000
4,-51,17,1628937049.0,32.000000
4,-50,20,1628937049.0,32.000000
13,-49,21,1628937049.0,32.000000
11,-52,18,1628937049.0,32.000000
12,-52,27,1628937049.0,32.000000
11,-54,24,1628937049.0,32.000000
11,-55,23,1628937049.0,32.000000
10,-54,23,1628937049.0,32.000000
10,-55,22,1628937049.0,32.000000
10,-54,23,1628937049.0,32.000000
11,-55,22,1628937049.0,32.000000
13,-56,24,1628937049.0,32.000000
13,-56,24,1628937049.0,32.000000
13,-58,23,1628937049.0,32.000000
13,-58,21,1628937049.0,32.000000
13,-58,23,1628937049.0,32.000000
13,-57,23,1628937049.0,32.000000
12,-58,23,1628937049.0,32.000000
14,-58,23,1628937049.0,32.000000
15,-56,23,1628937049.0,32.000000
14,-55,22,1628937049.0,32.000000
14,-54,22,1628937049.0,32.000000
13,-54,22,1628937049.0,32.000000
13,-55,23,1628937049.0,32.000000
13,-56,23,1628937049.0,32.000000
14,-57,22,1628937049.0,32.000000
14,-57,22,1628937049.0,32.000000
15,-57,23,1628937049.0,32.000000
15,-57,23,1628937049.0,32.000000
15,-58,24,1628937049.0,32.000000
14,-58,23,1628937049.0,32.000000
14,-57,23,1628937049.0,32.000000
14,-57,22,1628937049.0,32.000000
14,-56,22,1628937049.0,32.000000
14,-56,23,1628937049.0,32.000000
15,-56,23,1628937049.0,32.000000
14,-56,22,1628937049.0,32.000000
14,-56,22,1628937049.0,32.000000
14,-57,22,1628937049.0,32.000000
13,-56,22,1628937049.0,32.000000
13,-57,22,1628937049.0,32.000000
15,-57,24,1628937049.0,32.000000
14,-57,23,1628937049.0,32.000000
15,-57,23,1628937049.0,32.000000
14,-56,22,1628937049.0,32.000000
15,-55,23,1628937049.0,32.000000
15,-56,22,1628937049.0,32.000000
14,-54,21,1628937049.0,32.000000
14,-55,21,1628937049.0,32.000000
15,-56,21,1628937049.0,32.000000
15,-55,22,1628937049.0,32.000000
13,-55,21,1628937049.0,32.000000
14,-54,22,1628937049.0,32.000000
13,-55,22,1628937049.0,32.000000
12,-55,22,1628937049.0,32.000000
12,-54,22,1628937049.0,32.000000
11,-54,22,1628937049.0,32.000000
9,-58,24,1628937049.0,32.000000
8,-56,23,1628937049.0,32.000000
8,-53,23,1628937049.0,32.000000
5,-56,25,1628937049.0,32.000000
3,-53,23,1628937049.0,32.000000
2,-52,23,1628937049.0,32.000000
-2,-56,25,1628937049.0,32.000000
-5,-51,27,1628937049.0,32.000000
-7,-51,26,1628937049.0,32.000000
-10,-52,25,1628937049.0,32.000000
-15,-54,27,1628937049.0,32.000000
-18,-54,29,1628937049.0,32.000000
-24,-51,31,1628937049.0,32.000000
-27,-50,30,1628937049.0,32.000000
-38,-50,33,1628937049.0,32.000000
-43,-48,32,1628937049.0,32.000000
-46,-49,30,1628937049.0,32.000000
-47,-48,29,1628937049.0,32.000000
-47,-47,28,1628937049.0,32.000000
-48,-41,23,1628937049.0,32.000000
-44,-36,27,1628937049.0,32.000000
-40,-33,34,1628937049.0,32.000000
-31,-27,43,1628937049.0,32.000000
-41,-23,43,1628937049.0,32.000000
-49,-23,44,1628937049.0,32.000000
-45,-20,50,1628937049.0,32.000000
-44,-17,54,1628937049.0,32.000000
-41,-15,49,1628937049.0,32.000000
-47,-13,54,1628937049.0,32.000000
-49,-20,66,1628937049.0,32.000000
-35,-19,49,1628937049.0,32.000000
-41,-18,46,1628937049.0,32.000000
-44,-19,45,1628937049.0,32.000000
-45,-19,45,1628937049.0,32.000000
-43,-18,46,1628937049.0,32.000000
-42,-17,47,1628937049.0,32.000000
-43,-18,47,1628937049.0,32.000000
-44,-19,46,1628937049.0,32.000000
-44,-19,46,1628937049.0,32.000000
-43,-19,46,1628937049.0,32.000000
-43,-19,46,1628937049.0,32.000000
-43,-18,46,1628937049.0,32.000000
-43,-18,46,1628937049.0,32.000000
-43,-18,46,1628937049.0,32.000000
-44,-19,46,1628937049.0,32.000000
-44,-19,46,1628937049.0,32.000000
-43,-19,46,1628937049.0,32.000000
-44,-19,46,1628937049.0,32.000000
-44,-19,46,1628937049.0,32.000000
-44,-19,45,1628937049.0,32.000000
-44,-19,46,1628937049.0,32.000000
-43,-19,46,1628937049.0,32.000000
-44,-19,45,1628937049.0,32.000000
-44,-19,45,1628937049.0,32.000000
-44,-19,46,1628937049.0,32.000000
-44,-19,45,1628937049.0,32.000000
-44,-19,46,1628937049.0,32.000000
-44,-19,45,1628937049.0,32.000000
-44,-19,45,1628937049.0,32.000000
-44,-19,45,1628937049.0,32.000000
-44,-19,46,1628937049.0,32.000000
-44,-19,46,1628937049.0,32.000000
-44,-19,45,1628937049.0,32.000000
-44,-19,45,1628937049.0,32.000000
-44,-19,46,1628937049.0,32.000000
-44,-19,45,1628937049.0,32.000000
-44,-19,45,1628937049.0,32.000000
-43,-19,46,1628937049.0,32.000000
-43,-18,46,1628937049.0,32.000000
-44,-18,45,1628937049.0,32.000000
-44,-19,45,1628937049.0,32.000000
-44,-19,46,1628937049.0,32.000000
-44,-19,46,1628937049.0,32.000000
-44,-19,46,1628937049.0,32.000000
-43,-18,46,1628937049.0,32.000000
-44,-18,46,1628937049.0,32.000000
-44,-18,45,1628937049.0,32.000000
-43,-18,45,1628937049.0,32.000000
-43,-18,46,1628937049.0,32.000000
-43,-18,46,1628937049.0,32.000000
-44,-18,46,1628937049.0,32.000000
-44,-18,46,1628937049.0,32.000000
-44,-18,46,1628937049.0,32.000000
-43,-18,46,1628937049.0,32.000000
-44,-18,46,1628937049.0,32.000000
-44,-18,46,1628937049.0,32.000000
-43,-18,46,1628937049.0,32.000000
-44,-18,46,1628937049.0,32.000000
-44,-18,46,1628937049.0,32.000000
-44,-18,46,1628937049.0,32.000000
-44,-18,46,1628937049.0,32.000000
-43,-18,46,1628937049.0,32.000000
-43,-18,46,1628937049.0,32.000000
-44,-18,46,1628937049.0,32.000000
-44,-18,46,1628937049.0,32.000000
-44,-18,46,1628937049.0,32.000000
-44,-18,46,1628937049.0,32.000000
-43,-18,46,1628937049.0,32.000000
-43,-18,46,1628937049.0,32.000000
-44,-19,46,1628937049.0,32.000000
-44,-19,46,1628937049.0,32.000000
-43,-18,46,1628937049.0,32.000000
-44,-19,46,1628937049.0,32.000000
-43,-18,46,1628937049.0,32.000000
-44,-18,46,1628937049.0,32.000000
-44,-18,45,1628937049.0,32.000000
-43,-18,46,1628937049.0,32.000000
-44,-18,46,1628937049.0,32.000000
-44,-18,46,1628937049.0,32.000000
-43,-18,46,1628937049.0,32.000000
-43,-19,46,1628937049.0,32.000000
-43,-18,46,1628937049.0,32.000000
-43,-18,46,1628937049.0,32.000000
-44,-18,46,1628937049.0,32.000000
-43,-18,46,1628937049.0,32.000000
-44,-19,46,1628937049.0,32.000000
-44,-19,46,1628937049.0,32.000000
-44,-18,46,1628937049.0,32.000000
-43,-19,46,1628937049.0,32.000000
-42,-18,48,1628937049.0,32.000000
-41,-18,48,1628937049.0,32.000000
-43,-18,51,1628937049.0,32.000000
-47,-19,51,1628937049.0,32.000000
-62,-26,46,1628937049.0,32.000000
-79,-31,40,1628937049.0,32.000000
-101,-42,24,1628937049.0,32.000000
-78,-46,17,1628937049.0,32.000000
-67,-48,13,1628937049.0,32.000000
-51,-52,6,1628937049.0,32.000000
-43,-52,3,1628937049.0,32.000000
-37,-44,2,1628937049.0,32.000000
-17,-37,10,1628937049.0,32.000000
-8,-37,13,1628937049.0,32.000000
-14,-35,13,1628937049.0,32.000000
-21,-35,11,1628937049.0,32.000000
-23,-36,11,1628937049.0,32.000000
-24,-41,10,1628937049.0,32.000000
-23,-46,10,1628937049.0,32.000000
-22,-51,12,1628937049.0,32.000000
-22,-54,12,1628937049.0,32.000000
-20,-57,17,1628937049.0,32.000000
-21,-57,21,1628937049.0,32.000000
-21,-59,18,1628937049.0,32.000000
-22,-59,17,1628937049.0,32.000000
-22,-59,14,1628937049.0,32.000000
-17,-58,15,1628937049.0,32.000000
-19,-56,17,1628937049.0,32.000000
-21,-57,14,1628937049.0,32.000000
-23,-56,14,1628937049.0,32.000000
-24,-56,14,1628937049.0,32.000000
-30,-56,10,1628937049.0,32.000000
-29,-56,4,1628937049.0,32.000000
-28,-51,6,1628937049.0,32.000000
-29,-36,21,1628937049.0,32.000000
-28,-35,21,1628937049.0,32.000000
-30,-40,9,1628937049.0,32.000000
-13,-38,8,1628937049.0,32.000000
-3,-47,4,1628937049.0,32.000000
-10,-49,2,1628937049.0,32.000000
-9,-45,4,1628937049.0,32.000000
-13,-53,17,1628937049.0,32.000000
-20,-51,21,1628937049.0,32.000000
-37,-46,27,1628937049.0,32.000000
-46,-48,39,1628937049.0,32.000000
-60,-40,45,1628937049.0,32.000000
-37,-38,76,1628937049.0,32.000000
-28,-35,85,1628937049.0,32.000000
-57,-30,61,1628937049.0,32.000000
-59,-28,52,1628937049.0,32.000000
-46,-27,53,1628937049.0,32.000000
-35,-24,53,1628937049.0,32.000000
-40,-20,53,1628937049.0,32.000000
-55,-22,50,1628937049.0,32.000000
-35,-18,49,1628937049.0,32.000000
-37,-17,47,1628937049.0,32.000000
-41,-19,48,1628937049.0,32.000000
-37,-19,52,1628937049.0,32.000000
-41,-20,46,1628937049.0,32.000000
-37,-19,51,1628937049.0,32.000000
-40,-20,48,1628937049.0,32.000000
-38,-19,49,1628937049.0,32.000000
-39,-20,50,1628937049.0,32.000000
-37,-19,51,1628937049.0,32.000000
-35,-19,51,1628937049.0,32.000000
-33,-19,52,1628937049.0,32.000000
-35,-19,55,1628937049.0,32.000000
-36,-21,54,1628937049.0,32.000000
-37,-21,56,1628937049.0,32.000000
-39,-24,56,1628937049.0,32.000000
-40,-25,49,1628937049.0,32.000000
-30,-24,44,1628937049.0,32.000000
-26,-21,42,1628937049.0,32.000000
-27,-19,44,1628937049.0,32.000000
-32,-20,47,1628937049.0,32.000000
-29,-18,58,1628937049.0,32.000000
-40,-20,51,1628937049.0,32.000000
-37,-19,55,1628937049.0,32.000000
-37,-17,61,1628937049.0,32.000000
-35,-19,55,1628937049.0,32.000000
-36,-10,52,1628937049.0,32.000000
-31,-13,57,1628937049.0,32.000000
-33,-14,56,1628937049.0,32.000000
-33,-17,53,1628937049.0,32.000000
-28,-18,57,1628937049.0,32.000000
-29,-16,57,1628937049.0,32.000000
-31,-13,55,1628937049.0,32.000000
-31,-11,59,1628937049.0,32.000000
-33,-10,57,1628937049.0,32.000000
-34,-9,56,1628937049.0,32.000000
-34,-9,56,1628937049.0,32.000000
-33,-8,57,1628937049.0,32.000000
-33,-7,58,1628937049.0,32.000000
-31,-6,61,1628937049.0,32.000000
-30,-7,62,1628937049.0,32.000000
-24,-7,72,1628937049.0,32.000000
-29,-8,67,1628937049.0,32.000000
-26,-8,60,1628937049.0,32.000000
-27,-9,53,1628937049.0,32.000000
-28,-8,54,1628937049.0,32.000000
-34,-7,51,1628937049.0,32.000000
-25,-5,47,1628937049.0,32.000000
-22,-4,49,1628937049.0,32.000000
-18,-1,51,1628937049.0,32.000000
-19,-2,54,1628937049.0,32.000000
-28,-1,57,1628937049.0,32.000000
-30,3,59,1628937049.0,32.000000
-21,7,64,1628937049.0,32.000000
-20,9,67,1628937049.0,32.000000
-24,7,66,1628937049.0,32.000000
-22,7,70,1628937049.0,32.000000
-22,2,66,1628937049.0,32.000000
-20,-3,61,1628937049.0,32.000000
-25,4,63,1628937049.0,32.000000
-28,0,60,1628937049.0,32.000000
-23,2,62,1628937049.0,32.000000
-26,5,62,1628937049.0,32.000000
-22,4,61,1628937049.0,32.000000
-19,5,62,1628937049.0,32.000000
-21,2,62,1628937049.0,32.000000
-19,2,62,1628937049.0,32.000000
-18,-2,62,1628937049.0,32.000000
-22,1,61,1628937049.0,32.000000
-26,2,61,1628937049.0,32.000000
-27,3,60,1628937049.0,32.000000
-24,4,61,1628937049.0,32.000000
-23,4,62,1628937049.0,32.000000
-22,3,61,1628937049.0,32.000000
-22,2,62,1628937049.0,32.000000
-22,2,62,1628937049.0,32.000000
-22,2,62,1628937049.0,32.000000
-23,2,61,1628937049.0,32.000000
-22,2,61,1628937049.0,32.000000
-21,2,62,1628937049.0,32.000000
-20,2,62,1628937049.0,32.000000
-22,2,61,1628937049.0,32.000000
-22,2,62,1628937049.0,32.000000
-22,2,62,1628937049.0,32.000000
-23,2,61,1628937049.0,32.000000
-24,2,61,1628937049.0,32.000000
-23,2,61,1628937049.0,32.000000
-22,2,62,1628937049.0,32.000000
-20,1,62,1628937049.0,32.000000
-20,0,61,1628937049.0,32.000000
-21,1,62,1628937049.0,32.000000
-22,2,61,1628937049.0,32.000000
-23,2,61,1628937049.0,32.000000
-23,2,62,1628937049.0,32.000000
-23,2,62,1628937049.0,32.000000
-22,2,62,1628937049.0,32.000000
-22,1,61,1628937049.0,32.000000
-21,1,61,1628937049.0,32.000000
-20,1,62,1628937049.0,32.000000
-20,1,62,1628937049.0,32.000000
-22,2,61,1628937049.0,32.000000
-24,2,61,1628937049.0,32.000000
-23,2,61,1628937049.0,32.000000
-22,2,62,1628937049.0,32.000000
-22,1,62,1628937049.0,32.000000
-22,1,61,1628937049.0,32.000000
-22,1,62,1628937049.0,32.000000
-22,1,61,1628937049.0,32.000000
-22,1,61,1628937049.0,32.000000
-22,2,62,1628937049.0,32.000000
-22,1,62,1628937049.0,32.000000
-22,1,61,1628937049.0,32.000000
-22,1,61,1628937049.0,32.000000
-23,1,61,1628937049.0,32.000000
-24,1,61,1628937049.0,32.000000
-23,2,61,1628937049.0,32.000000
-23,2,61,1628937049.0,32.000000
-23,1,61,1628937049.0,32.000000
-22,1,61,1628937049.0,32.000000
-22,1,62,1628937049.0,32.000000
-22,2,61,1628937049.0,32.000000
-22,2,62,1628937049.0,32.000000
-22,2,62,1628937049.0,32.000000
-22,2,61,1628937049.0,32.000000
-22,2,61,1628937049.0,32.000000
-22,2,61,1628937049.0,32.000000
-23,2,61,1628937049.0,32.000000
-23,2,61,1628937049.0,32.000000
-22,2,62,1628937049.0,32.000000
-22,1,61,1628937049.0,32.000000
-22,1,61,1628937049.0,32.000000
-23,1,61,1628937049.0,32.000000
-23,1,61,1628937049.0,32.000000
-23,1,61,1628937049.0,32.000000
-23,1,61,1628937049.0,32.000000
-23,1,61,1628937049.0,32.000000
-23,1,61,1628937049.0,32.000000
-23,1,61,1628937049.0,32.000000
-23,1,61,1628937049.0,32.000000
-23,1,61,1628937049.0,32.000000
-23,2,61,1628937049.0,32.000000
-23,1,61,1628937049.0,32.000000
-22,1,61,1628937049.0,32.000000
-23,1,61,1628937049.0,32.000000
-23,1,61,1628937049.0,32.000000
-23,1,61,1628937049.0,32.000000
-22,1,62,1628937049.0,32.000000
-24,1,61,1628937049.0,32.000000
-23,1,61,1628937049.0,32.000000
-23,1,61,1628937049.0,32.000000
-24,1,61,1628937049.0,32.000000
-23,1,61,1628937049.0,32.000000
-23,1,61,1628937049.0,32.000000
-23,1,61,1628937049.0,32.000000
-23,1,61,1628937049.0,32.000000
-23,1,61,1628937049.0,32.000000
-23,1,61,1628937049.0,32.000000
-24,2,61,1628937049.0,32.000000
-23,2,61,1628937049.0,32.000000
-23,2,61,1628937049.0,32.000000
-23,2,61,1628937049.0,32.000000
-22,2,61,1628937049.0,32.000000
-22,2,61,1628937049.0,32.000000
-22,2,61,1628937049.0,32.000000
-22,2,61,1628937049.0,32.000000
-22,2,61,1628937049.0,32.000000
-22,2,61,1628937049.0,32.000000
-22,2,62,1628937049.0,32.000000
-23,2,61,1628937049.0,32.000000
-23,2,61,1628937049.0,32.000000
-23,2,61,1628937049.0,32.000000
-23,2,61,1628937049.0,32.000000
-23,2,61,1628937049.0,32.000000
-23,2,61,1628937049.0,32.000000
-23,2,61,1628937049.0,32.000000
-23,2,61,1628937049.0,32.000000
-23,2,61,1628937049.0,32.000000
-23,2,61,1628937049.0,32.000000
-23,2,61,1628937049.0,32.000000
-23,2,61,1628937049.0,32.000000
-23,2,61,1628937049.0,32.000000
-23,2,61,1628937049.0,32.000000
-22,2,61,1628937049.0,32.000000
-22,2,61,1628937049.0,32.000000
-23,2,61,1628937049.0,32.000000
-23,2,61,1628937049.0,32.000000
-23,2,61,1628937049.0,32.000000
-23,2,61,1628937049.0,32.000000
-23,2,61,1628937049.0,32.000000
-23,1,61,1628937049.0,32.000000
-23,2,61,1628937049.0,32.000000
-23,1,61,1628937049.0,32.000000
-23,2,61,1628937049.0,32.000000
-22,1,61,1628937049.0,32.000000
-23,2,61,1628937049.0,32.000000
-23,1,61,1628937049.0,32.000000
-23,2,61,1628937049.0,32.000000
-23,1,61,1628937049.0,32.000000
-23,1,61,1628937049.0,32.000000
-23,1,61,1628937049.0,32.000000
-23,2,61,1628937049.0,32.000000
-23,2,61,1628937049.0,32.000000
-22,2,61,1628937049.0,32.000000
-22,1,61,1628937049.0,32.000000
-23,1,61,1628937049.0,32.000000
-23,2,61,1628937049.0,32.000000
-23,1,61,1628937049.0,32.000000
-23,2,62,1628937049.0,32.000000
-23,1,61,1628937049.0,32.000000
-23,1,61,1628937049.0,32.000000
-23,1,61,1628937049.0,32.000000
-23,1,61,1628937049.0,32.000000
-23,2,61,1628937049.0,32.000000
-23,1,61,1628937049.0,32.000000
-22,1,62,1628937049.0,32.000000
-23,1,61,1628937049.0,32.000000
-23,1,61,1628937049.0,32.000000
-23,2,61,1628937049.0,32.000000
-23,1,61,1628937049.0,32.000000
-22,1,61,1628937049.0,32.000000
-22,1,61,1628937049.0,32.000000
-22,1,61,1628937049.0,32.000000
-22,1,61,1628937049.0,32.000000
-23,1,61,1628937049.0,32.000000
-22,1,61,1628937049.0,32.000000
-22,2,61,1628937049.0,32.000000
-23,1,61,1628937049.0,32.000000
-22,1,62,1628937049.0,32.000000
-22,1,62,1628937049.0,32.000000
-23,1,61,1628937049.0,32.000000
-23,1,61,1628937049.0,32.000000
-23,1,61,1628937049.0,32.000000
-23,1,61,1628937049.0,32.000000
-23,1,61,1628937049.0,32.000000
-23,2,61,1628937049.0,32.000000
-23,1,61,1628937049.0,32.000000
-22,1,62,1628937049.0,32.000000
-23,1,61,1628937049.0,32.000000
-23,2,61,1628937049.0,32.000000
-22,1,61,1628937049.0,32.000000
-22,1,61,1628937049.0,32.000000
-22,1,61,1628937049.0,32.000000
-23,1,61,1628937049.0,32.000000
-23,1,61,1628937049.0,32.000000
-22,2,61,1628937049.0,32.000000
-22,2,62,1628937049.0,32.000000
-22,2,61,1628937049.0,32.000000
-22,1,61,1628937049.0,32.000000
-22,1,62,1628937049.0,32.000000
-22,1,61,1628937049.0,32.000000
-22,1,62,1628937049.0,32.000000
-23,2,61,1628937049.0,32.000000
-23,2,62,1628937049.0,32.000000
-23,1,61,1628937049.0,32.000000
-22,1,61,1628937049.0,32.000000
-22,1,62,1628937049.0,32.000000
-22,1,61,1628937049.0,32.000000
-23,1,61,1628937049.0,32.000000
-22,1,61,1628937049.0,32.000000
-22,2,62,1628937049.0,32.000000
-22,1,61,1628937049.0,32.000000
-22,1,62,1628937049.0,32.000000
-22,1,61,1628937049.0,32.000000
-22,1,61,1628937049.0,32.000000
-22,1,62,1628937049.0,32.000000
-22,1,62,1628937049.0,32.000000
-22,1,61,1628937049.0,32.000000
-22,2,61,1628937049.0,32.000000
-22,1,62,1628937049.0,32.000000
-22,1,61,1628937049.0,32.000000
-22,1,61,1628937049.0,32.000000
-22,1,61,1628937049.0,32.000000
-22,1,62,1628937049.0,32.000000
-22,1,62,1628937049.0,32.000000
-23,1,61,1628937049.0,32.000000
-22,1,61,1628937049.0,32.000000
-22,1,61,1628937049.0,32.000000
-22,1,61,1628937049.0,32.000000
-22,1,61,1628937049.0,32.000000
-22,1,62,1628937049.0,32.000000
-22,1,61,1628937049.0,32.000000
-22,1,61,1628937049.0,32.000000
-22,1,61,1628937049.0,32.000000
-23,1,62,1628937049.0,32.000000
-22,1,61,1628937049.0,32.000000
-22,1,61,1628937049.0,32.000000
-22,1,62,1628937049.0,32.000000
-22,1,61,1628937049.0,32.000000
-22,1,62,1628937049.0,32.000000
-22,2,61,1628937049.0,32.000000
-22,2,61,1628937049.0,32.000000
-23,1,61,1628937049.0,32.000000
-22,1,61,1628937049.0,32.000000
-23,1,61,1628937049.0,32.000000
-22,1,62,1628937049.0,32.000000
-22,1,61,1628937049.0,32.000000
-22,2,62,1628937049.0,32.000000
-22,1,61,1628937049.0,32.000000
-22,1,62,1628937049.0,32.000000
-22,1,61,1628937049.0,32.000000
-22,1,62,1628937049.0,32.000000
-22,1,61,1628937049.0,32.000000
-22,1,61,1628937049.0,32.000000
-22,1,62,1628937049.0,32.000000
-22,1,62,1628937049.0,32.000000
-23,1,61,1628937049.0,32.000000
-22,1,61,1628937049.0,32.000000
-22,2,61,1628937049.0,32.000000
-22,1,61,1628937049.0,32.000000
-23,1,61,1628937049.0,32.000000
-22,1,61,1628937049.0,32.000000
-22,1,62,1628937049.0,32.000000
-22,1,61,1628937049.0,32.000000
-22,1,62,1628937049.0,32.000000
-22,1,61,1628937049.0,32.000000
-22,1,61,1628937049.0,32.000000
-22,2,61,1628937049.0,32.000000
-23,1,61,1628937049.0,32.000000
-22,1,61,1628937049.0,32.000000
-22,1,61,1628937049.0,32.000000
-22,1,61,1628937049.0,32.000000
-22,1,61,1628937049.0,32.000000
-22,1,61,1628937049.0,32.000000
-22,1,62,1628937049.0,32.000000
-22,1,61,1628937049.0,32.000000
-22,2,62,1628937049.0,32.000000
-22,1,62,1628937049.0,32.000000
-22,1,61,1628937049.0,32.000000
-22,2,62,1628937049.0,32.000000
-22,1,62,1628937049.0,32.000000
-22,1,61,1628937049.0,32.000000
-22,2,61,1628937049.0,32.000000
-22,1,62,1628937049.0,32.000000
-22,1,62,1628937049.0,32.000000
-22,1,62,1628937049.0,32.000000
-22,2,62,1628937049.0,32.000000
-22,1,62,1628937049.0,32.000000
-22,1,62,1628937049.0,32.000000
-22,1,61,1628937049.0,32.000000
-22,1,61,1628937049.0,32.000000
-22,1,61,1628937049.0,32.000000
-22,1,61,1628937049.0,32.000000
-22,1,62,1628937049.0,32.000000
-22,1,62,1628937049.0,32.000000
-22,1,61,1628937049.0,32.000000
-22,1,62,1628937049.0,32.000000
-22,1,62,1628937049.0,32.000000
-22,1,62,1628937049.0,32.000000
-22,1,61,1628937049.0,32.000000
-22,2,62,1628937049.0,32.000000
-22,1,62,1628937049.0,32.000000
-22,1,62,1628937049.0,32.000000
-22,1,62,1628937049.0,32.000000
-22,1,62,1628937049.0,32.000000
-22,1,62,1628937049.0,32.000000
-22,1,62,1628937049.0,32.000000
-22,1,61,1628937049.0,32.000000
-22,1,62,1628937049.0,32.000000
-22,1,61,1628937049.0,32.000000
-22,1,62,1628937049.0,32.000000
-22,1,62,1628937049.0,32.000000
-23,1,61,1628937049.0,32.000000
-22,1,62,1628937049.0,32.000000
-22,1,62,1628937049.0,32.000000
-22,1,61,1628937049.0,32.000000
-22,1,62,1628937049.0,32.000000
-22,1,62,1628937049.0,32.000000
-22,1,61,1628937049.0,32.000000
-22,1,62,1628937049.0,32.000000
-22,1,61,1628937049.0,32.000000
-22,1,62,1628937049.0,32.000000
-22,1,61,1628937049.0,32.000000
-22,1,62,1628937049.0,32.000000
-22,1,62,1628937049.0,32.000000
-22,1,61,1628937049.0,32.000000
-22,1,62,1628937049.0,32.000000
-22,1,62,1628937049.0,32.000000
-22,1,61,1628937049.0,32.000000
-22,1,62,1628937049.0,32.000000
-22,1,61,1628937049.0,32.000000
-22,1,61,1628937049.0,32.000000
-22,1,61,1628937049.0,32.000000
-22,1,61,1628937049.0,32.000000
-22,1,62,1628937049.0,32.000000
-22,1,61,1628937049.0,32.000000
-22,1,61,1628937049.0,32.000000
-22,1,61,1628937049.0,32.000000
-22,1,62,1628937049.0,32.000000
-22,1,61,1628937049.0,32.000000
-22,1,61,1628937049.0,32.000000
-22,1,62,1628937049.0,32.000000
-22,1,61,1628937049.0,32.000000
-22,1,61,1628937049.0,32.000000
-22,1,61,1628937049.0,32.000000
-22,1,62,1628937049.0,32.000000
-22,1,61,1628937049.0,32.000000
-22,1,61,1628937049.0,32.000000
-22,1,62,1628937049.0,32.000000
-22,1,62,1628937049.0,32.000000
-22,1,61,1628937049.0,32.000000
-22,1,62,1628937049.0,32.000000
-22,1,62,1628937049.0,32.000000
-22,1,61,1628937049.0,32.000000
-22,1,62,1628937049.0,32.000000
-22,1,62,1628937049.0,32.000000
-22,1,61,1628937049.0,32.000000
-22,1,61,1628937049.0,32.000000
-22,1,61,1628937049.0,32.000000
-22,2,61,1628937049.0,32.000000
-22,1,61,1628937049.0,32.000000
-22,1,61,1628937049.0,32.000000
-22,1,62,1628937049.0,32.000000
-22,1,61,1628937049.0,32.000000
-22,1,62,1628937049.0,32.000000
-22,1,62,1628937049.0,32.000000
-22,1,61,1628937049.0,32.000000
-22,1,62,1628937049.0,32.000000
-22,2,62,1628937049.0,32.000000
-22,1,61,1628937049.0,32.000000
-21,1,62,1628937049.0,32.000000
-22,1,62,1628937049.0,32.000000
-22,1,62,1628937049.0,32.000000
-22,1,61,1628937049.0,32.000000
-22,1,62,1628937049.0,32.000000
-22,1,62,1628937049.0,32.000000
-21,1,62,1628937049.0,32.000000
-21,1,62,1628937049.0,32.000000
-22,1,61,1628937049.0,32.000000
-22,1,61,1628937049.0,32.000000
-22,1,62,1628937049.0,32.000000
-22,1,62,1628937049.0,32.000000
-22,1,62,1628937049.0,32.000000
-22,1,62,1628937049.0,32.000000
-22,1,62,1628937049.0,32.000000
-22,1,61,1628937049.0,32.000000
-22,1,62,1628937049.0,32.000000
-22,1,62,1628937049.0,32.000000
-22,1,62,1628937049.0,32.000000
-22,1,61,1628937049.0,32.000000
-21,1,62,1628937049.0,32.000000
-22,1,62,1628937049.0,32.000000
-22,1,61,1628937049.0,32.000000
-22,1,62,1628937049.0,32.000000
-22,1,62,1628937049.0,32.000000
-22,1,62,1628937049.0,32.000000
-22,1,61,1628937049.0,32.000000
-22,1,62,1628937049.0,32.000000
-22,1,62,1628937049.0,32.000000
-22,1,61,1628937049.0,32.000000
-22,1,62,1628937049.0,32.000000
-22,1,62,1628937049.0,32.000000
-22,1,62,1628937049.0,32.000000
-22,1,62,1628937049.0,32.000000
-22,1,62,1628937049.0,32.000000
-22,1,62,1628937049.0,32.000000
-22,1,62,1628937049.0,32.000000
-22,1,62,1628937049.0,32.000000
-22,1,62,1628937049.0,32.000000
-22,1,62,1628937049.0,32.000000
-22,1,62,1628937049.0,32.000000
-22,1,62,1628937049.0,32.000000
-22,1,61,1628937049.0,32.000000
-22,2,62,1628937049.0,32.000000
-22,1,61,1628937049.0,32.000000
-22,1,62,1628937049.0,32.000000
-22,1,62,1628937049.0,32.000000
-22,1,62,1628937049.0,32.000000
-22,1,61,1628937049.0,32.000000
-22,1,62,1628937049.0,32.000000
-22,1,61,1628937049.0,32.000000
-22,1,61,1628937049.0,32.000000
-22,1,62,1628937049.0,32.000000
-23,1,61,1628937049.0,32.000000
-22,2,61,1628937049.0,32.000000
-24,2,61,1628937049.0,32.000000
-24,1,61,1628937049.0,32.000000
-23,1,60,1628937049.0,32.000000
-22,2,62,1628937049.0,32.000000
-24,1,61,1628937049.0,32.000000
-22,1,61,1628937049.0,32.000000
-22,1,61,1628937049.0,32.000000
-22,1,62,1628937049.0,32.000000
-22,2,62,1628937049.0,32.000000
-22,2,62,1628937049.0,32.000000
-21,0,61,1628937049.0,32.000000
-21,2,62,1628937049.0,32.000000
-22,1,61,1628937049.0,32.000000
-24,1,61,1628937049.0,32.000000
-27,3,67,1628937049.0,32.000000
-17,7,72,1628937049.0,32.000000
-33,0,60,1628937049.0,32.000000
-17,5,60,1628937049.0,32.000000
-17,0,66,1628937049.0,32.000000
-20,2,60,1628937049.0,32.000000
-23,2,63,1628937049.0,32.000000
-22,1,60,1628937049.0,32.000000
-23,3,63,1628937049.0,32.000000
-23,1,61,1628937049.0,32.000000
-22,2,62,1628937049.0,32.000000
-23,2,61,1628937049.0,32.000000
-23,2,62,1628937049.0,32.000000
-23,2,61,1628937049.0,32.000000
-23,2,62,1628937049.0,32.000000
-22,2,61,1628937049.0,32.000000
-21,2,62,1628937049.0,32.000000
-21,2,62,1628937049.0,32.000000
-21,1,61,1628937049.0,32.000000
-22,2,61,1628937049.0,32.000000
-23,2,61,1628937049.0,32.000000
-22,2,62,1628937049.0,32.000000
-23,2,61,1628937049.0,32.000000
-23,2,61,1628937049.0,32.000000
-22,2,62,1628937049.0,32.000000
-22,2,61,1628937049.0,32.000000
-22,2,62,1628937049.0,32.000000
-21,2,62,1628937049.0,32.000000
-21,2,62,1628937049.0,32.000000
-21,2,62,1628937049.0,32.000000
-21,2,62,1628937049.0,32.000000
-22,2,61,1628937049.0,32.000000
-22,2,62,1628937049.0,32.000000
-22,2,62,1628937049.0,32.000000
-21,2,61,1628937049.0,32.000000
-22,2,62,1628937049.0,32.000000
-22,2,62,1628937049.0,32.000000
-21,2,62,1628937049.0,32.000000
-21,2,62,1628937049.0,32.000000
-21,2,62,1628937049.0,32.000000
-22,2,62,1628937049.0,32.000000
-22,2,62,1628937049.0,32.000000
-22,2,62,1628937049.0,32.000000
-22,2,61,1628937049.0,32.000000
-21,2,62,1628937049.0,32.000000
-22,2,61,1628937049.0,32.000000
-22,2,61,1628937049.0,32.000000
-22,2,62,1628937049.0,32.000000
-22,2,61,1628937049.0,32.000000
-22,2,62,1628937049.0,32.000000
-22,2,61,1628937049.0,32.000000
-22,2,61,1628937049.0,32.000000
-22,2,62,1628937049.0,32.000000
-21,2,62,1628937049.0,32.000000
-22,2,62,1628937049.0,32.000000
-22,2,61,1628937049.0,32.000000
-22,2,62,1628937049.0,32.000000
-22,2,62,1628937049.0,32.000000
-22,2,62,1628937049.0,32.000000
-22,2,62,1628937049.0,32.000000
-22,2,62,1628937049.0,32.000000
-22,2,62,1628937049.0,32.000000
-21,2,62,1628937049.0,32.000000
-21,2,62,1628937049.0,32.000000
-22,2,62,1628937049.0,32.000000
-22,2,62,1628937049.0,32.000000
-21,2,62,1628937049.0,32.000000
-21,2,62,1628937049.0,32.000000
-21,2,62,1628937049.0,32.000000
-22,2,62,1628937049.0,32.000000
-22,2,61,1628937049.0,32.000000
-22,2,62,1628937049.0,32.000000
-22,2,62,1628937049.0,32.000000
-22,2,62,1628937049.0,32.000000
-21,2,62,1628937049.0,32.000000
-22,2,62,1628937049.0,32.000000
-22,2,61,1628937049.0,32.000000
-22,2,62,1628937049.0,32.000000
-22,2,61,1628937049.0,32.000000
-22,2,62,1628937049.0,32.000000
-22,2,61,1628937049.0,32.000000
-22,2,62,1628937049.0,32.000000
-22,2,62,1628937049.0,32.000000
-22,2,62,1628937049.0,32.000000
-22,2,62,1628937049.0,32.000000
-21,2,62,1628937049.0,32.000000
-22,2,62,1628937049.0,32.000000
-22,2,62,1628937049.0,32.000000
-22,2,62,1628937049.0,32.000000
-22,2,62,1628937049.0,32.000000
-21,2,62,1628937049.0,32.000000
-22,2,62,1628937049.0,32.000000
-22,2,62,1628937049.0,32.000000
-21,2,62,1628937049.0,32.000000
-22,2,62,1628937049.0,32.000000
-21,2,62,1628937049.0,32.000000
-22,2,62,1628937049.0,32.000000
-22,2,62,1628937049.0,32.000000
-22,2,61,1628937049.0,32.000000
-21,2,62,1628937049.0,32.000000
-22,2,62,1628937049.0,32.000000
-22,2,62,1628937049.0,32.000000
-22,2,62,1628937049.0,32.000000
-22,2,62,1628937049.0,32.000000
-22,2,62,1628937049.0,32.000000
-22,2,62,1628937049.0,32.000000
-22,2,62,1628937049.0,32.000000
-22,2,62,1628937049.0,32.000000
-22,2,61,1628937049.0,32.000000
-22,2,62,1628937049.0,32.000000
-22,2,62,1628937049.0,32.000000
-22,2,61,1628937049.0,32.000000
-22,2,61,1628937049.0,32.000000
-22,2,62,1628937049.0,32.000000
-22,2,62,1628937049.0,32.000000
-22,2,61,1628937049.0,32.000000
-22,1,62,1628937049.0,32.000000
-22,2,62,1628937049.0,32.000000
-22,2,62,1628937049.0,32.000000
-22,2,61,1628937049.0,32.000000
-22,2,62,1628937049.0,32.000000
-22,2,62,1628937049.0,32.000000
-22,2,62,1628937049.0,32.000000
-22,2,62,1628937049.0,32.000000
-22,1,62,1628937049.0,32.000000
-22,2,61,1628937049.0,32.000000
-22,2,62,1628937049.0,32.000000
-22,1,61,1628937049.0,32.000000
-22,2,62,1628937049.0,32.000000
-22,2,62,1628937049.0,32.000000
-22,2,62,1628937049.0,32.000000
-21,2,62,1628937049.0,32.000000
-22,1,62,1628937049.0,32.000000
-22,1,61,1628937049.0,32.000000
-22,2,62,1628937049.0,32.000000
-23,2,61,1628937049.0,32.000000
-21,2,62,1628937049.0,32.000000
-21,1,62,1628937049.0,32.000000
-22,2,62,1628937049.0,32.000000
-22,2,62,1628937049.0,32.000000
-22,2,61,1628937049.0,32.000000
-21,2,61,1628937049.0,32.000000
-21,1,62,1628937049.0,32.000000
-21,2,61,1628937049.0,32.000000
-22,2,62,1628937049.0,32.000000
-22,2,61,1628937049.0,32.000000
-22,2,62,1628937049.0,32.000000
-22,2,61,1628937049.0,32.000000
-22,2,62,1628937049.0,32.000000
-22,2,62,1628937049.0,32.000000
-22,2,62,1628937049.0,32.000000
-22,2,62,1628937049.0,32.000000
-21,2,62,1628937049.0,32.000000
-22,2,62,1628937049.0,32.000000
-22,2,61,1628937049.0,32.000000
-22,2,62,1628937049.0,32.000000
-22,2,61,1628937049.0,32.000000
-22,2,61,1628937049.0,32.000000
-22,2,62,1628937049.0,32.000000
-22,2,62,1628937049.0,32.000000
-22,2,62,1628937049.0,32.000000
-22,2,61,1628937049.0,32.000000
-21,2,62,1628937049.0,32.000000
-21,2,62,1628937049.0,32.000000
-21,2,62,1628937049.0,32.000000
-22,2,62,1628937049.0,32.000000
-22,2,61,1628937049.0,32.000000
-22,2,62,1628937049.0,32.000000
-22,2,62,1628937049.0,32.000000
-22,2,62,1628937049.0,32.000000
-22,2,61,1628937049.0,32.000000
-22,2,62,1628937049.0,32.000000
-22,2,62,1628937049.0,32.000000
-22,2,62,1628937049.0,32.000000
-22,2,62,1628937049.0,32.000000
-22,2,62,1628937049.0,32.000000
-22,2,62,1628937049.0,32.000000
-22,2,62,1628937049.0,32.000000
-22,2,62,1628937049.0,32.000000
-22,2,62,1628937049.0,32.000000
-22,2,61,1628937049.0,32.000000
-22,2,62,1628937049.0,32.000000
-22,2,61,1628937049.0,32.000000
-22,2,61,1628937049.0,32.000000
-22,2,61,1628937049.0,32.000000
-22,2,62,1628937049.0,32.000000
-22,2,62,1628937049.0,32.000000
-22,2,62,1628937049.0,32.000000
-22,2,62,1628937049.0,32.000000
-22,2,62,1628937049.0,32.000000
-22,2,62,1628937049.0,32.000000
-22,2,61,1628937049.0,32.000000
-22,2,61,1628937049.0,32.000000
-22,2,61,1628937049.0,32.000000
-22,2,62,1628937049.0,32.000000
-22,2,61,1628937049.0,32.000000
-22,2,62,1628937049.0,32.000000
-22,2,62,1628937049.0,32.000000
-22,2,62,1628937049.0,32.000000
-22,2,62,1628937049.0,32.000000
-22,2,62,1628937049.0,32.000000
-22,2,61,1628937049.0,32.000000
-22,2,61,1628937049.0,32.000000
-22,2,62,1628937049.0,32.000000
-22,2,62,1628937049.0,32.000000
-22,2,61,1628937049.0,32.000000
-22,2,62,1628937049.0,32.000000
-22,2,62,1628937049.0,32.000000
-21,2,62,1628937049.0,32.000000
-22,2,62,1628937049.0,32.000000
-21,2,62,1628937049.0,32.000000
-22,2,62,1628937049.0,32.000000
-22,2,62,1628937049.0,32.000000
-22,2,62,1628937049.0,32.000000
-21,2,61,1628937049.0,32.000000
-22,2,62,1628937049.0,32.000000
-22,2,61,1628937049.0,32.000000
-22,2,61,1628937049.0,32.000000
-22,2,62,1628937049.0,32.000000
-22,2,62,1628937049.0,32.000000
-22,2,61,1628937049.0,32.000000
-22,2,62,1628937049.0,32.000000
-22,2,61,1628937049.0,32.000000
-22,2,61,1628937049.0,32.000000
-23,2,61,1628937049.0,32.000000
-23,2,61,1628937049.0,32.000000
-22,2,61,1628937049.0,32.000000
-23,2,61,1628937049.0,32.000000
-23,2,61,1628937049.0,32.000000
-22,2,61,1628937049.0,32.000000
-23,2,61,1628937049.0,32.000000
-22,2,61,1628937049.0,32.000000
-22,2,61,1628937049.0,32.000000
-22,2,62,1628937049.0,32.000000
-22,2,62,1628937049.0,32.000000
-22,2,62,1628937049.0,32.000000
-22,2,61,1628937049.0,32.000000
-22,2,62,1628937049.0,32.000000
-22,2,62,1628937049.0,32.000000
-22,2,61,1628937049.0,32.000000
-22,2,62,1628937049.0,32.000000
-22,2,62,1628937049.0,32.000000
-22,2,61,1628937049.0,32.000000
-22,2,62,1628937049.0,32.000000
-22,2,62,1628937049.0,32.000000
-22,2,62,1628937049.0,32.000000
-22,2,61,1628937049.0,32.000000
-22,2,61,1628937049.0,32.000000
-22,2,61,1628937049.0,32.000000
-22,2,61,1628937049.0,32.000000
-22,2,62,1628937049.0,32.000000
-22,2,62,1628937049.0,32.000000
-22,2,61,1628937049.0,32.000000
-22,2,62,1628937049.0,32.000000
-22,2,61,1628937049.0,32.000000
-23,2,62,1628937049.0,32.000000
-22,2,61,1628937049.0,32.000000
-22,2,62,1628937049.0,32.000000
-22,2,61,1628937049.0,32.000000
-22,2,62,1628937049.0,32.000000
-22,2,61,1628937049.0,32.000000
-22,2,62,1628937049.0,32.000000
-22,2,61,1628937049.0,32.000000
-22,2,61,1628937049.0,32.000000
-22,2,61,1628937049.0,32.000000
-22,2,61,1628937049.0,32.000000
-22,2,61,1628937049.0,32.000000
-22,2,62,1628937049.0,32.000000
-22,2,61,1628937049.0,32.000000
-22,2,61,1628937049.0,32.000000
-22,2,62,1628937049.0,32.000000
-22,2,62,1628937049.0,32.000000
-22,2,62,1628937049.0,32.000000
-22,2,61,1628937049.0,32.000000
-22,2,61,1628937049.0,32.000000
-22,2,62,1628937049.0,32.000000
-23,2,61,1628937049.0,32.000000
-22,2,61,1628937049.0,32.000000
-22,2,61,1628937049.0,32.000000
-22,2,61,1628937049.0,32.000000
-22,2,62,1628937049.0,32.000000
-22,2,61,1628937049.0,32.000000
-21,2,62,1628937049.0,32.000000
-21,2,62,1628937049.0,32.000000
-22,2,62,1628937049.0,32.000000
-22,1,61,1628937049.0,32.000000
-22,1,62,1628937049.0,32.000000
-22,2,61,1628937049.0,32.000000
-26,2,60,1628937049.0,32.000000
-19,3,62,1628937049.0,32.000000
-23,2,61,1628937049.0,32.000000
-24,1,61,1628937049.0,32.000000
-24,2,61,1628937049.0,32.000000
-23,1,61,1628937049.0,32.000000
-22,1,61,1628937049.0,32.000000
-22,1,62,1628937049.0,32.000000
-22,2,62,1628937049.0,32.000000
-22,1,61,1628937049.0,32.000000
-22,1,61,1628937049.0,32.000000
-21,1,62,1628937049.0,32.000000
-22,1,61,1628937049.0,32.000000
-23,0,61,1628937049.0,32.000000
-25,2,61,1628937049.0,32.000000
-21,1,62,1628937049.0,32.000000
-22,1,62,1628937049.0,32.000000
-28,2,60,1628937049.0,32.000000
-19,1,62,1628937049.0,32.000000
-22,1,61,1628937049.0,32.000000
-23,2,61,1628937049.0,32.000000
-22,3,62,1628937049.0,32.000000
-23,2,60,1628937049.0,32.000000
-17,6,61,1628937049.0,32.000000
-17,9,63,1628937049.0,32.000000
-24,-5,61,1628937049.0,32.000000
-20,-4,64,1628937049.0,32.000000
-17,4,63,1628937049.0,32.000000
-24,-6,61,1628937049.0,32.000000
-19,3,62,1628937049.0,32.000000
-21,0,61,1628937049.0,32.000000
-21,-1,62,1628937049.0,32.000000
-23,1,62,1628937049.0,32.000000
-22,0,61,1628937049.0,32.000000
-21,2,62,1628937049.0,32.000000
-20,2,62,1628937049.0,32.000000
-21,0,62,1628937049.0,32.000000
-21,2,62,1628937049.0,32.000000
-21,2,62,1628937049.0,32.000000
-21,2,62,1628937049.0,32.000000
-21,3,61,1628937049.0,32.000000
-22,3,62,1628937049.0,32.000000
-21,2,62,1628937049.0,32.000000
-20,3,62,1628937049.0,32.000000
-24,6,61,1628937049.0,32.000000
-24,-2,61,1628937049.0,32.000000
-20,1,62,1628937049.0,32.000000
-19,5,64,1628937049.0,32.000000
-20,5,62,1628937049.0,32.000000
-20,4,62,1628937049.0,32.000000
-23,1,61,1628937049.0,32.000000
-23,2,61,1628937049.0,32.000000
-22,2,62,1628937049.0,32.000000
-23,2,61,1628937049.0,32.000000
-23,2,61,1628937049.0,32.000000
-21,2,61,1628937049.0,32.000000
-23,3,61,1628937049.0,32.000000
-23,2,61,1628937049.0,32.000000
-22,2,61,1628937049.0,32.000000
-24,6,61,1628937049.0,32.000000
-22,1,61,1628937049.0,32.000000
-23,2,61,1628937049.0,32.000000
-23,3,61,1628937049.0,32.000000
-24,3,61,1628937049.0,32.000000
-24,2,61,1628937049.0,32.000000
-23,3,61,1628937049.0,32.000000
-24,4,61,1628937049.0,32.000000
-24,2,61,1628937049.0,32.000000
-23,2,61,1628937049.0,32.000000
-23,3,61,1628937049.0,32.000000
-23,2,61,1628937049.0,32.000000
-23,3,61,1628937049.0,32.000000
-24,3,61,1628937049.0,32.000000
-24,2,61,1628937049.0,32.000000
-23,2,61,1628937049.0,32.000000
-23,3,61,1628937049.0,32.000000
-24,2,61,1628937049.0,32.000000
-24,2,61,1628937049.0,32.000000
-23,3,61,1628937049.0,32.000000
-23,3,61,1628937049.0,32.000000
-24,2,61,1628937049.0,32.000000
-24,2,61,1628937049.0,32.000000
-23,2,61,1628937049.0,32.000000
-24,3,61,1628937049.0,32.000000
-24,3,61,1628937049.0,32.000000
-25,0,61,1628937049.0,32.000000
-25,2,60,1628937049.0,32.000000
-25,2,61,1628937049.0,32.000000
-24,2,61,1628937049.0,32.000000
-24,2,61,1628937049.0,32.000000
-24,2,61,1628937049.0,32.000000
-24,2,61,1628937049.0,32.000000
-23,2,61,1628937049.0,32.000000
-23,2,61,1628937049.0,32.000000
-23,2,61,1628937049.0,32.000000
-24,2,61,1628937049.0,32.000000
-23,2,61,1628937049.0,32.000000
-23,2,61,1628937049.0,32.000000
-23,2,61,1628937049.0,32.000000
-23,2,61,1628937049.0,32.000000
-24,2,61,1628937049.0,32.000000
-23,2,61,1628937049.0,32.000000
-23,2,61,1628937049.0,32.000000
-23,2,61,1628937049.0,32.000000
-23,2,61,1628937049.0,32.000000
-23,2,61,1628937049.0,32.000000
-23,2,61,1628937049.0,32.000000
-23,2,61,1628937049.0,32.000000
-23,2,61,1628937049.0,32.000000
-23,2,61,1628937049.0,32.000000
-23,2,61,1628937049.0,32.000000
-23,2,61,1628937049.0,32.000000
-23,2,61,1628937049.0,32.000000
-24,2,61,1628937049.0,32.000000
-23,2,61,1628937049.0,32.000000
-23,2,61,1628937049.0,32.000000
-23,2,62,1628937049.0,32.000000
-22,2,61,1628937049.0,32.000000
-23,2,61,1628937049.0,32.000000
-22,2,61,1628937049.0,32.000000
-23,3,61,1628937049.0,32.000000
-23,2,61,1628937049.0,32.000000
-23,2,61,1628937049.0,32.000000
-23,2,61,1628937049.0,32.000000
-23,2,61,1628937049.0,32.000000
-23,2,61,1628937049.0,32.000000
-23,2,61,1628937049.0,32.000000
-23,2,61,1628937049.0,32.000000
-24,2,61,1628937049.0,32.000000
-24,2,61,1628937049.0,32.000000
-23,2,61,1628937049.0,32.000000
-23,2,61,1628937049.0,32.000000
-23,2,61,1628937049.0,32.000000
-23,2,61,1628937049.0,32.000000
-23,2,61,1628937049.0,32.000000
-23,2,61,1628937049.0,32.000000
-23,2,61,1628937049.0,32.000000
-23,2,61,1628937049.0,32.000000
-23,2,61,1628937049.0,32.000000
-23,2,61,1628937049.0,32.000000
-23,2,61,1628937049.0,32.000000
-23,2,61,1628937049.0,32.000000
-23,2,61,1628937049.0,32.000000
-23,2,61,1628937049.0,32.000000
-23,2,61,1628937049.0,32.000000
-23,2,61,1628937049.0,32.000000
-23,2,61,1628937049.0,32.000000
-23,2,61,1628937049.0,32.000000
-23,2,61,1628937049.0,32.000000
-23,2,61,1628937049.0,32.000000
-23,2,61,1628937049.0,32.000000
-23,2,61,1628937049.0,32.000000
-23,2,61,1628937049.0,32.000000
-23,2,61,1628937049.0,32.000000
-23,2,61,1628937049.0,32.000000
-23,2,61,1628937049.0,32.000000
-23,2,61,1628937049.0,32.000000
-23,2,61,1628937049.0,32.000000
-23,2,61,1628937049.0,32.000000
-23,2,61,1628937049.0,32.000000
-23,2,61,1628937049.0,32.000000
-23,2,61,1628937049.0,32.000000
-23,2,61,1628937049.0,32.000000
-23,2,61,1628937049.0,32.000000
-23,2,61,1628937049.0,32.000000
-23,2,61,1628937049.0,32.000000
-24,2,61,1628937049.0,32.000000
-23,2,61,1628937049.0,32.000000
-23,2,61,1628937049.0,32.000000
-23,2,61,1628937049.0,32.000000
-23,2,61,1628937049.0,32.000000
-23,2,61,1628937049.0,32.000000
-22,2,61,1628937049.0,32.000000
-23,2,61,1628937049.0,32.000000
-23,2,61,1628937049.0,32.000000
-23,2,61,1628937049.0,32.000000
-23,2,61,1628937049.0,32.000000
-23,2,61,1628937049.0,32.000000
-23,2,61,1628937049.0,32.000000
-23,2,61,1628937049.0,32.000000
-23,2,61,1628937049.0,32.000000
-22,2,61,1628937049.0,32.000000
-23,2,61,1628937049.0,32.000000
-23,2,61,1628937049.0,32.000000
-22,2,61,1628937049.0,32.000000
-23,2,61,1628937049.0,32.000000
-23,2,61,1628937049.0,32.000000
-23,2,61,1628937049.0,32.000000
-23,2,61,1628937049.0,32.000000
-23,2,61,1628937049.0,32.000000
-23,2,61,1628937049.0,32.000000
-23,2,61,1628937049.0,32.000000
-23,2,61,1628937049.0,32.000000
-23,2,61,1628937049.0,32.000000
-23,2,61,1628937049.0,32.000000
-23,2,61,1628937049.0,32.000000
-23,2,61,1628937049.0,32.000000
-23,2,61,1628937049.0,32.000000
-23,2,61,1628937049.0,32.000000
-23,2,61,1628937049.0,32.000000
-23,2,61,1628937049.0,32.000000
-23,2,61,1628937049.0,32.000000
-23,2,61,1628937049.0,32.000000
-23,2,61,1628937049.0,32.000000
-23,2,61,1628937049.0,32.000000
-23,2,61,1628937049.0,32.000000
-23,2,61,1628937049.0,32.000000
-23,2,61,1628937049.0,32.000000
-23,2,61,1628937049.0,32.000000
-23,2,61,1628937049.0,32.000000
-23,2,61,1628937049.0,32.000000
-23,2,61,1628937049.0,32.000000
-23,2,61,1628937049.0,32.000000
-23,2,61,1628937049.0,32.000000
-23,2,61,1628937049.0,32.000000
-23,2,61,1628937049.0,32.000000
-23,2,61,1628937049.0,32.000000
-23,2,61,1628937049.0,32.000000
-23,2,61,1628937049.0,32.000000
-23,2,61,1628937049.0,32.000000
-23,2,61,1628937049.0,32.000000
-23,2,61,1628937049.0,32.000000
-23,2,61,1628937049.0,32.000000
-23,2,61,1628937049.0,32.000000
-23,2,61,1628937049.0,32.000000
-24,2,61,1628937049.0,32.000000
-23,2,61,1628937049.0,32.000000
-23,2,61,1628937049.0,32.000000
-23,2,61,1628937049.0,32.000000
-23,2,61,1628937049.0,32.000000
-23,2,61,1628937049.0,32.000000
-23,2,61,1628937049.0,32.000000
-23,2,61,1628937049.0,32.000000
-23,2,61,1628937049.0,32.000000
-23,2,61,1628937049.0,32.000000
-23,2,61,1628937049.0,32.000000
-23,2,61,1628937049.0,32.000000
-23,2,61,1628937049.0,32.000000
-23,2,61,1628937049.0,32.000000
-23,2,61,1628937049.0,32.000000
-23,2,61,1628937049.0,32.000000
-23,2,61,1628937049.0,32.000000
-23,2,61,1628937049.0,32.000000
-23,2,61,1628937049.0,32.000000
-23,2,61,1628937049.0,32.000000
-23,2,61,1628937049.0,32.000000
-23,2,61,1628937049.0,32.000000
-23,2,61,1628937049.0,32.000000
-23,2,61,1628937049.0,32.000000
-23,2,61,1628937049.0,32.000000
-23,2,61,1628937049.0,32.000000
-23,2,61,1628937049.0,32.000000
-23,2,61,1628937049.0,32.000000
-23,2,61,1628937049.0,32.000000
-23,2,61,1628937049.0,32.000000
-23,2,61,1628937049.0,32.000000
-23,2,61,1628937049.0,32.000000
-23,2,61,1628937049.0,32.000000
-23,2,61,1628937049.0,32.000000
-23,2,61,1628937049.0,32.000000
-23,2,61,1628937049.0,32.000000
-23,2,61,1628937049.0,32.000000
-23,2,61,1628937049.0,32.000000
-23,2,61,1628937049.0,32.000000
-23,2,61,1628937049.0,32.000000
-23,2,61,1628937049.0,32.000000
-23,2,61,1628937049.0,32.000000
-23,2,61,1628937049.0,32.000000
-23,2,61,1628937049.0,32.000000
-23,2,61,1628937049.0,32.000000
-23,2,61,1628937049.0,32.000000
-23,2,61,1628937049.0,32.000000
-23,2,61,1628937049.0,32.000000
-23,2,61,1628937049.0,32.000000
-23,2,61,1628937049.0,32.000000
-23,2,61,1628937049.0,32.000000
-23,2,61,1628937049.0,32.000000
-23,2,61,1628937049.0,32.000000
-23,2,61,1628937049.0,32.000000
-23,2,61,1628937049.0,32.000000
-23,2,61,1628937049.0,32.000000
-23,2,61,1628937049.0,32.000000
-23,2,61,1628937049.0,32.000000
-23,2,61,1628937049.0,32.000000
-23,2,61,1628937049.0,32.000000
-23,2,61,1628937049.0,32.000000
-23,2,61,1628937049.0,32.000000
-23,2,61,1628937049.0,32.000000
-23,2,61,1628937049.0,32.000000
-23,2,61,1628937049.0,32.000000
-23,2,61,1628937049.0,32.000000
-23,2,61,1628937049.0,32.000000
-23,2,61,1628937049.0,32.000000
-23,2,61,1628937049.0,32.000000
-23,2,61,1628937049.0,32.000000
-23,2,61,1628937049.0,32.000000
-23,2,61,1628937049.0,32.000000
-23,2,61,1628937049.0,32.000000
-23,2,61,1628937049.0,32.000000
-23,2,61,1628937049.0,32.000000
-23,2,61,1628937049.0,32.000000
-23,2,61,1628937049.0,32.000000
-23,2,61,1628937049.0,32.000000
-23,2,61,1628937049.0,32.000000
-23,2,61,1628937049.0,32.000000
-23,2,61,1628937049.0,32.000000
-23,2,61,1628937049.0,32.000000
-23,2,61,1628937049.0,32.000000
-23,2,61,1628937049.0,32.000000
-24,2,61,1628937049.0,32.000000
-24,2,61,1628937049.0,32.000000
-23,2,61,1628937049.0,32.000000
-22,2,62,1628937049.0,32.000000
-22,1,61,1628937049.0,32.000000
-22,1,61,1628937049.0,32.000000
-22,1,61,1628937049.0,32.000000
-23,1,61,1628937049.0,32.000000
-22,4,61,1628937049.0,32.000000
-28,3,60,1628937049.0,32.000000
-26,2,61,1628937049.0,32.000000
-23,2,61,1628937049.0,32.000000
-23,2,62,1628937049.0,32.000000
-22,2,61,1628937049.0,32.000000
-22,2,62,1628937049.0,32.000000
-20,1,62,1628937049.0,32.000000
-22,2,62,1628937049.0,32.000000
-22,1,61,1628937049.0,32.000000
-21,2,61,1628937049.0,32.000000
-22,1,61,1628937049.0,32.000000
-22,2,62,1628937049.0,32.000000
-22,1,61,1628937049.0,32.000000
-23,2,61,1628937049.0,32.000000
-22,2,61,1628937049.0,32.000000
-23,2,61,1628937049.0,32.000000
-23,2,61,1628937049.0,32.000000
-23,2,61,1628937049.0,32.000000
-24,1,61,1628937049.0,32.000000
-23,2,61,1628937049.0,32.000000
-23,2,61,1628937049.0,32.000000
-24,2,61,1628937049.0,32.000000
-23,2,61,1628937049.0,32.000000
-23,2,62,1628937049.0,32.000000
-24,2,61,1628937049.0,32.000000
-21,1,62,1628937049.0,32.000000
-22,3,63,1628937049.0,32.000000
-24,4,62,1628937049.0,32.000000
-20,-2,61,1628937049.0,32.000000
-19,2,65,1628937049.0,32.000000
-17,1,61,1628937049.0,32.000000
-23,-4,62,1628937049.0,32.000000
-14,-2,64,1628937049.0,32.000000
-14,-3,61,1628937049.0,32.000000
-18,-5,60,1628937049.0,32.000000
-17,-3,61,1628937049.0,32.000000
-19,-2,62,1628937049.0,32.000000
-23,0,61,1628937049.0,32.000000
-24,0,61,1628937049.0,32.000000
-27,1,61,1628937049.0,32.000000
-28,1,60,1628937049.0,32.000000
-28,3,62,1628937049.0,32.000000
-25,4,62,1628937049.0,32.000000
-29,4,59,1628937049.0,32.000000
-39,3,57,1628937049.0,32.000000
-34,4,59,1628937049.0,32.000000
-32,1,58,1628937049.0,32.000000
-34,4,59,1628937049.0,32.000000
-31,6,58,1628937049.0,32.000000
-25,3,59,1628937049.0,32.000000
-22,3,56,1628937049.0,32.000000
-21,3,54,1628937049.0,32.000000
-21,3,53,1628937049.0,32.000000
-21,4,52,1628937049.0,32.000000
-22,4,54,1628937049.0,32.000000
-24,7,63,1628937049.0,32.000000
-60,12,79,1628937049.0,32.000000
-33,5,54,1628937049.0,32.000000
-37,3,58,1628937049.0,32.000000
-30,4,60,1628937049.0,32.000000
-31,6,60,1628937049.0,32.000000
-28,1,57,1628937049.0,32.000000
-26,-2,60,1628937049.0,32.000000
-31,0,59,1628937049.0,32.000000
-35,-3,55,1628937049.0,32.000000
-36,-3,55,1628937049.0,32.000000
-32,2,57,1628937049.0,32.000000
-35,1,56,1628937049.0,32.000000
-34,2,56,1628937049.0,32.000000
-33,2,57,1628937049.0,32.000000
-32,1,57,1628937049.0,32.000000
-31,2,58,1628937049.0,32.000000
-31,1,57,1628937049.0,32.000000
-31,1,58,1628937049.0,32.000000
-30,2,58,1628937049.0,32.000000
-30,2,58,1628937049.0,32.000000
-30,2,58,1628937049.0,32.000000
-30,2,59,1628937049.0,32.000000
-30,2,58,1628937049.0,32.000000
-30,2,58,1628937049.0,32.000000
-31,2,58,1628937049.0,32.000000
-30,2,59,1628937049.0,32.000000
-30,2,58,1628937049.0,32.000000
-30,2,58,1628937049.0,32.000000
-30,2,58,1628937049.0,32.000000
-30,2,58,1628937049.0,32.000000
-30,2,58,1628937049.0,32.000000
-30,1,58,1628937049.0,32.000000
-30,1,58,1628937049.0,32.000000
-30,1,58,1628937049.0,32.000000
-30,2,58,1628937049.0,32.000000
-30,1,57,1628937049.0,32.000000
-31,2,60,1628937049.0,32.000000
-31,1,57,1628937049.0,32.000000
-32,1,59,1628937049.0,32.000000
-31,2,60,1628937049.0,32.000000
-29,3,57,1628937049.0,32.000000
-33,1,58,1628937049.0,32.000000
-30,0,59,1628937049.0,32.000000
-29,2,59,1628937049.0,32.000000
-30,2,57,1628937049.0,32.000000
-29,3,59,1628937049.0,32.000000
-28,2,60,1628937049.0,32.000000
-31,0,58,1628937049.0,32.000000
-32,1,56,1628937049.0,32.000000
-35,2,56,1628937049.0,32.000000
-35,3,57,1628937049.0,32.000000
-34,2,55,1628937049.0,32.000000
-33,1,57,1628937049.0,32.000000
-34,1,58,1628937049.0,32.000000
-33,1,56,1628937049.0,32.000000
-27,1,59,1628937049.0,32.000000
-28,3,61,1628937049.0,32.000000
-32,2,58,1628937049.0,32.000000
-33,1,57,1628937049.0,32.000000
-32,2,57,1628937049.0,32.000000
-35,2,56,1628937049.0,32.000000
-33,2,56,1628937049.0,32.000000
-31,2,59,1628937049.0,32.000000
-31,1,58,1628937049.0,32.000000
-31,1,58,1628937049.0,32.000000
-34,1,55,1628937049.0,32.000000
-36,2,55,1628937049.0,32.000000
-36,3,55,1628937049.0,32.000000
-36,2,55,1628937049.0,32.000000
-32,1,57,1628937049.0,32.000000
-33,1,56,1628937049.0,32.000000
-36,2,55,1628937049.0,32.000000
-37,3,55,1628937049.0,32.000000
-35,2,56,1628937049.0,32.000000
-32,1,57,1628937049.0,32.000000
-33,1,57,1628937049.0,32.000000
-34,1,56,1628937049.0,32.000000
-38,2,54,1628937049.0,32.000000
-36,2,55,1628937049.0,32.000000
-34,2,56,1628937049.0,32.000000
-34,1,56,1628937049.0,32.000000
-32,0,57,1628937049.0,32.000000
-32,1,57,1628937049.0,32.000000
-34,2,57,1628937049.0,32.000000
-35,2,56,1628937049.0,32.000000
-33,3,57,1628937049.0,32.000000
-34,2,56,1628937049.0,32.000000
-34,1,56,1628937049.0,32.000000
-34,0,56,1628937049.0,32.000000
-34,1,56,1628937049.0,32.000000
-36,2,54,1628937049.0,32.000000
-34,3,57,1628937049.0,32.000000
-34,1,56,1628937049.0,32.000000
-34,0,56,1628937049.0,32.000000
-35,1,56,1628937049.0,32.000000
-35,2,56,1628937049.0,32.000000
-35,2,55,1628937049.0,32.000000
-32,3,59,1628937049.0,32.000000
-31,3,58,1628937049.0,32.000000
-33,1,57,1628937049.0,32.000000
-32,2,57,1628937049.0,32.000000
-37,1,54,1628937049.0,32.000000
-39,3,56,1628937049.0,32.000000
-33,1,56,1628937049.0,32.000000
-28,2,60,1628937049.0,32.000000
-31,2,56,1628937049.0,32.000000
-24,-1,61,1628937049.0,32.000000
-17,3,65,1628937049.0,32.000000
-24,3,62,1628937049.0,32.000000
-32,2,58,1628937049.0,32.000000
-33,1,56,1628937049.0,32.000000
-31,1,58,1628937049.0,32.000000
-33,2,58,1628937049.0,32.000000
-32,2,58,1628937049.0,32.000000
-31,1,58,1628937049.0,32.000000
-31,1,58,1628937049.0,32.000000
-30,1,58,1628937049.0,32.000000
-29,1,59,1628937049.0,32.000000
-29,0,58,1628937049.0,32.000000
-28,1,59,1628937049.0,32.000000
-29,1,59,1628937049.0,32.000000
-29,1,58,1628937049.0,32.000000
-29,1,59,1628937049.0,32.000000
-29,1,59,1628937049.0,32.000000
-29,1,59,1628937049.0,32.000000
-29,1,58,1628937049.0,32.000000
-30,1,58,1628937049.0,32.000000
-29,2,58,1628937049.0,32.000000
-28,2,59,1628937049.0,32.000000
-30,1,60,1628937049.0,32.000000
-27,2,60,1628937049.0,32.000000
-29,3,59,1628937049.0,32.000000
-28,0,59,1628937049.0,32.000000
-25,1,61,1628937049.0,32.000000
-25,1,60,1628937049.0,32.000000
-26,2,60,1628937049.0,32.000000
-26,2,60,1628937049.0,32.000000
-26,2,60,1628937049.0,32.000000
-25,2,60,1628937049.0,32.000000
-26,2,60,1628937049.0,32.000000
-26,2,60,1628937049.0,32.000000
-25,2,60,1628937049.0,32.000000
-25,3,60,1628937049.0,32.000000
-27,-1,60,1628937049.0,32.000000
-26,2,60,1628937049.0,32.000000
-27,2,60,1628937049.0,32.000000
-27,2,60,1628937049.0,32.000000
-27,2,60,1628937049.0,32.000000
-28,2,59,1628937049.0,32.000000
-28,2,59,1628937049.0,32.000000
-29,2,60,1628937049.0,32.000000
-29,2,59,1628937049.0,32.000000
-30,2,59,1628937049.0,32.000000
-30,2,59,1628937049.0,32.000000
-32,3,57,1628937049.0,32.000000
-29,1,59,1628937049.0,32.000000
-30,1,57,1628937049.0,32.000000
-30,0,59,1628937049.0,32.000000
-30,0,58,1628937049.0,32.000000
-30,1,59,1628937049.0,32.000000
-30,1,59,1628937049.0,32.000000
-30,1,58,1628937049.0,32.000000
-30,1,58,1628937049.0,32.000000
-30,1,59,1628937049.0,32.000000
-30,0,58,1628937049.0,32.000000
-29,1,59,1628937049.0,32.000000
-30,1,58,1628937049.0,32.000000
-31,1,59,1628937049.0,32.000000
-29,0,58,1628937049.0,32.000000
-30,1,58,1628937049.0,32.000000
-30,0,58,1628937049.0,32.000000
-30,0,58,1628937049.0,32.000000
-30,1,59,1628937049.0,32.000000
-30,0,58,1628937049.0,32.000000
-30,0,59,1628937049.0,32.000000
-30,0,58,1628937049.0,32.000000
-30,0,59,1628937049.0,32.000000
-30,0,58,1628937049.0,32.000000
-30,1,59,1628937049.0,32.000000
-30,1,59,1628937049.0,32.000000
-30,0,58,1628937049.0,32.000000
-30,0,58,1628937049.0,32.000000
-30,0,58,1628937049.0,32.000000
-30,1,59,1628937049.0,32.000000
-30,0,58,1628937049.0,32.000000
-30,1,58,1628937049.0,32.000000
-30,0,58,1628937049.0,32.000000
-30,0,58,1628937049.0,32.000000
-30,0,58,1628937049.0,32.000000
-30,0,58,1628937049.0,32.000000
-30,0,58,1628937049.0,32.000000
-30,0,58,1628937049.0,32.000000
-30,0,59,1628937049.0,32.000000
-30,0,58,1628937049.0,32.000000
-30,0,58,1628937049.0,32.000000
-30,0,58,1628937049.0,32.000000
-30,0,58,1628937049.0,32.000000
-30,0,58,1628937049.0,32.000000
-30,1,59,1628937049.0,32.000000
-31,0,59,1628937049.0,32.000000
-30,0,58,1628937049.0,32.000000
-30,0,58,1628937049.0,32.000000
-30,0,59,1628937049.0,32.000000
-30,0,58,1628937049.0,32.000000
-31,1,58,1628937049.0,32.000000
-30,0,59,1628937049.0,32.000000
-31,0,58,1628937049.0,32.000000
-31,0,58,1628937049.0,32.000000
-30,0,58,1628937049.0,32.000000
-30,1,58,1628937049.0,32.000000
-30,0,58,1628937049.0,32.000000
-30,0,58,1628937049.0,32.000000
-31,1,58,1628937049.0,32.000000
-29,1,58,1628937049.0,32.000000
-30,0,58,1628937049.0,32.000000
-30,0,58,1628937049.0,32.000000
-30,1,59,1628937049.0,32.000000
-30,0,58,1628937049.0,32.000000
-30,1,58,1628937049.0,32.000000
-30,1,59,1628937049.0,32.000000
-30,1,58,1628937049.0,32.000000
-30,0,59,1628937049.0,32.000000
-29,0,58,1628937049.0,32.000000
-31,1,59,1628937049.0,32.000000
-30,0,58,1628937049.0,32.000000
-30,1,59,1628937049.0,32.000000
-31,0,57,1628937049.0,32.000000
-31,1,57,1628937049.0,32.000000
-32,1,58,1628937049.0,32.000000
-32,1,57,1628937049.0,32.000000
-31,1,58,1628937049.0,32.000000
-32,1,57,1628937049.0,32.000000
-31,1,58,1628937049.0,32.000000
-32,1,58,1628937049.0,32.000000
-31,1,59,1628937049.0,32.000000
-29,-1,57,1628937049.0,32.000000
-29,0,58,1628937049.0,32.000000
-30,1,59,1628937049.0,32.000000
-30,1,58,1628937049.0,32.000000
-31,1,59,1628937049.0,32.000000
-31,1,58,1628937049.0,32.000000
-31,1,58,1628937049.0,32.000000
-30,1,58,1628937049.0,32.000000
-30,1,59,1628937049.0,32.000000
-30,1,59,1628937049.0,32.000000
-30,0,59,1628937049.0,32.000000
-30,1,59,1628937049.0,32.000000
-29,1,58,1628937049.0,32.000000
-30,1,59,1628937049.0,32.000000
-30,1,59,1628937049.0,32.000000
-30,1,59,1628937049.0,32.000000
-29,0,58,1628937049.0,32.000000
-29,1,59,1628937049.0,32.000000
-30,1,59,1628937049.0,32.000000
-30,1,59,1628937049.0,32.000000
-30,1,59,1628937049.0,32.000000
-30,1,58,1628937049.0,32.000000
-30,1,59,1628937049.0,32.000000
-29,1,59,1628937049.0,32.000000
-30,1,58,1628937049.0,32.000000
-29,0,59,1628937049.0,32.000000
-30,0,59,1628937049.0,32.000000
-30,1,59,1628937049.0,32.000000
-30,1,58,1628937049.0,32.000000
-30,1,58,1628937049.0,32.000000
-30,1,59,1628937049.0,32.000000
-29,0,58,1628937049.0,32.000000
-30,1,59,1628937049.0,32.000000
-30,1,59,1628937049.0,32.000000
-30,1,59,1628937049.0,32.000000
-30,1,59,1628937049.0,32.000000
-30,1,59,1628937049.0,32.000000
-30,1,58,1628937049.0,32.000000
-30,0,58,1628937049.0,32.000000
-30,1,59,1628937049.0,32.000000
-30,1,59,1628937049.0,32.000000
-30,1,58,1628937049.0,32.000000
-30,1,59,1628937049.0,32.000000
-30,1,59,1628937049.0,32.000000
-30,1,59,1628937049.0,32.000000
-30,1,58,1628937049.0,32.000000
-30,1,59,1628937049.0,32.000000
-30,0,59,1628937049.0,32.000000
-30,1,58,1628937049.0,32.000000
-29,1,59,1628937049.0,32.000000
-30,1,58,1628937049.0,32.000000
-30,1,59,1628937049.0,32.000000
-29,1,58,1628937049.0,32.000000
-30,1,59,1628937049.0,32.000000
-29,1,59,1628937049.0,32.000000
-30,1,59,1628937049.0,32.000000
-30,1,59,1628937049.0,32.000000
-29,1,59,1628937049.0,32.000000
-30,1,59,1628937049.0,32.000000
-30,1,59,1628937049.0,32.000000
-30,1,59,1628937049.0,32.000000
-30,1,59,1628937049.0,32.000000
-30,1,58,1628937049.0,32.000000
-30,1,59,1628937049.0,32.000000
-30,1,59,1628937049.0,32.000000
-30,1,59,1628937049.0,32.000000
-30,1,59,1628937049.0,32.000000
-30,0,58,1628937049.0,32.000000
-30,1,59,1628937049.0,32.000000
-29,1,59,1628937049.0,32.000000
-30,0,58,1628937049.0,32.000000
-29,1,58,1628937049.0,32.000000
-30,1,59,1628937049.0,32.000000
-30,0,58,1628937049.0,32.000000
-29,0,58,1628937049.0,32.000000
-30,1,59,1628937049.0,32.000000
-30,1,59,1628937049.0,32.000000
-30,1,59,1628937049.0,32.000000
-29,1,59,1628937049.0,32.000000
-30,1,58,1628937049.0,32.000000
-30,1,59,1628937049.0,32.000000
-29,1,59,1628937049.0,32.000000
-30,0,58,1628937049.0,32.000000
-29,1,58,1628937049.0,32.000000
-30,1,59,1628937049.0,32.000000
-29,1,59,1628937049.0,32.000000
-30,1,59,1628937049.0,32.000000
-30,0,59,1628937049.0,32.000000
-29,1,59,1628937049.0,32.000000
-30,0,58,1628937049.0,32.000000
-30,1,59,1628937049.0,32.000000
-29,1,59,1628937049.0,32.000000
-30,1,59,1628937049.0,32.000000
-30,1,59,1628937049.0,32.000000
-30,1,59,1628937049.0,32.000000
-30,1,59,1628937049.0,32.000000
-29,1,59,1628937049.0,32.000000
-30,0,59,1628937049.0,32.000000
-29,1,59,1628937049.0,32.000000
-30,1,59,1628937049.0,32.000000
-30,1,59,1628937049.0,32.000000
-30,1,59,1628937049.0,32.000000
-29,1,59,1628937049.0,32.000000
-29,1,59,1628937049.0,32.000000
-30,1,58,1628937049.0,32.000000
-29,0,59,1628937049.0,32.000000
-30,1,59,1628937049.0,32.000000
-29,0,59,1628937049.0,32.000000
-30,1,59,1628937049.0,32.000000
-29,1,59,1628937049.0,32.000000
-29,1,58,1628937049.0,32.000000
-30,1,58,1628937049.0,32.000000
-30,0,58,1628937049.0,32.000000
-30,1,59,1628937049.0,32.000000
-30,1,58,1628937049.0,32.000000
-30,1,59,1628937049.0,32.000000
-29,1,59,1628937049.0,32.000000
-30,0,59,1628937049.0,32.000000
-29,1,59,1628937049.0,32.000000
-29,1,59,1628937049.0,32.000000
-29,1,59,1628937049.0,32.000000
-30,0,58,1628937049.0,32.000000
-30,1,59,1628937049.0,32.000000
-30,0,58,1628937049.0,32.000000
-29,1,59,1628937049.0,32.000000
-29,1,59,1628937049.0,32.000000
-30,1,59,1628937049.0,32.000000
-30,1,59,1628937049.0,32.000000
-29,1,58,1628937049.0,32.000000
-30,1,59,1628937049.0,32.000000
-29,0,58,1628937049.0,32.000000
-30,0,59,1628937049.0,32.000000
-29,0,59,1628937049.0,32.000000
-30,0,59,1628937049.0,32.000000
-29,1,59,1628937049.0,32.000000
-30,1,59,1628937049.0,32.000000
-29,1,59,1628937049.0,32.000000
-30,0,59,1628937049.0,32.000000
-29,1,59,1628937049.0,32.000000
-30,1,58,1628937049.0,32.000000
-30,1,59,1628937049.0,32.000000
-29,1,59,1628937049.0,32.000000
-30,0,59,1628937049.0,32.000000
-29,1,59,1628937049.0,32.000000
-29,1,59,1628937049.0,32.000000
-29,1,59,1628937049.0,32.000000
-30,1,59,1628937049.0,32.000000
-29,1,59,1628937049.0,32.000000
-30,0,58,1628937049.0,32.000000
-30,0,58,1628937049.0,32.000000
-29,0,59,1628937049.0,32.000000
-30,0,58,1628937049.0,32.000000
-30,1,58,1628937049.0,32.000000
-29,1,59,1628937049.0,32.000000
-29,1,59,1628937049.0,32.000000
-30,0,59,1628937049.0,32.000000
-29,0,59,1628937049.0,32.000000
-29,1,59,1628937049.0,32.000000
-29,1,58,1628937049.0,32.000000
-29,1,59,1628937049.0,32.000000
-29,0,59,1628937049.0,32.000000
-29,1,59,1628937049.0,32.000000
-29,1,59,1628937049.0,32.000000
-29,1,59,1628937049.0,32.000000
-29,1,59,1628937049.0,32.000000
-29,1,59,1628937049.0,32.000000
-29,0,59,1628937049.0,32.000000
-29,1,59,1628937049.0,32.000000
-29,1,59,1628937049.0,32.000000
-29,1,59,1628937049.0,32.000000
-29,1,59,1628937049.0,32.000000
-29,1,59,1628937049.0,32.000000
-30,0,59,1628937049.0,32.000000
-29,1,59,1628937049.0,32.000000
-30,1,58,1628937049.0,32.000000
-29,1,59,1628937049.0,32.000000
-30,1,59,1628937049.0,32.000000
-30,1,58,1628937049.0,32.000000
-30,1,59,1628937049.0,32.000000
-29,1,59,1628937049.0,32.000000
-30,1,59,1628937049.0,32.000000
-29,1,59,1628937049.0,32.000000
-29,1,59,1628937049.0,32.000000
-30,1,59,1628937049.0,32.000000
-29,1,58,1628937049.0,32.000000
-29,1,59,1628937049.0,32.000000
-29,1,59,1628937049.0,32.000000
-29,1,59,1628937049.0,32.000000
-29,1,59,1628937049.0,32.000000
-29,1,59,1628937049.0,32.000000
-29,1,59,1628937049.0,32.000000
-29,1,59,1628937049.0,32.000000
-29,1,59,1628937049.0,32.000000
-29,1,59,1628937049.0,32.000000
-29,1,59,1628937049.0,32.000000
-29,1,59,1628937049.0,32.000000
-29,1,59,1628937049.0,32.000000
-28,1,59,1628937049.0,32.000000
-29,1,59,1628937049.0,32.000000
-28,1,59,1628937049.0,32.000000
-29,1,59,1628937049.0,32.000000
-28,1,59,1628937049.0,32.000000
-29,1,59,1628937049.0,32.000000
-28,1,59,1628937049.0,32.000000
-28,2,59,1628937049.0,32.000000
-28,1,59,1628937049.0,32.000000
-28,1,59,1628937049.0,32.000000
-28,1,59,1628937049.0,32.000000
-29,1,59,1628937049.0,32.000000
-29,1,59,1628937049.0,32.000000
-29,1,59,1628937049.0,32.000000
-28,2,59,1628937049.0,32.000000
-29,2,59,1628937049.0,32.000000
-28,2,59,1628937049.0,32.000000
-28,2,59,1628937049.0,32.000000
-28,2,59,1628937049.0,32.000000
-28,1,59,1628937049.0,32.000000
-28,2,59,1628937049.0,32.000000
-28,1,59,1628937049.0,32.000000
-28,2,59,1628937049.0,32.000000
-28,1,59,1628937049.0,32.000000
-28,2,59,1628937049.0,32.000000
-28,2,59,1628937049.0,32.000000
-28,2,59,1628937049.0,32.000000
-28,1,59,1628937049.0,32.000000
-28,2,59,1628937049.0,32.000000
-29,2,59,1628937049.0,32.000000
-29,2,59,1628937049.0,32.000000
-25,2,60,1628937049.0,32.000000
-23,3,62,1628937049.0,32.000000
-28,2,59,1628937049.0,32.000000
-30,2,58,1628937049.0,32.000000
-30,1,58,1628937049.0,32.000000
-32,2,57,1628937049.0,32.000000
-29,2,59,1628937049.0,32.000000
-30,2,58,1628937049.0,32.000000
-31,2,58,1628937049.0,32.000000
-30,2,58,1628937049.0,32.000000
-29,2,59,1628937049.0,32.000000
-29,2,59,1628937049.0,32.000000
-24,5,61,1628937049.0,32.000000
-28,1,58,1628937049.0,32.000000
-29,1,59,1628937049.0,32.000000
-30,2,58,1628937049.0,32.000000
-30,2,58,1628937049.0,32.000000
-30,2,58,1628937049.0,32.000000
-30,2,59,1628937049.0,32.000000
-28,1,59,1628937049.0,32.000000
-28,2,59,1628937049.0,32.000000
-29,1,59,1628937049.0,32.000000
-29,1,59,1628937049.0,32.000000
-28,2,59,1628937049.0,32.000000
-30,1,59,1628937049.0,32.000000
-30,1,59,1628937049.0,32.000000
-30,2,59,1628937049.0,32.000000
-30,2,59,1628937049.0,32.000000
-30,2,59,1628937049.0,32.000000
-30,1,58,1628937049.0,32.000000
-29,1,59,1628937049.0,32.000000
-30,1,58,1628937049.0,32.000000
-30,2,59,1628937049.0,32.000000
-30,2,58,1628937049.0,32.000000
-30,2,58,1628937049.0,32.000000
-30,2,59,1628937049.0,32.000000
-30,2,59,1628937049.0,32.000000
-29,4,61,1628937049.0,32.000000
-34,6,60,1628937049.0,32.000000
-31,5,67,1628937049.0,32.000000
-32,11,64,1628937049.0,32.000000
-27,9,58,1628937049.0,32.000000
-30,-1,56,1628937049.0,32.000000
-32,-4,56,1628937049.0,32.000000
-34,-7,53,1628937049.0,32.000000
-35,-4,50,1628937049.0,32.000000
-29,-2,60,1628937049.0,32.000000
-39,1,59,1628937049.0,32.000000
-35,-7,58,1628937049.0,32.000000
-30,-4,56,1628937049.0,32.000000
-30,-1,53,1628937049.0,32.000000
-22,-2,49,1628937049.0,32.000000
-19,-1,52,1628937049.0,32.000000
-19,5,63,1628937049.0,32.000000
-35,3,59,1628937049.0,32.000000
-37,5,59,1628937049.0,32.000000
-35,7,59,1628937049.0,32.000000
-35,8,58,1628937049.0,32.000000
-35,10,60,1628937049.0,32.000000
-33,1,56,1628937049.0,32.000000
-35,-1,59,1628937049.0,32.000000
-30,-1,57,1628937049.0,32.000000
-29,-3,58,1628937049.0,32.000000
-34,-3,57,1628937049.0,32.000000
-32,2,57,1628937049.0,32.000000
-32,1,57,1628937049.0,32.000000
-34,0,57,1628937049.0,32.000000
-33,0,57,1628937049.0,32.000000
-30,3,57,1628937049.0,32.000000
-32,1,57,1628937049.0,32.000000
-32,-1,58,1628937049.0,32.000000
-33,-1,57,1628937049.0,32.000000
-34,0,57,1628937049.0,32.000000
-35,1,56,1628937049.0,32.000000
-35,2,56,1628937049.0,32.000000
-35,2,56,1628937049.0,32.000000
-35,1,56,1628937049.0,32.000000
-34,0,56,1628937049.0,32.000000
-35,1,55,1628937049.0,32.000000
-35,1,55,1628937049.0,32.000000
-35,2,56,1628937049.0,32.000000
-35,1,57,1628937049.0,32.000000
-35,1,55,1628937049.0,32.000000
-34,1,56,1628937049.0,32.000000
-36,1,55,1628937049.0,32.000000
-36,2,56,1628937049.0,32.000000
-36,2,55,1628937049.0,32.000000
-36,2,55,1628937049.0,32.000000
-35,2,56,1628937049.0,32.000000
-37,3,54,1628937049.0,32.000000
-36,3,55,1628937049.0,32.000000
-35,3,55,1628937049.0,32.000000
-36,3,55,1628937049.0,32.000000
-35,3,55,1628937049.0,32.000000
-34,3,56,1628937049.0,32.000000
-34,3,56,1628937049.0,32.000000
-35,4,56,1628937049.0,32.000000
-34,4,56,1628937049.0,32.000000
-35,4,56,1628937049.0,32.000000
-35,4,55,1628937049.0,32.000000
-35,4,56,1628937049.0,32.000000
-33,5,56,1628937049.0,32.000000
-33,6,56,1628937049.0,32.000000
-33,6,56,1628937049.0,32.000000
-34,6,56,1628937049.0,32.000000
-34,6,56,1628937049.0,32.000000
-34,5,56,1628937049.0,32.000000
-33,6,57,1628937049.0,32.000000
-33,5,56,1628937049.0,32.000000
-34,4,56,1628937049.0,32.000000
-33,5,56,1628937049.0,32.000000
-34,5,56,1628937049.0,32.000000
-35,6,55,1628937049.0,32.000000
-36,5,55,1628937049.0,32.000000
-36,5,54,1628937049.0,32.000000
-36,5,56,1628937049.0,32.000000
-38,4,54,1628937049.0,32.000000
-37,4,54,1628937049.0,32.000000
-35,3,56,1628937049.0,32.000000
-36,3,55,1628937049.0,32.000000
-38,3,54,1628937049.0,32.000000
-38,1,54,1628937049.0,32.000000
-41,2,53,1628937049.0,32.000000
-36,2,54,1628937049.0,32.000000
-35,2,55,1628937049.0,32.000000
-36,2,55,1628937049.0,32.000000
-35,2,56,1628937049.0,32.000000
-34,2,56,1628937049.0,32.000000
-35,2,56,1628937049.0,32.000000
-35,2,56,1628937049.0,32.000000
-32,5,57,1628937049.0,32.000000
-32,1,57,1628937049.0,32.000000
-31,1,58,1628937049.0,32.000000
-31,2,58,1628937049.0,32.000000
-31,2,57,1628937049.0,32.000000
-30,3,59,1628937049.0,32.000000
-31,2,58,1628937049.0,32.000000
-31,2,57,1628937049.0,32.000000
-31,3,59,1628937049.0,32.000000
-35,3,56,1628937049.0,32.000000
-32,3,57,1628937049.0,32.000000
-30,2,59,1628937049.0,32.000000
-31,2,57,1628937049.0,32.000000
-33,2,57,1628937049.0,32.000000
-31,3,58,1628937049.0,32.000000
-29,3,59,1628937049.0,32.000000
-29,1,58,1628937049.0,32.000000
-31,3,58,1628937049.0,32.000000
-29,2,59,1628937049.0,32.000000
-26,1,60,1628937049.0,32.000000
-32,1,57,1628937049.0,32.000000
-31,2,58,1628937049.0,32.000000
-30,2,58,1628937049.0,32.000000
-31,1,58,1628937049.0,32.000000
-33,1,56,1628937049.0,32.000000
-31,2,58,1628937049.0,32.000000
-32,1,57,1628937049.0,32.000000
-32,1,57,1628937049.0,32.000000
-32,1,57,1628937049.0,32.000000
-32,2,57,1628937049.0,32.000000
-31,1,58,1628937049.0,32.000000
-31,1,57,1628937049.0,32.000000
-31,1,58,1628937049.0,32.000000
-32,1,57,1628937049.0,32.000000
-31,2,57,1628937049.0,32.000000
-31,1,58,1628937049.0,32.000000
-31,1,57,1628937049.0,32.000000
-32,1,58,1628937049.0,32.000000
-31,1,58,1628937049.0,32.000000
-32,1,57,1628937049.0,32.000000
-32,1,57,1628937049.0,32.000000
-32,1,57,1628937049.0,32.000000
-31,1,57,1628937049.0,32.000000
-32,1,58,1628937049.0,32.000000
-31,1,58,1628937049.0,32.000000
-32,1,57,1628937049.0,32.000000
-32,1,58,1628937049.0,32.000000
-31,1,58,1628937049.0,32.000000
-32,1,57,1628937049.0,32.000000
-32,0,57,1628937049.0,32.000000
-31,0,57,1628937049.0,32.000000
-32,0,57,1628937049.0,32.000000
-32,0,57,1628937049.0,32.000000
-31,0,57,1628937049.0,32.000000
-32,0,57,1628937049.0,32.000000
-32,0,57,1628937049.0,32.000000
-32,0,58,1628937049.0,32.000000
-32,0,57,1628937049.0,32.000000
-32,0,58,1628937049.0,32.000000
-32,0,57,1628937049.0,32.000000
-32,0,58,1628937049.0,32.000000
-32,1,58,1628937049.0,32.000000
-31,1,57,1628937049.0,32.000000
-32,1,57,1628937049.0,32.000000
-31,1,58,1628937049.0,32.000000
-32,0,57,1628937049.0,32.000000
-32,1,57,1628937049.0,32.000000
-32,1,57,1628937049.0,32.000000
-32,1,57,1628937049.0,32.000000
-32,1,57,1628937049.0,32.000000
-32,1,58,1628937049.0,32.000000
-32,0,57,1628937049.0,32.000000
-31,-2,56,1628937049.0,32.000000
-30,-2,54,1628937049.0,32.000000
-41,6,57,1628937049.0,32.000000
-45,3,54,1628937049.0,32.000000
-31,7,66,1628937049.0,32.000000
-34,-11,49,1628937049.0,32.000000
-24,-13,54,1628937049.0,32.000000
8,1,69,1628937049.0,32.000000
12,-5,64,1628937049.0,32.000000
24,-1,65,1628937049.0,32.000000
27,-2,54,1628937049.0,32.000000
27,0,54,1628937049.0,32.000000
31,1,65,1628937049.0,32.000000
19,0,67,1628937049.0,32.000000
25,-3,59,1628937049.0,32.000000
23,-3,63,1628937049.0,32.000000
19,-4,63,1628937049.0,32.000000
20,-3,56,1628937049.0,32.000000
23,-7,56,1628937049.0,32.000000
22,-7,60,1628937049.0,32.000000
22,-4,57,1628937049.0,32.000000
21,-3,57,1628937049.0,32.000000
23,-3,57,1628937049.0,32.000000
23,-5,56,1628937049.0,32.000000
28,-2,55,1628937049.0,32.000000
24,-3,57,1628937049.0,32.000000
23,-4,58,1628937049.0,32.000000
23,-3,65,1628937049.0,32.000000
22,0,65,1628937049.0,32.000000
22,0,60,1628937049.0,32.000000
24,-1,60,1628937049.0,32.000000
24,-2,59,1628937049.0,32.000000
25,1,51,1628937049.0,32.000000
21,-3,59,1628937049.0,32.000000
17,-1,67,1628937049.0,32.000000
15,2,63,1628937049.0,32.000000
16,-2,60,1628937049.0,32.000000
20,4,67,1628937049.0,32.000000
29,-3,56,1628937049.0,32.000000
26,3,57,1628937049.0,32.000000
25,2,61,1628937049.0,32.000000
23,3,61,1628937049.0,32.000000
25,1,60,1628937049.0,32.000000
27,4,60,1628937049.0,32.000000
24,-1,59,1628937049.0,32.000000
21,0,58,1628937049.0,32.000000
20,5,60,1628937049.0,32.000000
17,0,64,1628937049.0,32.000000
7,2,62,1628937049.0,32.000000
15,1,61,1628937049.0,32.000000
17,-3,62,1628937049.0,32.000000
23,2,59,1628937049.0,32.000000
20,3,60,1628937049.0,32.000000
26,5,63,1628937049.0,32.000000
26,4,61,1628937049.0,32.000000
19,2,61,1628937049.0,32.000000
27,5,63,1628937049.0,32.000000
18,3,60,1628937049.0,32.000000
10,2,61,1628937049.0,32.000000
18,3,59,1628937049.0,32.000000
19,9,60,1628937049.0,32.000000
15,1,63,1628937049.0,32.000000
13,5,63,1628937049.0,32.000000
16,1,62,1628937049.0,32.000000
17,2,62,1628937049.0,32.000000
27,3,62,1628937049.0,32.000000
25,3,62,1628937049.0,32.000000
26,3,55,1628937049.0,32.000000
25,4,63,1628937049.0,32.000000
14,2,59,1628937049.0,32.000000
25,3,61,1628937049.0,32.000000
14,1,59,1628937049.0,32.000000
15,0,63,1628937049.0,32.000000
21,5,55,1628937049.0,32.000000
15,-1,59,1628937049.0,32.000000
18,3,61,1628937049.0,32.000000
12,1,61,1628937049.0,32.000000
19,2,61,1628937049.0,32.000000
14,1,61,1628937049.0,32.000000
27,2,61,1628937049.0,32.000000
24,2,61,1628937049.0,32.000000
24,3,60,1628937049.0,32.000000
25,2,58,1628937049.0,32.000000
20,2,60,1628937049.0,32.000000
24,3,61,1628937049.0,32.000000
27,5,60,1628937049.0,32.000000
18,-1,59,1628937049.0,32.000000
22,-1,57,1628937049.0,32.000000
21,6,58,1628937049.0,32.000000
15,0,60,1628937049.0,32.000000
18,2,60,1628937049.0,32.000000
12,0,60,1628937049.0,32.000000
16,0,58,1628937049.0,32.000000
19,0,61,1628937049.0,32.000000
25,-3,56,1628937049.0,32.000000
29,3,64,1628937049.0,32.000000
18,-1,59,1628937049.0,32.000000
27,4,60,1628937049.0,32.000000
17,-3,58,1628937049.0,32.000000
19,1,63,1628937049.0,32.000000
24,1,59,1628937049.0,32.000000
27,3,64,1628937049.0,32.000000
24,-4,67,1628937049.0,32.000000
13,3,54,1628937049.0,32.000000
11,1,64,1628937049.0,32.000000
11,0,62,1628937049.0,32.000000
17,2,65,1628937049.0,32.000000
15,4,65,1628937049.0,32.000000
6,-4,62,1628937049.0,32.000000
21,8,68,1628937049.0,32.000000
8,1,69,1628937049.0,32.000000
11,5,65,1628937049.0,32.000000
3,2,60,1628937049.0,32.000000
-17,-6,54,1628937049.0,32.000000
-16,3,65,1628937049.0,32.000000
-29,8,61,1628937049.0,32.000000
-56,3,47,1628937049.0,32.000000
-51,-5,46,1628937049.0,32.000000
-32,0,59,1628937049.0,32.000000
-28,-1,58,1628937049.0,32.000000
-31,0,57,1628937049.0,32.000000
-32,1,57,1628937049.0,32.000000
-31,1,58,1628937049.0,32.000000
-30,0,59,1628937049.0,32.000000
-31,1,58,1628937049.0,32.000000
-31,1,58,1628937049.0,32.000000
-30,0,58,1628937049.0,32.000000
-30,1,59,1628937049.0,32.000000
-30,0,58,1628937049.0,32.000000
-30,0,58,1628937049.0,32.000000
-30,1,58,1628937049.0,32.000000
-31,1,58,1628937049.0,32.000000
-31,0,58,1628937049.0,32.000000
-30,1,58,1628937049.0,32.000000
-31,1,58,1628937049.0,32.000000
-31,1,58,1628937049.0,32.000000
-31,1,57,1628937049.0,32.000000
-30,2,59,1628937049.0,32.000000
-31,1,58,1628937049.0,32.000000
-30,2,59,1628937049.0,32.000000
-29,2,58,1628937049.0,32.000000
-30,2,59,1628937049.0,32.000000
-30,2,58,1628937049.0,32.000000
-30,2,58,1628937049.0,32.000000
-30,2,58,1628937049.0,32.000000
-31,2,58,1628937049.0,32.000000
-30,2,58,1628937049.0,32.000000
-30,1,59,1628937049.0,32.000000
-31,2,58,1628937049.0,32.000000
-30,2,58,1628937049.0,32.000000
-31,2,58,1628937049.0,32.000000
-30,2,59,1628937049.0,32.000000
-30,2,59,1628937049.0,32.000000
-31,2,58,1628937049.0,32.000000
-29,2,59,1628937049.0,32.000000
-31,2,58,1628937049.0,32.000000
-30,2,59,1628937049.0,32.000000
-29,2,59,1628937049.0,32.000000
-30,1,58,1628937049.0,32.000000
-30,2,59,1628937049.0,32.000000
-31,2,58,1628937049.0,32.000000
-31,2,58,1628937049.0,32.000000
-30,2,59,1628937049.0,32.000000
-30,2,58,1628937049.0,32.000000
-30,2,58,1628937049.0,32.000000
-30,2,58,1628937049.0,32.000000
-30,1,58,1628937049.0,32.000000
-30,1,59,1628937049.0,32.000000
-30,2,59,1628937049.0,32.000000
-30,2,59,1628937049.0,32.000000
-30,1,58,1628937049.0,32.000000
-30,2,58,1628937049.0,32.000000
-30,2,59,1628937049.0,32.000000
-30,2,58,1628937049.0,32.000000
-30,2,58,1628937049.0,32.000000
-29,2,58,1628937049.0,32.000000
-30,1,59,1628937049.0,32.000000
-30,1,58,1628937049.0,32.000000
-31,2,58,1628937049.0,32.000000
-31,2,58,1628937049.0,32.000000
-30,2,58,1628937049.0,32.000000
-30,1,58,1628937049.0,32.000000
-29,1,59,1628937049.0,32.000000
-30,1,58,1628937049.0,32.000000
-30,1,59,1628937049.0,32.000000
-30,1,58,1628937049.0,32.000000
-29,1,59,1628937049.0,32.000000
-30,1,58,1628937049.0,32.000000
-30,1,59,1628937049.0,32.000000
-30,1,58,1628937049.0,32.000000
-30,1,59,1628937049.0,32.000000
-30,1,59,1628937049.0,32.000000
-30,1,59,1628937049.0,32.000000
-30,1,59,1628937049.0,32.000000
-29,1,59,1628937049.0,32.000000
-30,1,59,1628937049.0,32.000000
-30,1,58,1628937049.0,32.000000
-30,1,59,1628937049.0,32.000000
-30,1,59,1628937049.0,32.000000
-29,1,59,1628937049.0,32.000000
-30,1,59,1628937049.0,32.000000
-30,1,59,1628937049.0,32.000000
-30,1,59,1628937049.0,32.000000
-30,1,59,1628937049.0,32.000000
-30,1,59,1628937049.0,32.000000
-29,1,59,1628937049.0,32.000000
-29,1,59,1628937049.0,32.000000
-30,1,58,1628937049.0,32.000000
-30,1,59,1628937049.0,32.000000
-30,1,59,1628937049.0,32.000000
-29,1,59,1628937049.0,32.000000
-30,1,59,1628937049.0,32.000000
-30,1,59,1628937049.0,32.000000
-30,1,59,1628937049.0,32.000000
-30,1,59,1628937049.0,32.000000
-30,1,59,1628937049.0,32.000000
-30,1,59,1628937049.0,32.000000
-30,1,59,1628937049.0,32.000000
-30,1,59,1628937049.0,32.000000
-30,1,59,1628937049.0,32.000000
-30,1,58,1628937049.0,32.000000
-30,1,58,1628937049.0,32.000000
-30,1,58,1628937049.0,32.000000
-30,1,59,1628937049.0,32.000000
-30,1,59,1628937049.0,32.000000
-30,1,59,1628937049.0,32.000000
-29,1,59,1628937049.0,32.000000
-30,1,58,1628937049.0,32.000000
-30,1,59,1628937049.0,32.000000
-30,1,59,1628937049.0,32.000000
-30,1,58,1628937049.0,32.000000
-30,1,58,1628937049.0,32.000000
-30,1,58,1628937049.0,32.000000
-30,1,58,1628937049.0,32.000000
-30,1,59,1628937049.0,32.000000
-30,1,58,1628937049.0,32.000000
-30,1,59,1628937049.0,32.000000
-30,1,59,1628937049.0,32.000000
-30,1,59,1628937049.0,32.000000
-30,1,59,1628937049.0,32.000000
-30,1,59,1628937049.0,32.000000
-30,1,59,1628937049.0,32.000000
-30,1,59,1628937049.0,32.000000
-30,1,58,1628937049.0,32.000000
-30,1,58,1628937049.0,32.000000
-30,1,59,1628937049.0,32.000000
-30,1,58,1628937049.0,32.000000
-30,1,59,1628937049.0,32.000000
-30,1,58,1628937049.0,32.000000
-30,1,59,1628937049.0,32.000000
-30,1,59,1628937049.0,32.000000
-30,1,59,1628937049.0,32.000000
-30,1,58,1628937049.0,32.000000
-30,1,58,1628937049.0,32.000000
-30,1,58,1628937049.0,32.000000
-30,1,59,1628937049.0,32.000000
-30,1,58,1628937049.0,32.000000
-30,1,59,1628937049.0,32.000000
-30,1,58,1628937049.0,32.000000
-30,1,58,1628937049.0,32.000000
-30,1,58,1628937049.0,32.000000
-30,1,58,1628937049.0,32.000000
-30,1,59,1628937049.0,32.000000
-30,1,58,1628937049.0,32.000000
-30,1,59,1628937049.0,32.000000
-30,1,59,1628937049.0,32.000000
-30,1,58,1628937049.0,32.000000
-30,1,59,1628937049.0,32.000000
-30,1,58,1628937049.0,32.000000
-30,1,58,1628937049.0,32.000000
-30,1,58,1628937049.0,32.000000
-30,1,59,1628937049.0,32.000000
-30,1,58,1628937049.0,32.000000
-30,1,59,1628937049.0,32.000000
-30,1,59,1628937049.0,32.000000
-30,1,59,1628937049.0,32.000000
-30,1,58,1628937049.0,32.000000
-30,1,58,1628937049.0,32.000000
-30,1,59,1628937049.0,32.000000
-30,1,58,1628937049.0,32.000000
-30,1,58,1628937049.0,32.000000
-30,1,59,1628937049.0,32.000000
-30,0,59,1628937049.0,32.000000
-30,1,58,1628937049.0,32.000000
-31,1,58,1628937049.0,32.000000
-33,2,57,1628937049.0,32.000000
-30,-3,54,1628937049.0,32.000000
-34,3,58,1628937049.0,32.000000
-34,5,60,1628937049.0,32.000000
-23,3,62,1628937049.0,32.000000
-25,1,61,1628937049.0,32.000000
-29,3,59,1628937049.0,32.000000
-30,2,59,1628937049.0,32.000000
-30,2,58,1628937049.0,32.000000
-28,2,60,1628937049.0,32.000000
-28,3,59,1628937049.0,32.000000
-29,2,59,1628937049.0,32.000000
-29,3,59,1628937049.0,32.000000
-28,3,59,1628937049.0,32.000000
-28,3,59,1628937049.0,32.000000
-28,3,59,1628937049.0,32.000000
-28,3,59,1628937049.0,32.000000
-28,3,59,1628937049.0,32.000000
-28,3,59,1628937049.0,32.000000
-28,3,60,1628937049.0,32.000000
-29,3,59,1628937049.0,32.000000
-28,3,59,1628937049.0,32.000000
-28,3,59,1628937049.0,32.000000
-28,3,60,1628937049.0,32.000000
-28,3,59,1628937049.0,32.000000
-28,3,60,1628937049.0,32.000000
-29,3,58,1628937049.0,32.000000
-28,4,59,1628937049.0,32.000000
-32,-3,55,1628937049.0,32.000000
-28,3,60,1628937049.0,32.000000
-29,1,58,1628937049.0,32.000000
-30,1,59,1628937049.0,32.000000
-28,1,59,1628937049.0,32.000000
-30,1,59,1628937049.0,32.000000
-29,2,59,1628937049.0,32.000000
-29,3,59,1628937049.0,32.000000
-30,1,58,1628937049.0,32.000000
-30,2,58,1628937049.0,32.000000
-30,2,59,1628937049.0,32.000000
-31,2,58,1628937049.0,32.000000
-30,2,58,1628937049.0,32.000000
-30,3,59,1628937049.0,32.000000
-30,2,59,1628937049.0,32.000000
-30,2,58,1628937049.0,32.000000
-30,2,58,1628937049.0,32.000000
-30,2,58,1628937049.0,32.000000
-30,2,59,1628937049.0,32.000000
-30,2,58,1628937049.0,32.000000
-30,2,58,1628937049.0,32.000000
-30,2,58,1628937049.0,32.000000
-30,2,59,1628937049.0,32.000000
-30,2,59,1628937049.0,32.000000
-30,2,58,1628937049.0,32.000000
-30,2,58,1628937049.0,32.000000
-30,2,58,1628937049.0,32.000000
-30,2,59,1628937049.0,32.000000
-30,2,59,1628937049.0,32.000000
-30,1,58,1628937049.0,32.000000
-30,3,59,1628937049.0,32.000000
-30,1,58,1628937049.0,32.000000
-30,2,58,1628937049.0,32.000000
-30,2,58,1628937049.0,32.000000
-30,2,58,1628937049.0,32.000000
-30,2,58,1628937049.0,32.000000
-30,1,58,1628937049.0,32.000000
-30,3,57,1628937049.0,32.000000
-35,2,57,1628937049.0,32.000000
-31,0,56,1628937049.0,32.000000
-25,1,59,1628937049.0,32.000000
-25,0,60,1628937049.0,32.000000
-24,-4,62,1628937049.0,32.000000
-23,8,63,1628937049.0,32.000000
-22,9,63,1628937049.0,32.000000
-29,2,57,1628937049.0,32.000000
-25,7,60,1628937049.0,32.000000
-22,-3,60,1628937049.0,32.000000
-19,-4,63,1628937049.0,32.000000
-21,-1,62,1628937049.0,32.000000
-21,0,62,1628937049.0,32.000000
-20,0,62,1628937049.0,32.000000
-19,0,62,1628937049.0,32.000000
-20,-2,62,1628937049.0,32.000000
-21,-2,62,1628937049.0,32.000000
-19,-1,62,1628937049.0,32.000000
-18,0,62,1628937049.0,32.000000
-19,-1,62,1628937049.0,32.000000
-19,1,62,1628937049.0,32.000000
-21,-1,62,1628937049.0,32.000000
-21,5,62,1628937049.0,32.000000
-24,-1,61,1628937049.0,32.000000
-22,3,61,1628937049.0,32.000000
-22,2,62,1628937049.0,32.000000
-22,2,62,1628937049.0,32.000000
-23,2,62,1628937049.0,32.000000
-23,2,61,1628937049.0,32.000000
-24,2,62,1628937049.0,32.000000
-21,2,62,1628937049.0,32.000000
-21,1,61,1628937049.0,32.000000
-20,-1,62,1628937049.0,32.000000
-23,1,61,1628937049.0,32.000000
-21,-1,60,1628937049.0,32.000000
-24,1,61,1628937049.0,32.000000
-25,1,61,1628937049.0,32.000000
-26,4,61,1628937049.0,32.000000
-26,2,61,1628937049.0,32.000000
-20,4,61,1628937049.0,32.000000
-19,-3,62,1628937049.0,32.000000
-16,2,63,1628937049.0,32.000000
-20,1,63,1628937049.0,32.000000
-21,2,62,1628937049.0,32.000000
-24,-1,61,1628937049.0,32.000000
-23,6,61,1628937049.0,32.000000
-23,0,61,1628937049.0,32.000000
-21,2,61,1628937049.0,32.000000
-12,-2,64,1628937049.0,32.000000
-12,-2,63,1628937049.0,32.000000
-10,-1,64,1628937049.0,32.000000
-10,1,65,1628937049.0,32.000000
-13,0,64,1628937049.0,32.000000
-14,-2,62,1628937049.0,32.000000
-25,1,61,1628937049.0,32.000000
-28,1,60,1628937049.0,32.000000
-26,0,60,1628937049.0,32.000000
-25,1,61,1628937049.0,32.000000
-24,1,61,1628937049.0,32.000000
-25,2,60,1628937049.0,32.000000
-25,0,60,1628937049.0,32.000000
-22,1,62,1628937049.0,32.000000
-23,1,61,1628937049.0,32.000000
-26,0,59,1628937049.0,32.000000
-29,3,60,1628937049.0,32.000000
-26,2,60,1628937049.0,32.000000
-23,3,61,1628937049.0,32.000000
-24,1,61,1628937049.0,32.000000
-25,2,60,1628937049.0,32.000000
-26,1,60,1628937049.0,32.000000
-25,1,60,1628937049.0,32.000000
-25,1,61,1628937049.0,32.000000
-25,1,60,1628937049.0,32.000000
-25,2,61,1628937049.0,32.000000
-25,1,60,1628937049.0,32.000000
-26,1,61,1628937049.0,32.000000
-25,1,61,1628937049.0,32.000000
-24,1,61,1628937049.0,32.000000
-23,2,59,1628937049.0,32.000000
-27,2,59,1628937049.0,32.000000
-29,1,59,1628937049.0,32.000000
-26,2,61,1628937049.0,32.000000
-27,3,60,1628937049.0,32.000000
-30,3,58,1628937049.0,32.000000
-29,1,58,1628937049.0,32.000000
-30,3,58,1628937049.0,32.000000
-28,2,59,1628937049.0,32.000000
-28,2,60,1628937049.0,32.000000
-30,3,58,1628937049.0,32.000000
-30,3,59,1628937049.0,32.000000
-28,2,59,1628937049.0,32.000000
-27,1,59,1628937049.0,32.000000
-28,1,59,1628937049.0,32.000000
-25,2,61,1628937049.0,32.000000
-29,2,58,1628937049.0,32.000000
-28,2,60,1628937049.0,32.000000
-25,1,59,1628937049.0,32.000000
-27,1,59,1628937049.0,32.000000
-32,2,57,1628937049.0,32.000000
-30,3,58,1628937049.0,32.000000
-28,3,59,1628937049.0,32.000000
-29,3,59,1628937049.0,32.000000
-32,3,57,1628937049.0,32.000000
-32,3,57,1628937049.0,32.000000
-30,3,58,1628937049.0,32.000000
-29,3,59,1628937049.0,32.000000
-29,2,60,1628937049.0,32.000000
-30,5,59,1628937049.0,32.000000
-29,4,58,1628937049.0,32.000000
-31,3,57,1628937049.0,32.000000
-32,4,57,1628937049.0,32.000000
-33,3,57,1628937049.0,32.000000
-33,3,57,1628937049.0,32.000000
-31,4,58,1628937049.0,32.000000
-29,5,59,1628937049.0,32.000000
-31,4,57,1628937049.0,32.000000
-36,3,56,1628937049.0,32.000000
-38,3,56,1628937049.0,32.000000
-34,7,64,1628937049.0,32.000000
-35,6,70,1628937049.0,32.000000
-39,-1,80,1628937049.0,32.000000
-32,-3,79,1628937049.0,32.000000
-46,-2,79,1628937049.0,32.000000
-45,-6,77,1628937049.0,32.000000
-40,-5,70,1628937049.0,32.000000
-52,-10,49,1628937049.0,32.000000
-46,-12,35,1628937049.0,32.000000
-41,-13,30,1628937049.0,32.000000
-38,-14,24,1628937049.0,32.000000
-33,-14,26,1628937049.0,32.000000
-32,-15,26,1628937049.0,32.000000
-25,-19,27,1628937049.0,32.000000
-12,-14,32,1628937049.0,32.000000
-36,-23,25,1628937049.0,32.000000
-42,-24,22,1628937049.0,32.000000
-39,-23,28,1628937049.0,32.000000
-51,-28,28,1628937049.0,32.000000
-53,-30,28,1628937049.0,32.000000
-47,-34,30,1628937049.0,32.000000
-45,-33,33,1628937049.0,32.000000
-50,-23,30,1628937049.0,32.000000
-52,-23,25,1628937049.0,32.000000
-48,-24,24,1628937049.0,32.000000
-42,-22,35,1628937049.0,32.000000
-43,-20,41,1628937049.0,32.000000
-54,-13,45,1628937049.0,32.000000
-44,-12,53,1628937049.0,32.000000
-34,-11,61,1628937049.0,32.000000
-38,-4,70,1628937049.0,32.000000
-41,-5,67,1628937049.0,32.000000
-41,-2,63,1628937049.0,32.000000
-39,2,63,1628937049.0,32.000000
-35,3,61,1628937049.0,32.000000
-32,2,58,1628937049.0,32.000000
-32,2,56,1628937049.0,32.000000
-33,2,57,1628937049.0,32.000000
-32,2,56,1628937049.0,32.000000
-33,1,56,1628937049.0,32.000000
-34,1,56,1628937049.0,32.000000
-34,0,57,1628937049.0,32.000000
-34,2,60,1628937049.0,32.000000
-37,3,61,1628937049.0,32.000000
-35,1,58,1628937049.0,32.000000
-34,1,56,1628937049.0,32.000000
-36,-2,58,1628937049.0,32.000000
-34,2,57,1628937049.0,32.000000
-33,1,56,1628937049.0,32.000000
-35,2,56,1628937049.0,32.000000
-35,2,55,1628937049.0,32.000000
-35,2,56,1628937049.0,32.000000
-35,2,55,1628937049.0,32.000000
-35,2,55,1628937049.0,32.000000
-34,2,56,1628937049.0,32.000000
-34,2,56,1628937049.0,32.000000
-34,2,56,1628937049.0,32.000000
-34,3,56,1628937049.0,32.000000
-34,2,56,1628937049.0,32.000000
-34,3,56,1628937049.0,32.000000
-34,2,56,1628937049.0,32.000000
-34,2,56,1628937049.0,32.000000
-34,2,56,1628937049.0,32.000000
-34,2,56,1628937049.0,32.000000
-34,2,56,1628937049.0,32.000000
-34,2,56,1628937049.0,32.000000
-34,3,56,1628937049.0,32.000000
-34,2,56,1628937049.0,32.000000
-34,2,56,1628937049.0,32.000000
-34,2,56,1628937049.0,32.000000
-34,3,56,1628937049.0,32.000000
-34,2,56,1628937049.0,32.000000
-34,2,56,1628937049.0,32.000000
-34,2,56,1628937049.0,32.000000
-34,2,56,1628937049.0,32.000000
-34,3,57,1628937049.0,32.000000
-34,2,56,1628937049.0,32.000000
-34,2,56,1628937049.0,32.000000
-34,2,56,1628937049.0,32.000000
-33,2,57,1628937049.0,32.000000
-34,2,56,1628937049.0,32.000000
-33,2,56,1628937049.0,32.000000
-33,3,57,1628937049.0,32.000000
-33,3,56,1628937049.0,32.000000
-33,3,57,1628937049.0,32.000000
-33,2,57,1628937049.0,32.000000
-33,2,57,1628937049.0,32.000000
-33,2,57,1628937049.0,32.000000
-33,2,56,1628937049.0,32.000000
-33,3,57,1628937049.0,32.000000
-33,3,57,1628937049.0,32.000000
-32,3,57,1628937049.0,32.000000
-31,2,57,1628937049.0,32.000000
-31,2,57,1628937049.0,32.000000
-31,2,58,1628937049.0,32.000000
-30,2,58,1628937049.0,32.000000
-31,2,58,1628937049.0,32.000000
-31,1,58,1628937049.0,32.000000
-30,1,58,1628937049.0,32.000000
-30,2,58,1628937049.0,32.000000
-31,2,58,1628937049.0,32.000000
-32,2,57,1628937049.0,32.000000
-32,2,57,1628937049.0,32.000000
-32,2,57,1628937049.0,32.000000
-31,2,58,1628937049.0,32.000000
-31,2,58,1628937049.0,32.000000
-32,2,57,1628937049.0,32.000000
-33,2,57,1628937049.0,32.000000
-33,2,57,1628937049.0,32.000000
-34,2,56,1628937049.0,32.000000
-34,2,56,1628937049.0,32.000000
-33,2,56,1628937049.0,32.000000
-33,3,57,1628937049.0,32.000000
-32,3,57,1628937049.0,32.000000
-31,3,58,1628937049.0,32.000000
-30,3,58,1628937049.0,32.000000
-33,2,57,1628937049.0,32.000000
-32,3,58,1628937049.0,32.000000
-33,3,57,1628937049.0,32.000000
-34,3,56,1628937049.0,32.000000
-33,3,57,1628937049.0,32.000000
-33,4,57,1628937049.0,32.000000
-33,3,57,1628937049.0,32.000000
-33,3,57,1628937049.0,32.000000
-33,3,57,1628937049.0,32.000000
-33,3,56,1628937049.0,32.000000
-33,3,57,1628937049.0,32.000000
-32,4,57,1628937049.0,32.000000
-33,2,57,1628937049.0,32.000000
-34,2,56,1628937049.0,32.000000
-35,2,56,1628937049.0,32.000000
-35,2,56,1628937049.0,32.000000
-36,2,55,1628937049.0,32.000000
-37,2,54,1628937049.0,32.000000
-36,2,55,1628937049.0,32.000000
-36,2,55,1628937049.0,32.000000
-36,2,55,1628937049.0,32.000000
-36,2,55,1628937049.0,32.000000
-36,2,55,1628937049.0,32.000000
-35,2,56,1628937049.0,32.000000
-35,2,55,1628937049.0,32.000000
-35,2,56,1628937049.0,32.000000
-35,2,55,1628937049.0,32.000000
-35,2,55,1628937049.0,32.000000
-36,2,55,1628937049.0,32.000000
-36,2,55,1628937049.0,32.000000
-36,2,55,1628937049.0,32.000000
-36,2,55,1628937049.0,32.000000
-36,2,55,1628937049.0,32.000000
-37,2,54,1628937049.0,32.000000
-37,3,55,1628937049.0,32.000000
-36,3,55,1628937049.0,32.000000
-36,2,55,1628937049.0,32.000000
-34,2,56,1628937049.0,32.000000
-35,3,56,1628937049.0,32.000000
-37,3,55,1628937049.0,32.000000
-34,3,56,1628937049.0,32.000000
-31,3,57,1628937049.0,32.000000
-32,3,57,1628937049.0,32.000000
-32,3,58,1628937049.0,32.000000
-32,3,57,1628937049.0,32.000000
-33,4,57,1628937049.0,32.000000
-34,4,57,1628937049.0,32.000000
-34,3,55,1628937049.0,32.000000
-32,2,57,1628937049.0,32.000000
-33,3,56,1628937049.0,32.000000
-34,2,56,1628937049.0,32.000000
-34,2,56,1628937049.0,32.000000
-31,3,57,1628937049.0,32.000000
-32,3,57,1628937049.0,32.000000
-34,3,56,1628937049.0,32.000000
-35,4,56,1628937049.0,32.000000
-33,3,57,1628937049.0,32.000000
-29,2,59,1628937049.0,32.000000
-30,1,58,1628937049.0,32.000000
-29,2,59,1628937049.0,32.000000
-29,2,59,1628937049.0,32.000000
-31,3,58,1628937049.0,32.000000
-34,3,56,1628937049.0,32.000000
-35,3,56,1628937049.0,32.000000
-32,3,57,1628937049.0,32.000000
-30,2,59,1628937049.0,32.000000
-30,2,58,1628937049.0,32.000000
-34,2,56,1628937049.0,32.000000
-35,3,56,1628937049.0,32.000000
-34,3,56,1628937049.0,32.000000
-32,2,57,1628937049.0,32.000000
-34,2,56,1628937049.0,32.000000
-35,2,55,1628937049.0,32.000000
-38,2,58,1628937049.0,32.000000
-31,3,56,1628937049.0,32.000000
-34,3,55,1628937049.0,32.000000
-35,2,53,1628937049.0,32.000000
-35,3,57,1628937049.0,32.000000
-31,3,58,1628937049.0,32.000000
-30,2,59,1628937049.0,32.000000
-33,5,58,1628937049.0,32.000000
-33,0,57,1628937049.0,32.000000
-28,4,59,1628937049.0,32.000000
-30,3,57,1628937049.0,32.000000
-30,1,58,1628937049.0,32.000000
-30,0,59,1628937049.0,32.000000
-31,0,58,1628937049.0,32.000000
-28,-2,57,1628937049.0,32.000000
-21,-2,61,1628937049.0,32.000000
-18,2,64,1628937049.0,32.000000
-17,4,64,1628937049.0,32.000000
-16,-4,57,1628937049.0,32.000000
-17,-7,61,1628937049.0,32.000000
-20,-5,59,1628937049.0,32.000000
-14,5,68,1628937049.0,32.000000
-18,-2,64,1628937049.0,32.000000
-18,2,62,1628937049.0,32.000000
-19,4,56,1628937049.0,32.000000
-9,-2,65,1628937049.0,32.000000
-14,-5,62,1628937049.0,32.000000
-10,-7,61,1628937049.0,32.000000
-6,0,64,1628937049.0,32.000000
-17,-2,69,1628937049.0,32.000000
-32,5,55,1628937049.0,32.000000
-20,8,66,1628937049.0,32.000000
-13,8,63,1628937049.0,32.000000
-11,4,65,1628937049.0,32.000000
-15,-3,62,1628937049.0,32.000000
-12,-3,65,1628937049.0,32.000000
-13,-4,64,1628937049.0,32.000000
-13,0,64,1628937049.0,32.000000
-10,0,65,1628937049.0,32.000000
-9,-2,64,1628937049.0,32.000000
-7,0,64,1628937049.0,32.000000
-9,-2,65,1628937049.0,32.000000
-6,1,64,1628937049.0,32.000000
-7,2,64,1628937049.0,32.000000
-7,1,65,1628937049.0,32.000000
-6,2,65,1628937049.0,32.000000
-7,0,65,1628937049.0,32.000000
-12,3,63,1628937049.0,32.000000
-15,1,62,1628937049.0,32.000000
-15,4,62,1628937049.0,32.000000
-14,4,64,1628937049.0,32.000000
-12,4,63,1628937049.0,32.000000
-9,-2,62,1628937049.0,32.000000
-14,-3,65,1628937049.0,32.000000
-16,0,60,1628937049.0,32.000000
-12,2,64,1628937049.0,32.000000
-18,0,63,1628937049.0,32.000000
-19,1,63,1628937049.0,32.000000
-18,1,63,1628937049.0,32.000000
-18,1,63,1628937049.0,32.000000
-19,0,62,1628937049.0,32.000000
-14,1,63,1628937049.0,32.000000
-13,0,63,1628937049.0,32.000000
-21,-2,62,1628937049.0,32.000000
-23,0,61,1628937049.0,32.000000
-29,2,56,1628937049.0,32.000000
-33,0,58,1628937049.0,32.000000
-35,2,57,1628937049.0,32.000000
-33,3,57,1628937049.0,32.000000
-31,3,58,1628937049.0,32.000000
-30,2,58,1628937049.0,32.000000
-31,2,58,1628937049.0,32.000000
-32,2,57,1628937049.0,32.000000
-33,2,57,1628937049.0,32.000000
-34,2,56,1628937049.0,32.000000
-37,2,54,1628937049.0,32.000000
-40,2,52,1628937049.0,32.000000
-40,2,52,1628937049.0,32.000000
-39,2,53,1628937049.0,32.000000
-38,2,53,1628937049.0,32.000000
-37,2,53,1628937049.0,32.000000
-40,2,52,1628937049.0,32.000000
-40,2,52,1628937049.0,32.000000
-39,2,53,1628937049.0,32.000000
-39,2,54,1628937049.0,32.000000
-40,1,52,1628937049.0,32.000000
-39,1,53,1628937049.0,32.000000
-41,1,51,1628937049.0,32.000000
-43,1,50,1628937049.0,32.000000
-40,2,52,1628937049.0,32.000000
-36,2,55,1628937049.0,32.000000
-32,2,58,1628937049.0,32.000000
-29,3,60,1628937049.0,32.000000
-27,2,60,1628937049.0,32.000000
-31,1,57,1628937049.0,32.000000
-31,1,57,1628937049.0,32.000000
-35,1,57,1628937049.0,32.000000
-34,2,57,1628937049.0,32.000000
-33,1,57,1628937049.0,32.000000
-34,0,56,1628937049.0,32.000000
-32,2,58,1628937049.0,32.000000
-31,2,59,1628937049.0,32.000000
-27,1,60,1628937049.0,32.000000
-26,1,60,1628937049.0,32.000000
-25,0,59,1628937049.0,32.000000
-26,2,60,1628937049.0,32.000000
-28,-1,59,1628937049.0,32.000000
-29,-1,59,1628937049.0,32.000000
-24,0,60,1628937049.0,32.000000
-25,0,60,1628937049.0,32.000000
-27,-1,60,1628937049.0,32.000000
-27,-1,60,1628937049.0,32.000000
-24,0,61,1628937049.0,32.000000
-23,0,61,1628937049.0,32.000000
-25,0,61,1628937049.0,32.000000
-26,-1,60,1628937049.0,32.000000
-25,0,61,1628937049.0,32.000000
-24,0,61,1628937049.0,32.000000
-24,-1,60,1628937049.0,32.000000
-24,0,61,1628937049.0,32.000000
-22,1,61,1628937049.0,32.000000
-22,0,62,1628937049.0,32.000000
-22,0,62,1628937049.0,32.000000
-22,0,61,1628937049.0,32.000000
-23,0,61,1628937049.0,32.000000
-22,0,61,1628937049.0,32.000000
-21,0,62,1628937049.0,32.000000
-20,-1,62,1628937049.0,32.000000
-20,0,63,1628937049.0,32.000000
-20,1,63,1628937049.0,32.000000
-21,-1,61,1628937049.0,32.000000
-23,-1,61,1628937049.0,32.000000
-21,0,62,1628937049.0,32.000000
-24,0,61,1628937049.0,32.000000
-23,-2,61,1628937049.0,32.000000
-24,-2,60,1628937049.0,32.000000
-28,-2,59,1628937049.0,32.000000
-28,-2,60,1628937049.0,32.000000
-29,-2,59,1628937049.0,32.000000
-27,-2,60,1628937049.0,32.000000
-25,-1,61,1628937049.0,32.000000
-23,-1,61,1628937049.0,32.000000
-21,-1,61,1628937049.0,32.000000
-22,-3,61,1628937049.0,32.000000
-23,-3,61,1628937049.0,32.000000
-24,-2,60,1628937049.0,32.000000
-26,-2,60,1628937049.0,32.000000
-24,-1,61,1628937049.0,32.000000
-23,-1,62,1628937049.0,32.000000
-21,-1,62,1628937049.0,32.000000
-21,-1,62,1628937049.0,32.000000
-22,-3,62,1628937049.0,32.000000
-20,-2,62,1628937049.0,32.000000
-22,-3,61,1628937049.0,32.000000
-19,-1,61,1628937049.0,32.000000
-20,-1,62,1628937049.0,32.000000
-20,-1,62,1628937049.0,32.000000
-22,1,62,1628937049.0,32.000000
-22,0,62,1628937049.0,32.000000
-21,-2,61,1628937049.0,32.000000
-21,-1,62,1628937049.0,32.000000
-13,-3,64,1628937049.0,32.000000
-28,0,60,1628937049.0,32.000000
-30,2,58,1628937049.0,32.000000
-31,2,59,1628937049.0,32.000000
-32,2,58,1628937049.0,32.000000
-32,1,57,1628937049.0,32.000000
-30,2,59,1628937049.0,32.000000
-30,2,59,1628937049.0,32.000000
-27,0,58,1628937049.0,32.000000
-24,2,61,1628937049.0,32.000000
-24,2,63,1628937049.0,32.000000
-20,4,62,1628937049.0,32.000000
-28,2,58,1628937049.0,32.000000
-23,2,61,1628937049.0,32.000000
-26,2,60,1628937049.0,32.000000
-27,3,60,1628937049.0,32.000000
-28,3,59,1628937049.0,32.000000
-29,3,59,1628937049.0,32.000000
-27,3,59,1628937049.0,32.000000
-27,3,59,1628937049.0,32.000000
-27,3,59,1628937049.0,32.000000
-29,3,59,1628937049.0,32.000000
-28,3,59,1628937049.0,32.000000
-26,3,60,1628937049.0,32.000000
-30,3,59,1628937049.0,32.000000
-31,3,58,1628937049.0,32.000000
-32,3,57,1628937049.0,32.000000
-32,2,57,1628937049.0,32.000000
-33,3,56,1628937049.0,32.000000
-33,3,57,1628937049.0,32.000000
-33,3,56,1628937049.0,32.000000
-32,2,57,1628937049.0,32.000000
-32,2,57,1628937049.0,32.000000
-32,1,57,1628937049.0,32.000000
-32,1,57,1628937049.0,32.000000
-32,1,57,1628937049.0,32.000000
-31,1,58,1628937049.0,32.000000
-31,1,58,1628937049.0,32.000000
-31,1,57,1628937049.0,32.000000
-31,1,58,1628937049.0,32.000000
-31,1,57,1628937049.0,32.000000
-31,1,58,1628937049.0,32.000000
-31,1,58,1628937049.0,32.000000
-32,1,58,1628937049.0,32.000000
-31,1,58,1628937049.0,32.000000
-31,0,58,1628937049.0,32.000000
-30,0,58,1628937049.0,32.000000
-30,0,58,1628937049.0,32.000000
-31,0,58,1628937049.0,32.000000
-31,0,58,1628937049.0,32.000000
-31,0,58,1628937049.0,32.000000
-31,0,58,1628937049.0,32.000000
-31,0,58,1628937049.0,32.000000
-31,0,58,1628937049.0,32.000000
-31,0,58,1628937049.0,32.000000
-31,0,58,1628937049.0,32.000000
-31,0,58,1628937049.0,32.000000
-31,0,58,1628937049.0,32.000000
-31,0,58,1628937049.0,32.000000
-31,0,58,1628937049.0,32.000000
-31,0,58,1628937049.0,32.000000
-31,0,58,1628937049.0,32.000000
-30,0,58,1628937049.0,32.000000
-31,0,58,1628937049.0,32.000000
-31,0,58,1628937049.0,32.000000
-31,0,58,1628937049.0,32.000000
-31,0,58,1628937049.0,32.000000
-31,0,58,1628937049.0,32.000000
-31,0,58,1628937049.0,32.000000
-31,0,58,1628937049.0,32.000000
-31,0,58,1628937049.0,32.000000
-30,0,58,1628937049.0,32.000000
-31,0,58,1628937049.0,32.000000
-30,0,58,1628937049.0,32.000000
-30,0,58,1628937049.0,32.000000
-31,0,58,1628937049.0,32.000000
-31,0,58,1628937049.0,32.000000
-30,0,58,1628937049.0,32.000000
-31,0,58,1628937049.0,32.000000
-31,0,58,1628937049.0,32.000000
-30,0,58,1628937049.0,32.000000
-31,0,58,1628937049.0,32.000000
-31,0,58,1628937049.0,32.000000
-31,0,58,1628937049.0,32.000000
-31,0,58,1628937049.0,32.000000
-31,0,58,1628937049.0,32.000000
-30,0,58,1628937049.0,32.000000
-30,0,58,1628937049.0,32.000000
-31,0,57,1628937049.0,32.000000
-31,-1,57,1628937049.0,32.000000
-31,1,58,1628937049.0,32.000000
-30,1,59,1628937049.0,32.000000
-30,1,59,1628937049.0,32.000000
-31,2,58,1628937049.0,32.000000
-31,2,58,1628937049.0,32.000000
-31,2,58,1628937049.0,32.000000
-31,2,58,1628937049.0,32.000000
-31,1,58,1628937049.0,32.000000
-31,2,57,1628937049.0,32.000000
-31,1,57,1628937049.0,32.000000
-32,1,57,1628937049.0,32.000000
-31,1,58,1628937049.0,32.000000
-31,4,59,1628937049.0,32.000000
-32,2,56,1628937049.0,32.000000
-33,2,57,1628937049.0,32.000000
-31,2,58,1628937049.0,32.000000
-30,2,59,1628937049.0,32.000000
-30,1,58,1628937049.0,32.000000
-31,2,57,1628937049.0,32.000000
-31,2,58,1628937049.0,32.000000
-31,2,57,1628937049.0,32.000000
-32,1,57,1628937049.0,32.000000
-35,3,57,1628937049.0,32.000000
-34,2,56,1628937049.0,32.000000
-32,1,56,1628937049.0,32.000000
-31,2,57,1628937049.0,32.000000
-32,2,57,1628937049.0,32.000000
-32,2,57,1628937049.0,32.000000
-34,3,58,1628937049.0,32.000000
-33,2,56,1628937049.0,32.000000
-32,2,58,1628937049.0,32.000000
-31,2,58,1628937049.0,32.000000
-32,1,57,1628937049.0,32.000000
-31,1,57,1628937049.0,32.000000
-31,2,58,1628937049.0,32.000000
-34,2,56,1628937049.0,32.000000
-36,2,57,1628937049.0,32.000000
-32,1,58,1628937049.0,32.000000
-31,1,57,1628937049.0,32.000000
-32,2,57,1628937049.0,32.000000
-32,2,57,1628937049.0,32.000000
-32,1,57,1628937049.0,32.000000
-32,2,57,1628937049.0,32.000000
-32,2,57,1628937049.0,32.000000
-32,2,57,1628937049.0,32.000000
-32,2,57,1628937049.0,32.000000
-32,1,57,1628937049.0,32.000000
-31,1,58,1628937049.0,32.000000
-30,1,58,1628937049.0,32.000000
-31,1,57,1628937049.0,32.000000
-32,1,57,1628937049.0,32.000000
-32,2,58,1628937049.0,32.000000
-31,1,57,1628937049.0,32.000000
-31,1,57,1628937049.0,32.000000
-31,2,58,1628937049.0,32.000000
-32,2,57,1628937049.0,32.000000
-32,1,57,1628937049.0,32.000000
-31,2,58,1628937049.0,32.000000
-31,2,58,1628937049.0,32.000000
-32,2,57,1628937049.0,32.000000
-31,2,58,1628937049.0,32.000000
-31,1,58,1628937049.0,32.000000
-32,2,58,1628937049.0,32.000000
-31,1,58,1628937049.0,32.000000
-31,1,58,1628937049.0,32.000000
-32,2,57,1628937049.0,32.000000
-32,3,58,1628937049.0,32.000000
-31,1,57,1628937049.0,32.000000
-30,1,58,1628937049.0,32.000000
-32,2,57,1628937049.0,32.000000
-32,1,57,1628937049.0,32.000000
-32,2,57,1628937049.0,32.000000
-31,2,58,1628937049.0,32.000000
-31,2,58,1628937049.0,32.000000
-32,2,57,1628937049.0,32.000000
-32,2,57,1628937049.0,32.000000
-31,1,57,1628937049.0,32.000000
-31,2,57,1628937049.0,32.000000
-32,2,57,1628937049.0,32.000000
-32,2,58,1628937049.0,32.000000
-32,2,57,1628937049.0,32.000000
-32,1,57,1628937049.0,32.000000
-31,2,58,1628937049.0,32.000000
-31,1,57,1628937049.0,32.000000
-32,2,57,1628937049.0,32.000000
-32,1,57,1628937049.0,32.000000
-32,2,57,1628937049.0,32.000000
-32,1,57,1628937049.0,32.000000
-32,1,57,1628937049.0,32.000000
-31,1,57,1628937049.0,32.000000
-32,1,57,1628937049.0,32.000000
-32,1,57,1628937049.0,32.000000
-32,2,57,1628937049.0,32.000000
-32,1,57,1628937049.0,32.000000
-32,2,57,1628937049.0,32.000000
-32,1,57,1628937049.0,32.000000
-32,2,57,1628937049.0,32.000000
-32,2,57,1628937049.0,32.000000
-32,1,57,1628937049.0,32.000000
-32,2,57,1628937049.0,32.000000
-32,1,57,1628937049.0,32.000000
-32,1,57,1628937049.0,32.000000
-32,1,57,1628937049.0,32.000000
-32,2,58,1628937049.0,32.000000
-32,1,57,1628937049.0,32.000000
-32,2,57,1628937049.0,32.000000
-32,2,57,1628937049.0,32.000000
-32,2,57,1628937049.0,32.000000
-32,2,57,1628937049.0,32.000000
-32,2,57,1628937049.0,32.000000
-32,2,57,1628937049.0,32.000000
-32,2,57,1628937049.0,32.000000
-32,2,57,1628937049.0,32.000000
-32,2,57,1628937049.0,32.000000
-32,2,57,1628937049.0,32.000000
-32,2,57,1628937049.0,32.000000
-32,2,57,1628937049.0,32.000000
-32,2,58,1628937049.0,32.000000
-32,2,57,1628937049.0,32.000000
-32,2,57,1628937049.0,32.000000
-32,2,57,1628937049.0,32.000000
-32,2,57,1628937049.0,32.000000
-32,1,57,1628937049.0,32.000000
-32,2,57,1628937049.0,32.000000
-32,2,57,1628937049.0,32.000000
-32,2,57,1628937049.0,32.000000
-32,1,57,1628937049.0,32.000000
-32,2,57,1628937049.0,32.000000
-32,2,57,1628937049.0,32.000000
-32,2,57,1628937049.0,32.000000
-32,2,57,1628937049.0,32.000000
-32,2,57,1628937049.0,32.000000
-32,2,57,1628937049.0,32.000000
-32,2,57,1628937049.0,32.000000
-32,2,58,1628937049.0,32.000000
-32,2,57,1628937049.0,32.000000
-32,2,57,1628937049.0,32.000000
-32,2,57,1628937049.0,32.000000
-32,2,57,1628937049.0,32.000000
-32,2,57,1628937049.0,32.000000
-32,2,57,1628937049.0,32.000000
-32,2,57,1628937049.0,32.000000
-32,2,57,1628937049.0,32.000000
-32,2,57,1628937049.0,32.000000
-32,2,57,1628937049.0,32.000000
-32,2,57,1628937049.0,32.000000
-32,2,57,1628937049.0,32.000000
-31,2,57,1628937049.0,32.000000
-32,2,57,1628937049.0,32.000000
-32,2,57,1628937049.0,32.000000
-32,2,57,1628937049.0,32.000000
-32,2,57,1628937049.0,32.000000
-32,2,57,1628937049.0,32.000000
-32,2,57,1628937049.0,32.000000
-33,2,57,1628937049.0,32.000000
-32,2,57,1628937049.0,32.000000
-32,2,57,1628937049.0,32.000000
-32,2,57,1628937049.0,32.000000
-32,2,57,1628937049.0,32.000000
-32,2,57,1628937049.0,32.000000
-32,2,57,1628937049.0,32.000000
-32,2,57,1628937049.0,32.000000
-32,2,57,1628937049.0,32.000000
-32,2,57,1628937049.0,32.000000
-32,2,57,1628937049.0,32.000000
-32,2,57,1628937049.0,32.000000
-32,2,57,1628937049.0,32.000000
-32,2,57,1628937049.0,32.000000
-32,2,57,1628937049.0,32.000000
-32,2,57,1628937049.0,32.000000
-32,2,57,1628937049.0,32.000000
-32,2,57,1628937049.0,32.000000
-32,2,57,1628937049.0,32.000000
-32,2,57,1628937049.0,32.000000
-32,2,57,1628937049.0,32.000000
-32,2,57,1628937049.0,32.000000
-32,2,57,1628937049.0,32.000000
-32,2,57,1628937049.0,32.000000
-32,2,57,1628937049.0,32.000000
-32,2,57,1628937049.0,32.000000
-32,2,57,1628937049.0,32.000000
-32,2,57,1628937049.0,32.000000
-32,2,57,1628937049.0,32.000000
-32,2,57,1628937049.0,32.000000
-32,2,57,1628937049.0,32.000000
-32,2,57,1628937049.0,32.000000
-32,2,57,1628937049.0,32.000000
-32,2,57,1628937049.0,32.000000
-33,2,57,1628937049.0,32.000000
-32,2,57,1628937049.0,32.000000
-32,2,57,1628937049.0,32.000000
-32,2,57,1628937049.0,32.000000
-32,2,57,1628937049.0,32.000000
-32,2,57,1628937049.0,32.000000
-32,2,57,1628937049.0,32.000000
-32,2,57,1628937049.0,32.000000
-31,2,58,1628937049.0,32.000000
-33,2,56,1628937049.0,32.000000
-32,2,57,1628937049.0,32.000000
-33,2,57,1628937049.0,32.000000
-32,2,57,1628937049.0,32.000000
-32,2,57,1628937049.0,32.000000
-32,2,57,1628937049.0,32.000000
-32,2,57,1628937049.0,32.000000
-32,2,57,1628937049.0,32.000000
-33,2,57,1628937049.0,32.000000
-32,2,57,1628937049.0,32.000000
-32,2,57,1628937049.0,32.000000
-32,2,57,1628937049.0,32.000000
-32,2,57,1628937049.0,32.000000
-32,2,57,1628937049.0,32.000000
-32,2,57,1628937049.0,32.000000
-33,2,57,1628937049.0,32.000000
-32,2,57,1628937049.0,32.000000
-32,2,57,1628937049.0,32.000000
-32,2,57,1628937049.0,32.000000
-32,2,57,1628937049.0,32.000000
-32,2,57,1628937049.0,32.000000
-32,2,57,1628937049.0,32.000000
-32,2,57,1628937049.0,32.000000
-32,2,57,1628937049.0,32.000000
-32,2,57,1628937049.0,32.000000
-32,2,57,1628937049.0,32.000000
-32,2,57,1628937049.0,32.000000
-33,2,57,1628937049.0,32.000000
-32,2,57,1628937049.0,32.000000
-32,2,57,1628937049.0,32.000000
-33,2,57,1628937049.0,32.000000
-33,2,57,1628937049.0,32.000000
-32,2,57,1628937049.0,32.000000
-32,2,57,1628937049.0,32.000000
-32,2,57,1628937049.0,32.000000
-33,2,57,1628937049.0,32.000000
-33,2,57,1628937049.0,32.000000
-32,2,57,1628937049.0,32.000000
-32,2,57,1628937049.0,32.000000
-31,2,57,1628937049.0,32.000000
-32,2,57,1628937049.0,32.000000
-33,2,57,1628937049.0,32.000000
-33,2,57,1628937049.0,32.000000
-32,2,57,1628937049.0,32.000000
-33,2,57,1628937049.0,32.000000
-33,2,57,1628937049.0,32.000000
-32,2,57,1628937049.0,32.000000
-32,2,57,1628937049.0,32.000000
-33,2,57,1628937049.0,32.000000
-33,2,57,1628937049.0,32.000000
-32,2,57,1628937049.0,32.000000
-33,2,57,1628937049.0,32.000000
-33,2,57,1628937049.0,32.000000
-33,2,57,1628937049.0,32.000000
-32,2,57,1628937049.0,32.000000
-33,2,57,1628937049.0,32.000000
-32,2,57,1628937049.0,32.000000
-33,2,57,1628937049.0,32.000000
-32,2,57,1628937049.0,32.000000
-33,2,57,1628937049.0,32.000000
-33,2,57,1628937049.0,32.000000
-33,2,57,1628937049.0,32.000000
-33,2,57,1628937049.0,32.000000
-32,2,57,1628937049.0,32.000000
-33,2,57,1628937049.0,32.000000
-32,2,57,1628937049.0,32.000000
-32,2,57,1628937049.0,32.000000
-33,2,57,1628937049.0,32.000000
-32,2,57,1628937049.0,32.000000
-32,2,57,1628937049.0,32.000000
-32,2,57,1628937049.0,32.000000
-33,2,58,1628937049.0,32.000000
-32,2,57,1628937049.0,32.000000
-33,2,57,1628937049.0,32.000000
-32,2,57,1628937049.0,32.000000
-33,2,57,1628937049.0,32.000000
-33,2,57,1628937049.0,32.000000
-32,2,57,1628937049.0,32.000000
-32,2,57,1628937049.0,32.000000
-33,2,57,1628937049.0,32.000000
-32,2,57,1628937049.0,32.000000
-33,2,57,1628937049.0,32.000000
-33,2,57,1628937049.0,32.000000
-33,2,57,1628937049.0,32.000000
-32,2,57,1628937049.0,32.000000
-32,2,57,1628937049.0,32.000000
-32,2,57,1628937049.0,32.000000
-32,2,57,1628937049.0,32.000000
-32,2,57,1628937049.0,32.000000
-32,2,57,1628937049.0,32.000000
-33,2,57,1628937049.0,32.000000
-32,2,57,1628937049.0,32.000000
-32,2,57,1628937049.0,32.000000
-32,2,57,1628937049.0,32.000000
-34,3,58,1628937049.0,32.000000
-34,2,55,1628937049.0,32.000000
-34,2,57,1628937049.0,32.000000
-32,2,57,1628937049.0,32.000000
-33,2,57,1628937049.0,32.000000
-33,2,56,1628937049.0,32.000000
-33,2,57,1628937049.0,32.000000
-33,2,56,1628937049.0,32.000000
-33,2,57,1628937049.0,32.000000
-33,2,57,1628937049.0,32.000000
-32,2,57,1628937049.0,32.000000
-32,3,57,1628937049.0,32.000000
-32,2,58,1628937049.0,32.000000
-33,2,57,1628937049.0,32.000000
-33,2,57,1628937049.0,32.000000
-33,2,57,1628937049.0,32.000000
-34,2,56,1628937049.0,32.000000
-34,2,56,1628937049.0,32.000000
-33,2,56,1628937049.0,32.000000
-33,2,57,1628937049.0,32.000000
-33,2,56,1628937049.0,32.000000
-33,2,56,1628937049.0,32.000000
-33,2,57,1628937049.0,32.000000
-33,2,57,1628937049.0,32.000000
-33,2,57,1628937049.0,32.000000
-33,2,57,1628937049.0,32.000000
-33,2,56,1628937049.0,32.000000
-33,2,57,1628937049.0,32.000000
-33,2,57,1628937049.0,32.000000
-33,2,57,1628937049.0,32.000000
-34,2,57,1628937049.0,32.000000
-33,2,57,1628937049.0,32.000000
-33,2,56,1628937049.0,32.000000
-33,2,56,1628937049.0,32.000000
-33,2,57,1628937049.0,32.000000
-33,2,56,1628937049.0,32.000000
-34,2,56,1628937049.0,32.000000
-33,2,57,1628937049.0,32.000000
-33,2,57,1628937049.0,32.000000
-33,2,57,1628937049.0,32.000000
-33,2,57,1628937049.0,32.000000
-33,2,57,1628937049.0,32.000000
-34,2,57,1628937049.0,32.000000
-33,2,56,1628937049.0,32.000000
-34,2,57,1628937049.0,32.000000
-33,2,56,1628937049.0,32.000000
-33,2,57,1628937049.0,32.000000
-33,2,57,1628937049.0,32.000000
-33,2,56,1628937049.0,32.000000
-33,2,56,1628937049.0,32.000000
-33,2,57,1628937049.0,32.000000
-33,2,57,1628937049.0,32.000000
-33,2,56,1628937049.0,32.000000
-33,2,57,1628937049.0,32.000000
-33,2,57,1628937049.0,32.000000
-33,2,56,1628937049.0,32.000000
-33,2,56,1628937049.0,32.000000
-33,2,57,1628937049.0,32.000000
-33,2,56,1628937049.0,32.000000
-33,2,56,1628937049.0,32.000000
-33,2,57,1628937049.0,32.000000
-33,2,56,1628937049.0,32.000000
-33,2,57,1628937049.0,32.000000
-33,2,57,1628937049.0,32.000000
-33,2,57,1628937049.0,32.000000
-33,2,56,1628937049.0,32.000000
-34,2,56,1628937049.0,32.000000
-33,2,56,1628937049.0,32.000000
-34,2,56,1628937049.0,32.000000
-33,2,57,1628937049.0,32.000000
-33,2,57,1628937049.0,32.000000
-33,2,57,1628937049.0,32.000000
-33,2,57,1628937049.0,32.000000
-33,2,56,1628937049.0,32.000000
-33,2,57,1628937049.0,32.000000
-33,2,57,1628937049.0,32.000000
-33,2,57,1628937049.0,32.000000
-33,2,57,1628937049.0,32.000000
-33,2,57,1628937049.0,32.000000
-33,3,57,1628937049.0,32.000000
-33,3,57,1628937049.0,32.000000
-33,3,57,1628937049.0,32.000000
-33,3,57,1628937049.0,32.000000
-33,2,56,1628937049.0,32.000000
-33,3,57,1628937049.0,32.000000
-33,2,56,1628937049.0,32.000000
-34,2,57,1628937049.0,32.000000
-32,3,58,1628937049.0,32.000000
-34,2,55,1628937049.0,32.000000
-36,2,55,1628937049.0,32.000000
-34,2,56,1628937049.0,32.000000
-34,2,56,1628937049.0,32.000000
-34,2,56,1628937049.0,32.000000
-34,2,56,1628937049.0,32.000000
-34,2,56,1628937049.0,32.000000
-34,2,56,1628937049.0,32.000000
-34,2,56,1628937049.0,32.000000
-34,3,56,1628937049.0,32.000000
-34,2,56,1628937049.0,32.000000
-35,1,55,1628937049.0,32.000000
-36,1,55,1628937049.0,32.000000
-34,1,56,1628937049.0,32.000000
-35,1,56,1628937049.0,32.000000
-35,1,56,1628937049.0,32.000000
-35,2,56,1628937049.0,32.000000
-35,1,56,1628937049.0,32.000000
-35,2,56,1628937049.0,32.000000
-35,2,56,1628937049.0,32.000000
-34,1,56,1628937049.0,32.000000
-35,1,56,1628937049.0,32.000000
-34,1,56,1628937049.0,32.000000
-35,1,56,1628937049.0,32.000000
-35,1,56,1628937049.0,32.000000
-35,1,56,1628937049.0,32.000000
-35,1,56,1628937049.0,32.000000
-35,1,56,1628937049.0,32.000000
-35,1,56,1628937049.0,32.000000
-35,1,56,1628937049.0,32.000000
-35,1,56,1628937049.0,32.000000
-35,1,56,1628937049.0,32.000000
-35,1,56,1628937049.0,32.000000
-35,1,56,1628937049.0,32.000000
-34,1,56,1628937049.0,32.000000
-34,1,56,1628937049.0,32.000000
-34,2,56,1628937049.0,32.000000
-34,1,56,1628937049.0,32.000000
-34,1,56,1628937049.0,32.000000
-35,1,56,1628937049.0,32.000000
-34,2,56,1628937049.0,32.000000
-35,2,56,1628937049.0,32.000000
-34,1,56,1628937049.0,32.000000
-34,1,56,1628937049.0,32.000000
-34,2,56,1628937049.0,32.000000
-34,1,56,1628937049.0,32.000000
-34,2,56,1628937049.0,32.000000
-34,2,56,1628937049.0,32.000000
-35,1,56,1628937049.0,32.000000
-34,2,56,1628937049.0,32.000000
-34,2,56,1628937049.0,32.000000
-34,1,56,1628937049.0,32.000000
-35,1,56,1628937049.0,32.000000
-34,1,56,1628937049.0,32.000000
-34,1,56,1628937049.0,32.000000
-35,1,56,1628937049.0,32.000000
-34,1,56,1628937049.0,32.000000
-34,2,56,1628937049.0,32.000000
