ACC_X,ACC_Y,ACC_Z,start_time_unix,sampling_rate
-33,11,53,1628937049.0,32.000000
-33,11,53,1628937049.0,32.000000
-33,11,53,1628937049.0,32.000000
-33,11,53,1628937049.0,32.000000
-33,11,52,1628937049.0,32.000000
-33,11,53,1628937049.0,32.000000
-33,11,53,1628937049.0,32.000000
-33,11,53,1628937049.0,32.000000
-33,11,52,1628937049.0,32.000000
-33,11,53,1628937049.0,32.000000
-33,11,53,1628937049.0,32.000000
-33,11,53,1628937049.0,32.000000
-33,11,53,1628937049.0,32.000000
-33,11,53,1628937049.0,32.000000
-33,11,53,1628937049.0,32.000000
-33,11,53,1628937049.0,32.000000
-33,11,53,1628937049.0,32.000000
-33,11,53,1628937049.0,32.000000
-33,11,53,1628937049.0,32.000000
-33,11,53,1628937049.0,32.000000
-33,10,52,1628937049.0,32.000000
-33,11,53,1628937049.0,32.000000
-33,11,52,1628937049.0,32.000000
-33,11,53,1628937049.0,32.000000
-33,11,53,1628937049.0,32.000000
-33,11,52,1628937049.0,32.000000
-33,11,53,1628937049.0,32.000000
-33,11,52,1628937049.0,32.000000
-33,11,53,1628937049.0,32.000000
-33,11,52,1628937049.0,32.000000
-33,11,53,1628937049.0,32.000000
-33,11,53,1628937049.0,32.000000
-33,11,53,1628937049.0,32.000000
-33,11,53,1628937049.0,32.000000
-33,11,53,1628937049.0,32.000000
-33,11,53,1628937049.0,32.000000
-33,11,53,1628937049.0,32.000000
-33,11,53,1628937049.0,32.000000
-34,11,53,1628937049.0,32.000000
-33,11,53,1628937049.0,32.000000
-33,11,53,1628937049.0,32.000000
-33,11,53,1628937049.0,32.000000
-34,11,53,1628937049.0,32.000000
-34,11,53,1628937049.0,32.000000
-33,11,53,1628937049.0,32.000000
-33,11,53,1628937049.0,32.000000
-34,11,52,1628937049.0,32.000000
-33,11,53,1628937049.0,32.000000
-33,11,53,1628937049.0,32.000000
-34,11,53,1628937049.0,32.000000
-34,11,53,1628937049.0,32.000000
-34,11,53,1628937049.0,32.000000
-34,11,53,1628937049.0,32.000000
-34,11,53,1628937049.0,32.000000
-33,11,53,1628937049.0,32.000000
-32,11,53,1628937049.0,32.000000
-33,12,53,1628937049.0,32.000000
-32,11,52,1628937049.0,32.000000
-31,12,54,1628937049.0,32.000000
-31,12,53,1628937049.0,32.000000
-32,12,53,1628937049.0,32.000000
-32,12,53,1628937049.0,32.000000
-32,13,53,1628937049.0,32.000000
-32,13,53,1628937049.0,32.000000
-32,13,54,1628937049.0,32.000000
-32,13,53,1628937049.0,32.000000
-32,14,53,1628937049.0,32.000000
-33,15,53,1628937049.0,32.000000
-34,14,54,1628937049.0,32.000000
-35,14,54,1628937049.0,32.000000
-31,15,53,1628937049.0,32.000000
-30,15,53,1628937049.0,32.000000
-29,14,53,1628937049.0,32.000000
-26,13,54,1628937049.0,32.000000
-25,13,54,1628937049.0,32.000000
-25,13,54,1628937049.0,32.000000
-25,13,54,1628937049.0,32.000000
-28,14,55,1628937049.0,32.000000
-31,16,57,1628937049.0,32.000000
-30,18,56,1628937049.0,32.000000
-31,18,56,1628937049.0,32.000000
-33,18,56,1628937049.0,32.000000
-32,21,55,1628937049.0,32.000000
-21,20,53,1628937049.0,32.000000
-29,20,50,1628937049.0,32.000000
-35,19,52,1628937049.0,32.000000
-34,19,57,1628937049.0,32.000000
-34,22,54,1628937049.0,32.000000
-40,23,43,1628937049.0,32.000000
-44,23,38,1628937049.0,32.000000
-39,20,38,1628937049.0,32.000000
-42,17,32,1628937049.0,32.000000
-50,11,31,1628937049.0,32.000000
-59,7,35,1628937049.0,32.000000
-45,7,33,1628937049.0,32.000000
-61,8,19,1628937049.0,32.000000
-58,10,17,1628937049.0,32.000000
-60,11,15,1628937049.0,32.000000
-65,17,6,1628937049.0,32.000000
-60,21,6,1628937049.0,32.000000
-60,20,6,1628937049.0,32.000000
-59,21,7,1628937049.0,32.000000
-57,18,8,1628937049.0,32.000000
-64,20,11,1628937049.0,32.000000
-59,16,14,1628937049.0,32.000000
-64,18,11,1628937049.0,32.000000
-63,16,3,1628937049.0,32.000000
-59,14,7,1628937049.0,32.000000
-60,20,8,1628937049.0,32.000000
-61,20,2,1628937049.0,32.000000
-62,20,5,1628937049.0,32.000000
-60,20,6,1628937049.0,32.000000
-62,19,4,1628937049.0,32.000000
-61,18,5,1628937049.0,32.000000
-59,17,8,1628937049.0,32.000000
-60,18,7,1628937049.0,32.000000
-60,20,6,1628937049.0,32.000000
-63,22,1,1628937049.0,32.000000
-61,20,3,1628937049.0,32.000000
-57,20,8,1628937049.0,32.000000
-63,19,4,1628937049.0,32.000000
-61,22,2,1628937049.0,32.000000
-59,17,1,1628937049.0,32.000000
-59,22,5,1628937049.0,32.000000
-63,18,0,1628937049.0,32.000000
-59,21,2,1628937049.0,32.000000
-63,18,0,1628937049.0,32.000000
-60,19,4,1628937049.0,32.000000
-59,18,3,1628937049.0,32.000000
-61,19,1,1628937049.0,32.000000
-60,18,-1,1628937049.0,32.000000
-59,19,1,1628937049.0,32.000000
-61,20,-4,1628937049.0,32.000000
-69,24,-14,1628937049.0,32.000000
-58,23,-10,1628937049.0,32.000000
-61,21,-3,1628937049.0,32.000000
-60,21,-2,1628937049.0,32.000000
-56,14,5,1628937049.0,32.000000
-70,23,-12,1628937049.0,32.000000
-64,23,-9,1628937049.0,32.000000
-56,17,5,1628937049.0,32.000000
-56,14,13,1628937049.0,32.000000
-67,19,-6,1628937049.0,32.000000
-61,20,-2,1628937049.0,32.000000
-62,21,-3,1628937049.0,32.000000
-59,20,-3,1628937049.0,32.000000
-60,21,-5,1628937049.0,32.000000
-63,21,-4,1628937049.0,32.000000
-59,20,-2,1628937049.0,32.000000
-59,21,-1,1628937049.0,32.000000
-60,21,-1,1628937049.0,32.000000
-56,13,6,1628937049.0,32.000000
-62,26,-4,1628937049.0,32.000000
-62,22,-3,1628937049.0,32.000000
-61,18,-3,1628937049.0,32.000000
-59,16,4,1628937049.0,32.000000
-61,19,-2,1628937049.0,32.000000
-66,24,-8,1628937049.0,32.000000
-60,18,0,1628937049.0,32.000000
-59,20,2,1628937049.0,32.000000
-59,17,7,1628937049.0,32.000000
-64,20,-3,1628937049.0,32.000000
-65,24,-6,1628937049.0,32.000000
-59,20,2,1628937049.0,32.000000
-58,18,7,1628937049.0,32.000000
-61,19,3,1628937049.0,32.000000
-61,20,0,1628937049.0,32.000000
-61,20,0,1628937049.0,32.000000
-61,20,2,1628937049.0,32.000000
-60,19,2,1628937049.0,32.000000
-60,20,2,1628937049.0,32.000000
-61,20,1,1628937049.0,32.000000
-61,20,1,1628937049.0,32.000000
-61,20,1,1628937049.0,32.000000
-61,20,2,1628937049.0,32.000000
-60,20,2,1628937049.0,32.000000
-60,20,3,1628937049.0,32.000000
-60,20,3,1628937049.0,32.000000
-60,20,3,1628937049.0,32.000000
-61,20,3,1628937049.0,32.000000
-61,20,3,1628937049.0,32.000000
-60,19,3,1628937049.0,32.000000
-61,20,3,1628937049.0,32.000000
-60,19,3,1628937049.0,32.000000
-61,20,3,1628937049.0,32.000000
-61,20,3,1628937049.0,32.000000
-60,20,3,1628937049.0,32.000000
-61,20,3,1628937049.0,32.000000
-60,20,3,1628937049.0,32.000000
-60,20,3,1628937049.0,32.000000
-60,20,3,1628937049.0,32.000000
-61,20,3,1628937049.0,32.000000
-61,20,4,1628937049.0,32.000000
-60,19,4,1628937049.0,32.000000
-61,19,4,1628937049.0,32.000000
-61,19,4,1628937049.0,32.000000
-61,19,3,1628937049.0,32.000000
-61,20,3,1628937049.0,32.000000
-60,20,3,1628937049.0,32.000000
-61,20,5,1628937049.0,32.000000
-60,19,5,1628937049.0,32.000000
-60,19,6,1628937049.0,32.000000
-60,19,6,1628937049.0,32.000000
-61,19,5,1628937049.0,32.000000
-60,20,5,1628937049.0,32.000000
-61,20,5,1628937049.0,32.000000
-60,19,4,1628937049.0,32.000000
-61,19,4,1628937049.0,32.000000
-61,19,5,1628937049.0,32.000000
-61,20,4,1628937049.0,32.000000
-61,20,5,1628937049.0,32.000000
-60,20,5,1628937049.0,32.000000
-60,20,5,1628937049.0,32.000000
-60,20,5,1628937049.0,32.000000
-61,20,5,1628937049.0,32.000000
-61,19,5,1628937049.0,32.000000
-60,19,5,1628937049.0,32.000000
-61,20,5,1628937049.0,32.000000
-60,19,5,1628937049.0,32.000000
-60,20,5,1628937049.0,32.000000
-60,19,5,1628937049.0,32.000000
-60,20,5,1628937049.0,32.000000
-60,20,6,1628937049.0,32.000000
-60,20,6,1628937049.0,32.000000
-61,19,5,1628937049.0,32.000000
-60,19,5,1628937049.0,32.000000
-61,20,5,1628937049.0,32.000000
-60,20,5,1628937049.0,32.000000
-61,19,5,1628937049.0,32.000000
-61,20,6,1628937049.0,32.000000
-60,20,6,1628937049.0,32.000000
-60,20,6,1628937049.0,32.000000
-60,20,6,1628937049.0,32.000000
-60,20,6,1628937049.0,32.000000
-61,19,6,1628937049.0,32.000000
-61,19,5,1628937049.0,32.000000
-60,19,6,1628937049.0,32.000000
-61,19,6,1628937049.0,32.000000
-60,20,7,1628937049.0,32.000000
-60,20,7,1628937049.0,32.000000
-60,20,7,1628937049.0,32.000000
-60,20,7,1628937049.0,32.000000
-60,19,6,1628937049.0,32.000000
-60,19,7,1628937049.0,32.000000
-60,20,7,1628937049.0,32.000000
-60,20,6,1628937049.0,32.000000
-60,20,6,1628937049.0,32.000000
-60,20,7,1628937049.0,32.000000
-60,20,7,1628937049.0,32.000000
-60,19,7,1628937049.0,32.000000
-60,20,7,1628937049.0,32.000000
-60,20,7,1628937049.0,32.000000
-60,20,7,1628937049.0,32.000000
-60,20,7,1628937049.0,32.000000
-60,20,7,1628937049.0,32.000000
-60,19,7,1628937049.0,32.000000
-60,20,7,1628937049.0,32.000000
-60,20,7,1628937049.0,32.000000
-60,20,7,1628937049.0,32.000000
-60,20,7,1628937049.0,32.000000
-60,20,7,1628937049.0,32.000000
-60,20,7,1628937049.0,32.000000
-60,20,7,1628937049.0,32.000000
-60,20,7,1628937049.0,32.000000
-60,19,7,1628937049.0,32.000000
-60,20,7,1628937049.0,32.000000
-60,20,7,1628937049.0,32.000000
-60,19,7,1628937049.0,32.000000
-60,20,7,1628937049.0,32.000000
-60,20,7,1628937049.0,32.000000
-60,20,7,1628937049.0,32.000000
-60,20,7,1628937049.0,32.000000
-60,20,7,1628937049.0,32.000000
-60,20,7,1628937049.0,32.000000
-60,19,7,1628937049.0,32.000000
-60,19,7,1628937049.0,32.000000
-60,20,7,1628937049.0,32.000000
-60,20,7,1628937049.0,32.000000
-60,19,7,1628937049.0,32.000000
-60,20,7,1628937049.0,32.000000
-60,20,7,1628937049.0,32.000000
-60,20,7,1628937049.0,32.000000
-60,19,7,1628937049.0,32.000000
-60,20,7,1628937049.0,32.000000
-60,19,6,1628937049.0,32.000000
-60,20,7,1628937049.0,32.000000
-60,20,7,1628937049.0,32.000000
-60,20,6,1628937049.0,32.000000
-60,20,7,1628937049.0,32.000000
-60,19,7,1628937049.0,32.000000
-61,20,6,1628937049.0,32.000000
-61,20,7,1628937049.0,32.000000
-60,20,7,1628937049.0,32.000000
-60,20,8,1628937049.0,32.000000
-60,19,8,1628937049.0,32.000000
-60,19,8,1628937049.0,32.000000
-60,20,7,1628937049.0,32.000000
-60,20,7,1628937049.0,32.000000
-60,20,7,1628937049.0,32.000000
-60,19,7,1628937049.0,32.000000
-60,19,8,1628937049.0,32.000000
-61,20,7,1628937049.0,32.000000
-60,20,8,1628937049.0,32.000000
-60,20,7,1628937049.0,32.000000
-60,19,7,1628937049.0,32.000000
-60,19,8,1628937049.0,32.000000
-61,19,9,1628937049.0,32.000000
-62,19,9,1628937049.0,32.000000
-76,16,1,1628937049.0,32.000000
-121,25,-4,1628937049.0,32.000000
-97,29,20,1628937049.0,32.000000
-68,33,30,1628937049.0,32.000000
-64,39,29,1628937049.0,32.000000
-48,42,26,1628937049.0,32.000000
-25,42,23,1628937049.0,32.000000
-20,45,19,1628937049.0,32.000000
-13,47,18,1628937049.0,32.000000
-5,48,17,1628937049.0,32.000000
0,50,14,1628937049.0,32.000000
1,47,16,1628937049.0,32.000000
10,49,18,1628937049.0,32.000000
13,50,21,1628937049.0,32.000000
13,48,22,1628937049.0,32.000000
12,50,20,1628937049.0,32.000000
13,49,23,1628937049.0,32.000000
12,50,23,1628937049.0,32.000000
13,51,25,1628937049.0,32.000000
10,51,25,1628937049.0,32.000000
11,51,25,1628937049.0,32.000000
13,53,24,1628937049.0,32.000000
15,53,27,1628937049.0,32.000000
16,54,26,1628937049.0,32.000000
16,56,24,1628937049.0,32.000000
17,55,25,1628937049.0,32.000000
16,57,23,1628937049.0,32.000000
18,59,25,1628937049.0,32.000000
19,59,26,1628937049.0,32.000000
19,58,24,1628937049.0,32.000000
20,58,24,1628937049.0,32.000000
20,56,26,1628937049.0,32.000000
19,55,24,1628937049.0,32.000000
19,54,23,1628937049.0,32.000000
19,53,22,1628937049.0,32.000000
20,54,22,1628937049.0,32.000000
21,54,21,1628937049.0,32.000000
20,54,22,1628937049.0,32.000000
20,55,21,1628937049.0,32.000000
21,55,22,1628937049.0,32.000000
22,56,22,1628937049.0,32.000000
21,56,21,1628937049.0,32.000000
20,56,22,1628937049.0,32.000000
21,56,23,1628937049.0,32.000000
21,57,22,1628937049.0,32.000000
20,55,21,1628937049.0,32.000000
21,54,23,1628937049.0,32.000000
20,55,21,1628937049.0,32.000000
20,54,20,1628937049.0,32.000000
20,55,20,1628937049.0,32.000000
21,56,21,1628937049.0,32.000000
22,56,20,1628937049.0,32.000000
21,57,20,1628937049.0,32.000000
24,56,21,1628937049.0,32.000000
24,57,20,1628937049.0,32.000000
24,57,19,1628937049.0,32.000000
24,57,19,1628937049.0,32.000000
24,54,19,1628937049.0,32.000000
25,54,19,1628937049.0,32.000000
24,53,18,1628937049.0,32.000000
24,53,18,1628937049.0,32.000000
24,53,18,1628937049.0,32.000000
24,54,18,1628937049.0,32.000000
24,57,17,1628937049.0,32.000000
24,57,17,1628937049.0,32.000000
23,56,17,1628937049.0,32.000000
24,55,18,1628937049.0,32.000000
23,55,18,1628937049.0,32.000000
23,55,18,1628937049.0,32.000000
22,55,19,1628937049.0,32.000000
23,53,18,1628937049.0,32.000000
22,53,18,1628937049.0,32.000000
21,53,18,1628937049.0,32.000000
23,50,18,1628937049.0,32.000000
23,52,18,1628937049.0,32.000000
20,55,19,1628937049.0,32.000000
18,52,19,1628937049.0,32.000000
15,53,20,1628937049.0,32.000000
14,52,26,1628937049.0,32.000000
10,51,29,1628937049.0,32.000000
10,53,30,1628937049.0,32.000000
11,48,36,1628937049.0,32.000000
8,45,40,1628937049.0,32.000000
5,48,41,1628937049.0,32.000000
4,43,45,1628937049.0,32.000000
0,39,47,1628937049.0,32.000000
-5,38,49,1628937049.0,32.000000
-1,38,50,1628937049.0,32.000000
-12,31,58,1628937049.0,32.000000
-20,31,63,1628937049.0,32.000000
-12,30,59,1628937049.0,32.000000
-17,21,64,1628937049.0,32.000000
-18,20,70,1628937049.0,32.000000
-21,18,66,1628937049.0,32.000000
-21,16,60,1628937049.0,32.000000
-22,14,61,1628937049.0,32.000000
-20,13,60,1628937049.0,32.000000
-21,10,57,1628937049.0,32.000000
-22,11,59,1628937049.0,32.000000
-28,8,62,1628937049.0,32.000000
-56,-1,67,1628937049.0,32.000000
-8,16,68,1628937049.0,32.000000
-19,10,53,1628937049.0,32.000000
-20,8,54,1628937049.0,32.000000
-22,14,58,1628937049.0,32.000000
-22,14,58,1628937049.0,32.000000
-14,13,62,1628937049.0,32.000000
-11,14,63,1628937049.0,32.000000
-11,13,62,1628937049.0,32.000000
-14,14,60,1628937049.0,32.000000
-14,13,60,1628937049.0,32.000000
-13,14,60,1628937049.0,32.000000
-13,13,61,1628937049.0,32.000000
-13,14,61,1628937049.0,32.000000
-13,13,61,1628937049.0,32.000000
-12,13,61,1628937049.0,32.000000
-13,14,61,1628937049.0,32.000000
-13,14,61,1628937049.0,32.000000
-12,14,61,1628937049.0,32.000000
-13,14,60,1628937049.0,32.000000
-12,13,60,1628937049.0,32.000000
-12,14,61,1628937049.0,32.000000
-12,14,61,1628937049.0,32.000000
-12,13,61,1628937049.0,32.000000
-12,14,60,1628937049.0,32.000000
-12,14,61,1628937049.0,32.000000
-12,14,61,1628937049.0,32.000000
-12,14,61,1628937049.0,32.000000
-12,14,60,1628937049.0,32.000000
-12,14,61,1628937049.0,32.000000
-12,14,61,1628937049.0,32.000000
-12,14,60,1628937049.0,32.000000
-12,14,60,1628937049.0,32.000000
-12,14,60,1628937049.0,32.000000
-12,14,61,1628937049.0,32.000000
-12,14,61,1628937049.0,32.000000
-12,14,60,1628937049.0,32.000000
-12,14,61,1628937049.0,32.000000
-12,14,61,1628937049.0,32.000000
-12,14,61,1628937049.0,32.000000
-12,14,61,1628937049.0,32.000000
-12,14,61,1628937049.0,32.000000
-12,14,61,1628937049.0,32.000000
-12,14,61,1628937049.0,32.000000
-12,14,61,1628937049.0,32.000000
-12,14,60,1628937049.0,32.000000
-12,14,61,1628937049.0,32.000000
-12,14,61,1628937049.0,32.000000
-12,14,61,1628937049.0,32.000000
-12,14,60,1628937049.0,32.000000
-12,14,60,1628937049.0,32.000000
-12,14,61,1628937049.0,32.000000
-12,14,60,1628937049.0,32.000000
-13,14,60,1628937049.0,32.000000
-12,14,60,1628937049.0,32.000000
-12,14,60,1628937049.0,32.000000
-12,14,60,1628937049.0,32.000000
-12,14,61,1628937049.0,32.000000
-12,14,61,1628937049.0,32.000000
-12,14,61,1628937049.0,32.000000
-12,14,60,1628937049.0,32.000000
-12,14,61,1628937049.0,32.000000
-12,14,61,1628937049.0,32.000000
-12,14,61,1628937049.0,32.000000
-12,14,61,1628937049.0,32.000000
-12,14,61,1628937049.0,32.000000
-12,14,60,1628937049.0,32.000000
-12,14,60,1628937049.0,32.000000
-12,14,60,1628937049.0,32.000000
-12,14,61,1628937049.0,32.000000
-12,14,60,1628937049.0,32.000000
-12,14,61,1628937049.0,32.000000
-12,14,60,1628937049.0,32.000000
-12,14,61,1628937049.0,32.000000
-12,14,61,1628937049.0,32.000000
-12,14,61,1628937049.0,32.000000
-12,14,60,1628937049.0,32.000000
-12,14,60,1628937049.0,32.000000
-12,14,60,1628937049.0,32.000000
-12,14,60,1628937049.0,32.000000
-12,14,60,1628937049.0,32.000000
-12,14,61,1628937049.0,32.000000
-12,14,60,1628937049.0,32.000000
-12,14,61,1628937049.0,32.000000
-12,14,61,1628937049.0,32.000000
-12,14,60,1628937049.0,32.000000
-12,14,60,1628937049.0,32.000000
-12,14,61,1628937049.0,32.000000
-12,14,61,1628937049.0,32.000000
-12,14,61,1628937049.0,32.000000
-12,14,60,1628937049.0,32.000000
-12,14,61,1628937049.0,32.000000
-12,14,60,1628937049.0,32.000000
-12,15,61,1628937049.0,32.000000
-12,14,61,1628937049.0,32.000000
-13,14,60,1628937049.0,32.000000
-12,14,61,1628937049.0,32.000000
-12,14,61,1628937049.0,32.000000
-12,14,60,1628937049.0,32.000000
-11,15,61,1628937049.0,32.000000
-11,16,61,1628937049.0,32.000000
-10,13,61,1628937049.0,32.000000
-11,14,61,1628937049.0,32.000000
-11,13,61,1628937049.0,32.000000
-12,14,61,1628937049.0,32.000000
-12,14,61,1628937049.0,32.000000
-13,13,60,1628937049.0,32.000000
-13,15,60,1628937049.0,32.000000
-12,15,61,1628937049.0,32.000000
-13,14,60,1628937049.0,32.000000
-13,14,60,1628937049.0,32.000000
-13,14,60,1628937049.0,32.000000
-13,14,60,1628937049.0,32.000000
-13,14,60,1628937049.0,32.000000
-13,14,61,1628937049.0,32.000000
-13,14,60,1628937049.0,32.000000
-13,14,60,1628937049.0,32.000000
-13,14,60,1628937049.0,32.000000
-13,14,60,1628937049.0,32.000000
-13,13,60,1628937049.0,32.000000
-13,13,60,1628937049.0,32.000000
-13,14,61,1628937049.0,32.000000
-13,14,60,1628937049.0,32.000000
-13,14,60,1628937049.0,32.000000
-14,14,60,1628937049.0,32.000000
-13,14,61,1628937049.0,32.000000
-14,15,60,1628937049.0,32.000000
-15,14,59,1628937049.0,32.000000
-14,14,61,1628937049.0,32.000000
-11,16,63,1628937049.0,32.000000
-16,12,58,1628937049.0,32.000000
-18,9,59,1628937049.0,32.000000
-18,9,58,1628937049.0,32.000000
-12,12,62,1628937049.0,32.000000
-13,13,61,1628937049.0,32.000000
-10,7,64,1628937049.0,32.000000
-20,11,60,1628937049.0,32.000000
-17,13,59,1628937049.0,32.000000
-15,14,59,1628937049.0,32.000000
-22,18,56,1628937049.0,32.000000
-21,16,58,1628937049.0,32.000000
-25,9,58,1628937049.0,32.000000
-34,13,51,1628937049.0,32.000000
-27,12,55,1628937049.0,32.000000
-26,13,56,1628937049.0,32.000000
-26,12,55,1628937049.0,32.000000
-27,12,56,1628937049.0,32.000000
-28,12,55,1628937049.0,32.000000
-27,12,55,1628937049.0,32.000000
-27,13,56,1628937049.0,32.000000
-27,13,55,1628937049.0,32.000000
-27,12,55,1628937049.0,32.000000
-27,13,55,1628937049.0,32.000000
-27,13,55,1628937049.0,32.000000
-27,13,56,1628937049.0,32.000000
-27,13,56,1628937049.0,32.000000
-27,14,55,1628937049.0,32.000000
-27,14,56,1628937049.0,32.000000
-27,13,55,1628937049.0,32.000000
-28,13,55,1628937049.0,32.000000
-28,14,55,1628937049.0,32.000000
-27,13,55,1628937049.0,32.000000
-27,13,55,1628937049.0,32.000000
-28,14,55,1628937049.0,32.000000
-27,14,55,1628937049.0,32.000000
-28,14,55,1628937049.0,32.000000
-28,14,55,1628937049.0,32.000000
-26,13,56,1628937049.0,32.000000
-34,13,52,1628937049.0,32.000000
-30,10,57,1628937049.0,32.000000
-29,14,55,1628937049.0,32.000000
-32,12,54,1628937049.0,32.000000
-27,18,56,1628937049.0,32.000000
-31,20,58,1628937049.0,32.000000
-35,15,56,1628937049.0,32.000000
-25,13,63,1628937049.0,32.000000
-22,12,67,1628937049.0,32.000000
-20,12,66,1628937049.0,32.000000
-15,13,63,1628937049.0,32.000000
-18,16,60,1628937049.0,32.000000
-22,18,59,1628937049.0,32.000000
-23,20,55,1628937049.0,32.000000
-27,21,51,1628937049.0,32.000000
-23,21,51,1628937049.0,32.000000
-20,19,51,1628937049.0,32.000000
-23,19,47,1628937049.0,32.000000
-32,17,47,1628937049.0,32.000000
-34,17,47,1628937049.0,32.000000
-42,16,45,1628937049.0,32.000000
-38,15,45,1628937049.0,32.000000
-27,10,48,1628937049.0,32.000000
-21,8,49,1628937049.0,32.000000
-23,10,49,1628937049.0,32.000000
-24,7,60,1628937049.0,32.000000
-23,5,62,1628937049.0,32.000000
-21,5,62,1628937049.0,32.000000
-18,6,53,1628937049.0,32.000000
-19,6,49,1628937049.0,32.000000
-19,7,52,1628937049.0,32.000000
-25,6,67,1628937049.0,32.000000
-33,3,77,1628937049.0,32.000000
-41,2,67,1628937049.0,32.000000
-31,6,56,1628937049.0,32.000000
-24,6,57,1628937049.0,32.000000
-25,-1,61,1628937049.0,32.000000
-23,1,59,1628937049.0,32.000000
-24,3,59,1628937049.0,32.000000
-22,3,59,1628937049.0,32.000000
-22,3,59,1628937049.0,32.000000
-21,3,59,1628937049.0,32.000000
-22,2,59,1628937049.0,32.000000
-24,1,59,1628937049.0,32.000000
-26,3,57,1628937049.0,32.000000
-27,2,57,1628937049.0,32.000000
-28,2,57,1628937049.0,32.000000
-27,2,57,1628937049.0,32.000000
-25,2,58,1628937049.0,32.000000
-23,3,58,1628937049.0,32.000000
-24,3,58,1628937049.0,32.000000
-25,3,58,1628937049.0,32.000000
-25,2,58,1628937049.0,32.000000
-25,2,58,1628937049.0,32.000000
-25,2,58,1628937049.0,32.000000
-26,2,58,1628937049.0,32.000000
-26,2,57,1628937049.0,32.000000
-26,2,58,1628937049.0,32.000000
-26,2,57,1628937049.0,32.000000
-27,2,58,1628937049.0,32.000000
-27,2,57,1628937049.0,32.000000
-25,1,59,1628937049.0,32.000000
-23,2,59,1628937049.0,32.000000
-24,4,57,1628937049.0,32.000000
-24,4,58,1628937049.0,32.000000
-26,1,58,1628937049.0,32.000000
-27,2,58,1628937049.0,32.000000
-25,2,59,1628937049.0,32.000000
-25,2,58,1628937049.0,32.000000
-25,2,58,1628937049.0,32.000000
-25,3,58,1628937049.0,32.000000
-25,3,58,1628937049.0,32.000000
-24,3,58,1628937049.0,32.000000
-24,2,59,1628937049.0,32.000000
-25,2,58,1628937049.0,32.000000
-26,2,58,1628937049.0,32.000000
-26,2,58,1628937049.0,32.000000
-26,3,58,1628937049.0,32.000000
-25,2,58,1628937049.0,32.000000
-26,2,58,1628937049.0,32.000000
-25,2,58,1628937049.0,32.000000
-26,2,58,1628937049.0,32.000000
-26,2,58,1628937049.0,32.000000
-27,3,57,1628937049.0,32.000000
-26,2,57,1628937049.0,32.000000
-26,2,58,1628937049.0,32.000000
-26,2,57,1628937049.0,32.000000
-26,3,57,1628937049.0,32.000000
-26,2,58,1628937049.0,32.000000
-27,2,57,1628937049.0,32.000000
-27,3,57,1628937049.0,32.000000
-27,2,57,1628937049.0,32.000000
-28,2,57,1628937049.0,32.000000
-27,2,56,1628937049.0,32.000000
-27,3,57,1628937049.0,32.000000
-26,3,57,1628937049.0,32.000000
-28,3,56,1628937049.0,32.000000
-28,3,57,1628937049.0,32.000000
-28,3,56,1628937049.0,32.000000
-27,3,57,1628937049.0,32.000000
-27,3,57,1628937049.0,32.000000
-27,3,56,1628937049.0,32.000000
-28,3,56,1628937049.0,32.000000
-28,3,57,1628937049.0,32.000000
-28,3,57,1628937049.0,32.000000
-28,3,56,1628937049.0,32.000000
-28,3,56,1628937049.0,32.000000
-28,3,56,1628937049.0,32.000000
-29,3,56,1628937049.0,32.000000
-28,3,56,1628937049.0,32.000000
-28,3,57,1628937049.0,32.000000
-27,3,57,1628937049.0,32.000000
-28,3,56,1628937049.0,32.000000
-27,3,56,1628937049.0,32.000000
-27,3,56,1628937049.0,32.000000
-28,3,57,1628937049.0,32.000000
-28,3,57,1628937049.0,32.000000
-28,3,56,1628937049.0,32.000000
-28,3,56,1628937049.0,32.000000
-28,3,56,1628937049.0,32.000000
-28,3,56,1628937049.0,32.000000
-28,3,56,1628937049.0,32.000000
-28,3,56,1628937049.0,32.000000
-28,3,56,1628937049.0,32.000000
-29,3,56,1628937049.0,32.000000
-28,3,56,1628937049.0,32.000000
-28,3,56,1628937049.0,32.000000
-28,3,57,1628937049.0,32.000000
-28,3,57,1628937049.0,32.000000
-30,4,55,1628937049.0,32.000000
-27,3,57,1628937049.0,32.000000
-29,3,56,1628937049.0,32.000000
-29,3,56,1628937049.0,32.000000
-29,3,56,1628937049.0,32.000000
-29,3,56,1628937049.0,32.000000
-29,3,56,1628937049.0,32.000000
-29,3,56,1628937049.0,32.000000
-29,3,56,1628937049.0,32.000000
-29,3,56,1628937049.0,32.000000
-29,3,56,1628937049.0,32.000000
-28,3,56,1628937049.0,32.000000
-29,3,56,1628937049.0,32.000000
-29,3,56,1628937049.0,32.000000
-29,3,56,1628937049.0,32.000000
-29,3,56,1628937049.0,32.000000
-29,3,56,1628937049.0,32.000000
-29,3,56,1628937049.0,32.000000
-29,3,56,1628937049.0,32.000000
-29,3,56,1628937049.0,32.000000
-30,3,56,1628937049.0,32.000000
-29,3,56,1628937049.0,32.000000
-29,3,56,1628937049.0,32.000000
-29,3,56,1628937049.0,32.000000
-29,3,56,1628937049.0,32.000000
-29,3,56,1628937049.0,32.000000
-29,3,56,1628937049.0,32.000000
-29,3,55,1628937049.0,32.000000
-29,3,56,1628937049.0,32.000000
-29,3,56,1628937049.0,32.000000
-29,3,56,1628937049.0,32.000000
-30,3,56,1628937049.0,32.000000
-29,3,56,1628937049.0,32.000000
-29,3,56,1628937049.0,32.000000
-30,3,55,1628937049.0,32.000000
-30,3,55,1628937049.0,32.000000
-29,3,56,1628937049.0,32.000000
-29,3,55,1628937049.0,32.000000
-29,3,56,1628937049.0,32.000000
-29,3,56,1628937049.0,32.000000
-29,3,56,1628937049.0,32.000000
-30,3,56,1628937049.0,32.000000
-29,3,56,1628937049.0,32.000000
-29,3,56,1628937049.0,32.000000
-29,3,56,1628937049.0,32.000000
-29,3,56,1628937049.0,32.000000
-29,3,56,1628937049.0,32.000000
-29,3,56,1628937049.0,32.000000
-29,3,56,1628937049.0,32.000000
-29,3,56,1628937049.0,32.000000
-29,3,56,1628937049.0,32.000000
-30,3,55,1628937049.0,32.000000
-29,3,56,1628937049.0,32.000000
-29,3,56,1628937049.0,32.000000
-29,3,56,1628937049.0,32.000000
-29,3,56,1628937049.0,32.000000
-29,3,56,1628937049.0,32.000000
-29,3,56,1628937049.0,32.000000
-29,3,56,1628937049.0,32.000000
-29,3,56,1628937049.0,32.000000
-29,3,56,1628937049.0,32.000000
-29,3,56,1628937049.0,32.000000
-29,3,56,1628937049.0,32.000000
-29,3,56,1628937049.0,32.000000
-29,3,56,1628937049.0,32.000000
-29,3,56,1628937049.0,32.000000
-29,3,56,1628937049.0,32.000000
-29,3,56,1628937049.0,32.000000
-29,3,56,1628937049.0,32.000000
-29,3,56,1628937049.0,32.000000
-29,3,56,1628937049.0,32.000000
-29,3,56,1628937049.0,32.000000
-29,3,56,1628937049.0,32.000000
-29,3,56,1628937049.0,32.000000
-29,3,56,1628937049.0,32.000000
-29,3,56,1628937049.0,32.000000
-29,3,56,1628937049.0,32.000000
-29,3,55,1628937049.0,32.000000
-29,3,56,1628937049.0,32.000000
-29,3,56,1628937049.0,32.000000
-29,3,56,1628937049.0,32.000000
-29,3,56,1628937049.0,32.000000
-29,3,56,1628937049.0,32.000000
-29,3,56,1628937049.0,32.000000
-29,3,56,1628937049.0,32.000000
-29,3,56,1628937049.0,32.000000
-29,3,56,1628937049.0,32.000000
-29,3,56,1628937049.0,32.000000
-29,3,56,1628937049.0,32.000000
-29,3,56,1628937049.0,32.000000
-29,3,56,1628937049.0,32.000000
-29,3,56,1628937049.0,32.000000
-30,3,56,1628937049.0,32.000000
-29,3,56,1628937049.0,32.000000
-29,3,56,1628937049.0,32.000000
-29,3,56,1628937049.0,32.000000
-29,3,56,1628937049.0,32.000000
-29,3,56,1628937049.0,32.000000
-29,3,56,1628937049.0,32.000000
-29,3,56,1628937049.0,32.000000
-29,3,56,1628937049.0,32.000000
-29,3,56,1628937049.0,32.000000
-29,3,56,1628937049.0,32.000000
-29,3,56,1628937049.0,32.000000
-29,3,56,1628937049.0,32.000000
-29,3,56,1628937049.0,32.000000
-29,3,56,1628937049.0,32.000000
-29,3,56,1628937049.0,32.000000
-29,3,56,1628937049.0,32.000000
-29,3,56,1628937049.0,32.000000
-29,3,56,1628937049.0,32.000000
-29,3,56,1628937049.0,32.000000
-29,3,56,1628937049.0,32.000000
-29,3,56,1628937049.0,32.000000
-29,3,56,1628937049.0,32.000000
-29,3,56,1628937049.0,32.000000
-29,3,56,1628937049.0,32.000000
-29,3,56,1628937049.0,32.000000
-29,3,56,1628937049.0,32.000000
-29,3,56,1628937049.0,32.000000
-29,3,56,1628937049.0,32.000000
-29,3,56,1628937049.0,32.000000
-29,3,56,1628937049.0,32.000000
-29,3,56,1628937049.0,32.000000
-28,3,56,1628937049.0,32.000000
-29,3,56,1628937049.0,32.000000
-29,3,56,1628937049.0,32.000000
-29,3,56,1628937049.0,32.000000
-29,3,56,1628937049.0,32.000000
-29,3,56,1628937049.0,32.000000
-28,3,56,1628937049.0,32.000000
-28,3,56,1628937049.0,32.000000
-29,3,56,1628937049.0,32.000000
-29,3,56,1628937049.0,32.000000
-29,3,56,1628937049.0,32.000000
-29,3,56,1628937049.0,32.000000
-29,3,56,1628937049.0,32.000000
-29,3,56,1628937049.0,32.000000
-29,2,56,1628937049.0,32.000000
-29,3,56,1628937049.0,32.000000
-29,3,56,1628937049.0,32.000000
-29,3,56,1628937049.0,32.000000
-29,3,56,1628937049.0,32.000000
-29,3,56,1628937049.0,32.000000
-29,3,56,1628937049.0,32.000000
-29,3,56,1628937049.0,32.000000
-29,3,56,1628937049.0,32.000000
-29,3,56,1628937049.0,32.000000
-29,3,56,1628937049.0,32.000000
-29,3,56,1628937049.0,32.000000
-29,3,56,1628937049.0,32.000000
-29,3,56,1628937049.0,32.000000
-29,3,56,1628937049.0,32.000000
-29,3,56,1628937049.0,32.000000
-29,3,56,1628937049.0,32.000000
-28,3,56,1628937049.0,32.000000
-29,3,56,1628937049.0,32.000000
-29,3,56,1628937049.0,32.000000
-29,3,56,1628937049.0,32.000000
-29,3,56,1628937049.0,32.000000
-28,3,56,1628937049.0,32.000000
-29,3,56,1628937049.0,32.000000
-29,3,56,1628937049.0,32.000000
-29,3,56,1628937049.0,32.000000
-29,3,56,1628937049.0,32.000000
-29,3,56,1628937049.0,32.000000
-29,3,56,1628937049.0,32.000000
-29,3,56,1628937049.0,32.000000
-29,3,56,1628937049.0,32.000000
-29,3,56,1628937049.0,32.000000
-28,3,56,1628937049.0,32.000000
-29,3,56,1628937049.0,32.000000
-29,3,56,1628937049.0,32.000000
-29,3,56,1628937049.0,32.000000
-29,3,56,1628937049.0,32.000000
-29,3,56,1628937049.0,32.000000
-29,3,56,1628937049.0,32.000000
-29,3,56,1628937049.0,32.000000
-28,3,56,1628937049.0,32.000000
-29,3,56,1628937049.0,32.000000
-29,3,56,1628937049.0,32.000000
-29,3,56,1628937049.0,32.000000
-29,3,56,1628937049.0,32.000000
-29,3,56,1628937049.0,32.000000
-29,3,56,1628937049.0,32.000000
-29,3,56,1628937049.0,32.000000
-29,3,56,1628937049.0,32.000000
-29,3,56,1628937049.0,32.000000
-29,3,56,1628937049.0,32.000000
-28,3,56,1628937049.0,32.000000
-29,3,56,1628937049.0,32.000000
-28,3,56,1628937049.0,32.000000
-29,3,56,1628937049.0,32.000000
-29,3,56,1628937049.0,32.000000
-29,3,56,1628937049.0,32.000000
-29,3,56,1628937049.0,32.000000
-29,3,56,1628937049.0,32.000000
-29,3,56,1628937049.0,32.000000
-29,3,56,1628937049.0,32.000000
-28,3,56,1628937049.0,32.000000
-28,3,56,1628937049.0,32.000000
-29,3,56,1628937049.0,32.000000
-28,3,56,1628937049.0,32.000000
-29,3,56,1628937049.0,32.000000
-28,3,56,1628937049.0,32.000000
-29,3,56,1628937049.0,32.000000
-29,3,56,1628937049.0,32.000000
-29,3,56,1628937049.0,32.000000
-29,3,56,1628937049.0,32.000000
-29,3,56,1628937049.0,32.000000
-29,3,56,1628937049.0,32.000000
-29,3,56,1628937049.0,32.000000
-29,3,56,1628937049.0,32.000000
-29,3,56,1628937049.0,32.000000
-29,3,56,1628937049.0,32.000000
-29,3,56,1628937049.0,32.000000
-29,3,56,1628937049.0,32.000000
-29,3,56,1628937049.0,32.000000
-29,3,56,1628937049.0,32.000000
-29,3,56,1628937049.0,32.000000
-29,3,56,1628937049.0,32.000000
-29,3,56,1628937049.0,32.000000
-29,3,56,1628937049.0,32.000000
-29,3,56,1628937049.0,32.000000
-29,3,56,1628937049.0,32.000000
-29,3,56,1628937049.0,32.000000
-29,3,56,1628937049.0,32.000000
-29,3,56,1628937049.0,32.000000
-29,3,56,1628937049.0,32.000000
-29,3,56,1628937049.0,32.000000
-29,3,56,1628937049.0,32.000000
-29,3,56,1628937049.0,32.000000
-29,3,56,1628937049.0,32.000000
-29,3,56,1628937049.0,32.000000
-29,3,56,1628937049.0,32.000000
-29,3,56,1628937049.0,32.000000
-29,3,56,1628937049.0,32.000000
-29,3,56,1628937049.0,32.000000
-29,3,56,1628937049.0,32.000000
-28,3,56,1628937049.0,32.000000
-28,3,57,1628937049.0,32.000000
-28,3,56,1628937049.0,32.000000
-29,3,56,1628937049.0,32.000000
-29,3,56,1628937049.0,32.000000
-29,3,56,1628937049.0,32.000000
-28,3,56,1628937049.0,32.000000
-29,3,56,1628937049.0,32.000000
-29,3,56,1628937049.0,32.000000
-29,3,56,1628937049.0,32.000000
-29,3,56,1628937049.0,32.000000
-29,3,56,1628937049.0,32.000000
-29,3,56,1628937049.0,32.000000
-29,3,56,1628937049.0,32.000000
-28,3,56,1628937049.0,32.000000
-29,3,56,1628937049.0,32.000000
-29,3,56,1628937049.0,32.000000
-29,3,56,1628937049.0,32.000000
-29,3,56,1628937049.0,32.000000
-29,3,56,1628937049.0,32.000000
-29,3,56,1628937049.0,32.000000
-29,3,56,1628937049.0,32.000000
-29,3,56,1628937049.0,32.000000
-29,3,56,1628937049.0,32.000000
-29,3,56,1628937049.0,32.000000
-29,3,56,1628937049.0,32.000000
-29,3,56,1628937049.0,32.000000
-29,3,56,1628937049.0,32.000000
-29,3,56,1628937049.0,32.000000
-29,3,56,1628937049.0,32.000000
-29,3,56,1628937049.0,32.000000
-29,3,56,1628937049.0,32.000000
-29,3,56,1628937049.0,32.000000
-29,3,56,1628937049.0,32.000000
-29,3,56,1628937049.0,32.000000
-29,3,56,1628937049.0,32.000000
-29,3,56,1628937049.0,32.000000
-29,3,56,1628937049.0,32.000000
-29,3,56,1628937049.0,32.000000
-29,3,56,1628937049.0,32.000000
-29,3,56,1628937049.0,32.000000
-29,3,56,1628937049.0,32.000000
-29,3,56,1628937049.0,32.000000
-29,3,56,1628937049.0,32.000000
-29,3,56,1628937049.0,32.000000
-29,3,56,1628937049.0,32.000000
-29,3,56,1628937049.0,32.000000
-29,3,56,1628937049.0,32.000000
-29,3,56,1628937049.0,32.000000
-29,3,56,1628937049.0,32.000000
-29,3,56,1628937049.0,32.000000
-29,3,56,1628937049.0,32.000000
-29,3,56,1628937049.0,32.000000
-29,3,56,1628937049.0,32.000000
-29,3,56,1628937049.0,32.000000
-29,3,56,1628937049.0,32.000000
-29,3,56,1628937049.0,32.000000
-29,3,56,1628937049.0,32.000000
-29,3,56,1628937049.0,32.000000
-29,3,56,1628937049.0,32.000000
-29,3,56,1628937049.0,32.000000
-29,3,56,1628937049.0,32.000000
-29,3,56,1628937049.0,32.000000
-29,3,56,1628937049.0,32.000000
-29,3,56,1628937049.0,32.000000
-29,3,56,1628937049.0,32.000000
-29,3,56,1628937049.0,32.000000
-29,3,56,1628937049.0,32.000000
-29,3,56,1628937049.0,32.000000
-29,3,56,1628937049.0,32.000000
-29,3,56,1628937049.0,32.000000
-29,3,56,1628937049.0,32.000000
-29,3,56,1628937049.0,32.000000
-29,3,56,1628937049.0,32.000000
-29,3,56,1628937049.0,32.000000
-29,3,56,1628937049.0,32.000000
-29,3,55,1628937049.0,32.000000
-29,3,56,1628937049.0,32.000000
-29,3,56,1628937049.0,32.000000
-28,3,56,1628937049.0,32.000000
-29,3,56,1628937049.0,32.000000
-30,3,56,1628937049.0,32.000000
-30,3,56,1628937049.0,32.000000
-30,3,55,1628937049.0,32.000000
-30,3,55,1628937049.0,32.000000
-29,3,56,1628937049.0,32.000000
-28,2,56,1628937049.0,32.000000
-29,2,56,1628937049.0,32.000000
-28,2,56,1628937049.0,32.000000
-28,2,56,1628937049.0,32.000000
-28,2,57,1628937049.0,32.000000
-28,2,56,1628937049.0,32.000000
-29,3,56,1628937049.0,32.000000
-31,2,55,1628937049.0,32.000000
-29,3,52,1628937049.0,32.000000
-26,4,51,1628937049.0,32.000000
-31,6,52,1628937049.0,32.000000
-27,2,55,1628937049.0,32.000000
-28,-1,60,1628937049.0,32.000000
-30,1,55,1628937049.0,32.000000
-30,3,58,1628937049.0,32.000000
-25,3,55,1628937049.0,32.000000
-27,2,57,1628937049.0,32.000000
-29,3,55,1628937049.0,32.000000
-28,2,57,1628937049.0,32.000000
-30,2,55,1628937049.0,32.000000
-31,2,56,1628937049.0,32.000000
-30,2,56,1628937049.0,32.000000
-29,2,56,1628937049.0,32.000000
-29,3,56,1628937049.0,32.000000
-29,3,56,1628937049.0,32.000000
-28,3,56,1628937049.0,32.000000
-29,2,56,1628937049.0,32.000000
-28,2,56,1628937049.0,32.000000
-28,2,57,1628937049.0,32.000000
-28,3,56,1628937049.0,32.000000
-29,3,56,1628937049.0,32.000000
-29,3,56,1628937049.0,32.000000
-28,3,56,1628937049.0,32.000000
-29,3,56,1628937049.0,32.000000
-29,2,56,1628937049.0,32.000000
-29,2,56,1628937049.0,32.000000
-28,3,56,1628937049.0,32.000000
-28,3,56,1628937049.0,32.000000
-28,3,56,1628937049.0,32.000000
-29,3,56,1628937049.0,32.000000
-29,3,56,1628937049.0,32.000000
-29,3,56,1628937049.0,32.000000
-30,3,56,1628937049.0,32.000000
-30,3,56,1628937049.0,32.000000
-29,3,56,1628937049.0,32.000000
-29,3,55,1628937049.0,32.000000
-29,3,56,1628937049.0,32.000000
-29,3,56,1628937049.0,32.000000
-29,3,56,1628937049.0,32.000000
-29,3,56,1628937049.0,32.000000
-29,3,56,1628937049.0,32.000000
-29,3,56,1628937049.0,32.000000
-29,3,56,1628937049.0,32.000000
-29,3,56,1628937049.0,32.000000
-29,3,56,1628937049.0,32.000000
-29,3,56,1628937049.0,32.000000
-29,3,56,1628937049.0,32.000000
-29,3,56,1628937049.0,32.000000
-29,3,56,1628937049.0,32.000000
-29,3,56,1628937049.0,32.000000
-29,3,56,1628937049.0,32.000000
-29,3,56,1628937049.0,32.000000
-29,3,56,1628937049.0,32.000000
-29,3,56,1628937049.0,32.000000
-29,3,56,1628937049.0,32.000000
-29,3,56,1628937049.0,32.000000
-29,3,56,1628937049.0,32.000000
-30,3,55,1628937049.0,32.000000
-29,3,56,1628937049.0,32.000000
-29,3,56,1628937049.0,32.000000
-29,3,56,1628937049.0,32.000000
-29,3,56,1628937049.0,32.000000
-29,3,56,1628937049.0,32.000000
-29,3,56,1628937049.0,32.000000
-30,3,56,1628937049.0,32.000000
-30,3,55,1628937049.0,32.000000
-30,3,55,1628937049.0,32.000000
-30,3,55,1628937049.0,32.000000
-30,3,56,1628937049.0,32.000000
-29,3,55,1628937049.0,32.000000
-29,3,56,1628937049.0,32.000000
-29,3,56,1628937049.0,32.000000
-29,3,56,1628937049.0,32.000000
-29,3,56,1628937049.0,32.000000
-29,3,56,1628937049.0,32.000000
-30,3,55,1628937049.0,32.000000
-29,3,56,1628937049.0,32.000000
-29,3,56,1628937049.0,32.000000
-30,3,56,1628937049.0,32.000000
-29,3,56,1628937049.0,32.000000
-29,3,56,1628937049.0,32.000000
-29,3,56,1628937049.0,32.000000
-29,3,56,1628937049.0,32.000000
-29,3,56,1628937049.0,32.000000
-29,3,56,1628937049.0,32.000000
-29,3,56,1628937049.0,32.000000
-30,4,55,1628937049.0,32.000000
-30,3,55,1628937049.0,32.000000
-29,3,56,1628937049.0,32.000000
-29,3,56,1628937049.0,32.000000
-29,3,56,1628937049.0,32.000000
-29,3,56,1628937049.0,32.000000
-29,3,56,1628937049.0,32.000000
-29,3,56,1628937049.0,32.000000
-29,4,55,1628937049.0,32.000000
-29,3,56,1628937049.0,32.000000
-30,4,56,1628937049.0,32.000000
-29,3,56,1628937049.0,32.000000
-29,3,56,1628937049.0,32.000000
-30,3,56,1628937049.0,32.000000
-29,3,56,1628937049.0,32.000000
-29,3,56,1628937049.0,32.000000
-29,4,56,1628937049.0,32.000000
-29,3,56,1628937049.0,32.000000
-29,3,56,1628937049.0,32.000000
-30,3,56,1628937049.0,32.000000
-29,3,56,1628937049.0,32.000000
-29,3,56,1628937049.0,32.000000
-29,3,56,1628937049.0,32.000000
-29,3,56,1628937049.0,32.000000
-29,3,56,1628937049.0,32.000000
-29,3,56,1628937049.0,32.000000
-29,3,56,1628937049.0,32.000000
-29,3,56,1628937049.0,32.000000
-29,3,56,1628937049.0,32.000000
-29,3,56,1628937049.0,32.000000
-29,3,56,1628937049.0,32.000000
-29,3,56,1628937049.0,32.000000
-29,3,56,1628937049.0,32.000000
-29,3,56,1628937049.0,32.000000
-29,3,56,1628937049.0,32.000000
-29,3,56,1628937049.0,32.000000
-29,3,56,1628937049.0,32.000000
-28,3,56,1628937049.0,32.000000
-29,3,56,1628937049.0,32.000000
-29,3,56,1628937049.0,32.000000
-29,3,56,1628937049.0,32.000000
-29,3,56,1628937049.0,32.000000
-29,3,56,1628937049.0,32.000000
-28,3,56,1628937049.0,32.000000
-29,3,56,1628937049.0,32.000000
-30,3,55,1628937049.0,32.000000
-29,3,56,1628937049.0,32.000000
-29,3,56,1628937049.0,32.000000
-28,3,56,1628937049.0,32.000000
-28,3,56,1628937049.0,32.000000
-28,4,56,1628937049.0,32.000000
-29,3,56,1628937049.0,32.000000
-29,3,56,1628937049.0,32.000000
-29,3,56,1628937049.0,32.000000
-28,3,56,1628937049.0,32.000000
-28,4,56,1628937049.0,32.000000
-31,4,55,1628937049.0,32.000000
-30,4,55,1628937049.0,32.000000
-30,3,55,1628937049.0,32.000000
-29,3,56,1628937049.0,32.000000
-29,3,56,1628937049.0,32.000000
-29,3,56,1628937049.0,32.000000
-29,3,56,1628937049.0,32.000000
-29,3,56,1628937049.0,32.000000
-29,4,56,1628937049.0,32.000000
-29,3,56,1628937049.0,32.000000
-29,3,56,1628937049.0,32.000000
-29,3,56,1628937049.0,32.000000
-29,3,56,1628937049.0,32.000000
-28,3,56,1628937049.0,32.000000
-28,4,56,1628937049.0,32.000000
-29,4,56,1628937049.0,32.000000
-30,3,56,1628937049.0,32.000000
-29,3,56,1628937049.0,32.000000
-29,3,56,1628937049.0,32.000000
-29,4,56,1628937049.0,32.000000
-29,3,56,1628937049.0,32.000000
-29,3,55,1628937049.0,32.000000
-30,3,56,1628937049.0,32.000000
-29,3,56,1628937049.0,32.000000
-29,3,56,1628937049.0,32.000000
-29,3,56,1628937049.0,32.000000
-29,3,56,1628937049.0,32.000000
-29,3,56,1628937049.0,32.000000
-30,4,55,1628937049.0,32.000000
-30,4,55,1628937049.0,32.000000
-29,3,56,1628937049.0,32.000000
-29,3,56,1628937049.0,32.000000
-29,3,56,1628937049.0,32.000000
-29,4,56,1628937049.0,32.000000
-29,4,56,1628937049.0,32.000000
-29,4,56,1628937049.0,32.000000
-29,4,56,1628937049.0,32.000000
-29,4,56,1628937049.0,32.000000
-29,3,56,1628937049.0,32.000000
-29,4,56,1628937049.0,32.000000
-29,4,56,1628937049.0,32.000000
-29,4,56,1628937049.0,32.000000
-29,4,56,1628937049.0,32.000000
-29,4,56,1628937049.0,32.000000
-29,3,56,1628937049.0,32.000000
-29,3,56,1628937049.0,32.000000
-29,4,56,1628937049.0,32.000000
-29,3,56,1628937049.0,32.000000
-29,4,56,1628937049.0,32.000000
-29,4,56,1628937049.0,32.000000
-29,4,56,1628937049.0,32.000000
-29,3,56,1628937049.0,32.000000
-29,4,56,1628937049.0,32.000000
-29,4,56,1628937049.0,32.000000
-29,4,56,1628937049.0,32.000000
-29,4,56,1628937049.0,32.000000
-29,3,56,1628937049.0,32.000000
-29,4,56,1628937049.0,32.000000
-29,3,56,1628937049.0,32.000000
-29,3,56,1628937049.0,32.000000
-29,4,56,1628937049.0,32.000000
-29,4,56,1628937049.0,32.000000
-29,4,56,1628937049.0,32.000000
-29,4,56,1628937049.0,32.000000
-29,4,56,1628937049.0,32.000000
-29,3,56,1628937049.0,32.000000
-29,3,56,1628937049.0,32.000000
-29,3,56,1628937049.0,32.000000
-29,5,55,1628937049.0,32.000000
-29,4,56,1628937049.0,32.000000
-29,3,56,1628937049.0,32.000000
-29,4,55,1628937049.0,32.000000
-29,4,56,1628937049.0,32.000000
-29,4,56,1628937049.0,32.000000
-29,4,56,1628937049.0,32.000000
-29,4,56,1628937049.0,32.000000
-29,4,56,1628937049.0,32.000000
-29,4,56,1628937049.0,32.000000
-29,4,56,1628937049.0,32.000000
-30,3,56,1628937049.0,32.000000
-29,3,56,1628937049.0,32.000000
-29,4,56,1628937049.0,32.000000
-29,4,56,1628937049.0,32.000000
-29,3,56,1628937049.0,32.000000
-30,4,55,1628937049.0,32.000000
-30,4,55,1628937049.0,32.000000
-30,3,56,1628937049.0,32.000000
-30,4,56,1628937049.0,32.000000
-29,3,56,1628937049.0,32.000000
-29,3,56,1628937049.0,32.000000
-29,4,56,1628937049.0,32.000000
-29,4,56,1628937049.0,32.000000
-29,4,55,1628937049.0,32.000000
-29,4,56,1628937049.0,32.000000
-30,4,56,1628937049.0,32.000000
-30,3,56,1628937049.0,32.000000
-29,3,56,1628937049.0,32.000000
-29,4,55,1628937049.0,32.000000
-29,4,56,1628937049.0,32.000000
-29,4,56,1628937049.0,32.000000
-29,4,56,1628937049.0,32.000000
-29,3,56,1628937049.0,32.000000
-29,3,56,1628937049.0,32.000000
-29,3,56,1628937049.0,32.000000
-29,4,56,1628937049.0,32.000000
-29,3,56,1628937049.0,32.000000
-29,3,56,1628937049.0,32.000000
-29,3,56,1628937049.0,32.000000
-29,4,55,1628937049.0,32.000000
-29,4,56,1628937049.0,32.000000
-29,3,56,1628937049.0,32.000000
-29,4,56,1628937049.0,32.000000
-29,4,55,1628937049.0,32.000000
-29,3,56,1628937049.0,32.000000
-29,3,56,1628937049.0,32.000000
-29,3,56,1628937049.0,32.000000
-29,3,56,1628937049.0,32.000000
-29,3,56,1628937049.0,32.000000
-29,3,56,1628937049.0,32.000000
-29,3,56,1628937049.0,32.000000
-29,3,56,1628937049.0,32.000000
-29,4,56,1628937049.0,32.000000
-29,3,56,1628937049.0,32.000000
-29,3,56,1628937049.0,32.000000
-29,3,56,1628937049.0,32.000000
-29,3,56,1628937049.0,32.000000
-29,3,56,1628937049.0,32.000000
-29,3,56,1628937049.0,32.000000
-29,4,56,1628937049.0,32.000000
-29,3,56,1628937049.0,32.000000
-29,3,56,1628937049.0,32.000000
-29,3,56,1628937049.0,32.000000
-29,3,56,1628937049.0,32.000000
-29,3,56,1628937049.0,32.000000
-29,3,56,1628937049.0,32.000000
-29,3,56,1628937049.0,32.000000
-27,3,56,1628937049.0,32.000000
-30,3,55,1628937049.0,32.000000
-28,3,57,1628937049.0,32.000000
-28,3,57,1628937049.0,32.000000
-30,3,55,1628937049.0,32.000000
-29,4,56,1628937049.0,32.000000
-28,4,56,1628937049.0,32.000000
-30,4,55,1628937049.0,32.000000
-30,4,55,1628937049.0,32.000000
-30,4,55,1628937049.0,32.000000
-31,3,55,1628937049.0,32.000000
-31,3,55,1628937049.0,32.000000
-28,2,57,1628937049.0,32.000000
-30,3,55,1628937049.0,32.000000
-28,3,56,1628937049.0,32.000000
-29,3,56,1628937049.0,32.000000
-28,3,56,1628937049.0,32.000000
-28,2,56,1628937049.0,32.000000
-28,2,57,1628937049.0,32.000000
-27,3,56,1628937049.0,32.000000
-27,2,58,1628937049.0,32.000000
-29,2,56,1628937049.0,32.000000
-31,4,54,1628937049.0,32.000000
-28,3,56,1628937049.0,32.000000
-27,3,58,1628937049.0,32.000000
-31,2,55,1628937049.0,32.000000
-29,2,56,1628937049.0,32.000000
-28,3,55,1628937049.0,32.000000
-28,2,57,1628937049.0,32.000000
-30,1,56,1628937049.0,32.000000
-31,-1,54,1628937049.0,32.000000
-24,4,57,1628937049.0,32.000000
-24,4,58,1628937049.0,32.000000
-30,4,57,1628937049.0,32.000000
-31,5,56,1628937049.0,32.000000
-28,4,56,1628937049.0,32.000000
-26,2,58,1628937049.0,32.000000
-27,2,58,1628937049.0,32.000000
-28,2,57,1628937049.0,32.000000
-27,2,57,1628937049.0,32.000000
-26,2,57,1628937049.0,32.000000
-28,3,57,1628937049.0,32.000000
-28,2,57,1628937049.0,32.000000
-26,2,58,1628937049.0,32.000000
-26,2,57,1628937049.0,32.000000
-26,2,58,1628937049.0,32.000000
-27,2,57,1628937049.0,32.000000
-28,2,56,1628937049.0,32.000000
-26,2,57,1628937049.0,32.000000
-28,2,57,1628937049.0,32.000000
-27,2,57,1628937049.0,32.000000
-27,2,57,1628937049.0,32.000000
-27,2,57,1628937049.0,32.000000
-26,2,57,1628937049.0,32.000000
-26,1,57,1628937049.0,32.000000
-27,2,57,1628937049.0,32.000000
-27,2,56,1628937049.0,32.000000
-26,2,57,1628937049.0,32.000000
-26,2,58,1628937049.0,32.000000
-29,2,56,1628937049.0,32.000000
-28,2,57,1628937049.0,32.000000
-27,2,57,1628937049.0,32.000000
-28,1,56,1628937049.0,32.000000
-27,1,57,1628937049.0,32.000000
-28,2,57,1628937049.0,32.000000
-29,2,56,1628937049.0,32.000000
-29,2,55,1628937049.0,32.000000
-28,1,56,1628937049.0,32.000000
-28,2,57,1628937049.0,32.000000
-29,2,55,1628937049.0,32.000000
-29,2,55,1628937049.0,32.000000
-29,2,56,1628937049.0,32.000000
-30,2,56,1628937049.0,32.000000
-30,2,56,1628937049.0,32.000000
-30,2,56,1628937049.0,32.000000
-30,3,56,1628937049.0,32.000000
-29,3,56,1628937049.0,32.000000
-30,3,55,1628937049.0,32.000000
-29,3,56,1628937049.0,32.000000
-29,2,56,1628937049.0,32.000000
-30,3,55,1628937049.0,32.000000
-30,3,55,1628937049.0,32.000000
-30,3,55,1628937049.0,32.000000
-30,3,55,1628937049.0,32.000000
-30,3,56,1628937049.0,32.000000
-29,3,56,1628937049.0,32.000000
-29,3,55,1628937049.0,32.000000
-29,3,56,1628937049.0,32.000000
-29,3,56,1628937049.0,32.000000
-29,3,56,1628937049.0,32.000000
-29,3,56,1628937049.0,32.000000
-29,3,55,1628937049.0,32.000000
-29,3,56,1628937049.0,32.000000
-29,3,56,1628937049.0,32.000000
-29,3,56,1628937049.0,32.000000
-30,3,55,1628937049.0,32.000000
-29,3,56,1628937049.0,32.000000
-29,3,56,1628937049.0,32.000000
-29,3,56,1628937049.0,32.000000
-29,3,56,1628937049.0,32.000000
-30,3,56,1628937049.0,32.000000
-29,2,56,1628937049.0,32.000000
-29,3,56,1628937049.0,32.000000
-29,3,56,1628937049.0,32.000000
-29,3,56,1628937049.0,32.000000
-29,2,56,1628937049.0,32.000000
-29,3,56,1628937049.0,32.000000
-30,3,55,1628937049.0,32.000000
-30,3,56,1628937049.0,32.000000
-29,3,56,1628937049.0,32.000000
-30,3,56,1628937049.0,32.000000
-30,3,56,1628937049.0,32.000000
-29,3,56,1628937049.0,32.000000
-30,3,56,1628937049.0,32.000000
-29,3,56,1628937049.0,32.000000
-29,3,56,1628937049.0,32.000000
-29,3,56,1628937049.0,32.000000
-29,3,55,1628937049.0,32.000000
-29,3,56,1628937049.0,32.000000
-30,3,55,1628937049.0,32.000000
-29,3,55,1628937049.0,32.000000
-29,3,56,1628937049.0,32.000000
-30,3,56,1628937049.0,32.000000
-30,3,55,1628937049.0,32.000000
-30,3,56,1628937049.0,32.000000
-29,3,55,1628937049.0,32.000000
-30,3,56,1628937049.0,32.000000
-29,3,56,1628937049.0,32.000000
-29,3,56,1628937049.0,32.000000
-29,3,56,1628937049.0,32.000000
-29,3,56,1628937049.0,32.000000
-29,3,56,1628937049.0,32.000000
-29,3,56,1628937049.0,32.000000
-29,3,56,1628937049.0,32.000000
-29,3,56,1628937049.0,32.000000
-29,3,56,1628937049.0,32.000000
-29,3,56,1628937049.0,32.000000
-29,3,56,1628937049.0,32.000000
-29,3,56,1628937049.0,32.000000
-29,3,56,1628937049.0,32.000000
-29,3,56,1628937049.0,32.000000
-29,3,56,1628937049.0,32.000000
-29,3,56,1628937049.0,32.000000
-29,3,56,1628937049.0,32.000000
-29,3,56,1628937049.0,32.000000
-29,3,56,1628937049.0,32.000000
-29,3,56,1628937049.0,32.000000
-29,3,56,1628937049.0,32.000000
-29,3,56,1628937049.0,32.000000
-29,3,56,1628937049.0,32.000000
-29,3,56,1628937049.0,32.000000
-29,3,56,1628937049.0,32.000000
-29,3,56,1628937049.0,32.000000
-29,3,56,1628937049.0,32.000000
-29,3,56,1628937049.0,32.000000
-29,3,56,1628937049.0,32.000000
-29,3,56,1628937049.0,32.000000
-29,3,55,1628937049.0,32.000000
-29,3,56,1628937049.0,32.000000
-29,3,56,1628937049.0,32.000000
-29,3,56,1628937049.0,32.000000
-29,3,56,1628937049.0,32.000000
-29,3,56,1628937049.0,32.000000
-29,3,56,1628937049.0,32.000000
-29,3,56,1628937049.0,32.000000
-29,3,56,1628937049.0,32.000000
-29,3,56,1628937049.0,32.000000
-29,3,56,1628937049.0,32.000000
-29,3,56,1628937049.0,32.000000
-29,3,56,1628937049.0,32.000000
-29,3,56,1628937049.0,32.000000
-29,3,56,1628937049.0,32.000000
-29,3,56,1628937049.0,32.000000
-29,3,56,1628937049.0,32.000000
-29,3,56,1628937049.0,32.000000
-29,3,56,1628937049.0,32.000000
-29,3,56,1628937049.0,32.000000
-29,3,55,1628937049.0,32.000000
-29,3,56,1628937049.0,32.000000
-29,3,56,1628937049.0,32.000000
-29,3,56,1628937049.0,32.000000
-29,2,56,1628937049.0,32.000000
-28,2,56,1628937049.0,32.000000
-29,2,56,1628937049.0,32.000000
-29,2,56,1628937049.0,32.000000
-29,3,56,1628937049.0,32.000000
-29,3,56,1628937049.0,32.000000
-29,3,56,1628937049.0,32.000000
-29,3,56,1628937049.0,32.000000
-29,3,56,1628937049.0,32.000000
-29,3,56,1628937049.0,32.000000
-29,3,56,1628937049.0,32.000000
-29,3,56,1628937049.0,32.000000
-29,3,56,1628937049.0,32.000000
-29,3,56,1628937049.0,32.000000
-29,3,56,1628937049.0,32.000000
-29,3,56,1628937049.0,32.000000
-29,3,56,1628937049.0,32.000000
-29,3,56,1628937049.0,32.000000
-29,3,56,1628937049.0,32.000000
-29,3,56,1628937049.0,32.000000
-29,3,56,1628937049.0,32.000000
-29,3,56,1628937049.0,32.000000
-29,3,56,1628937049.0,32.000000
-29,3,56,1628937049.0,32.000000
-29,3,56,1628937049.0,32.000000
-29,3,56,1628937049.0,32.000000
-29,3,56,1628937049.0,32.000000
-29,3,56,1628937049.0,32.000000
-29,3,56,1628937049.0,32.000000
-29,3,56,1628937049.0,32.000000
-29,3,56,1628937049.0,32.000000
-29,3,56,1628937049.0,32.000000
-29,3,56,1628937049.0,32.000000
-29,3,56,1628937049.0,32.000000
-29,3,56,1628937049.0,32.000000
-29,3,56,1628937049.0,32.000000
-29,3,56,1628937049.0,32.000000
-29,3,56,1628937049.0,32.000000
-29,3,56,1628937049.0,32.000000
-29,3,56,1628937049.0,32.000000
-29,3,56,1628937049.0,32.000000
-29,3,56,1628937049.0,32.000000
-29,3,56,1628937049.0,32.000000
-29,3,56,1628937049.0,32.000000
-29,3,56,1628937049.0,32.000000
-29,3,56,1628937049.0,32.000000
-29,3,56,1628937049.0,32.000000
-29,3,56,1628937049.0,32.000000
-29,3,56,1628937049.0,32.000000
-29,3,56,1628937049.0,32.000000
-29,3,56,1628937049.0,32.000000
-29,3,56,1628937049.0,32.000000
-29,3,56,1628937049.0,32.000000
-29,3,56,1628937049.0,32.000000
-29,3,56,1628937049.0,32.000000
-29,3,56,1628937049.0,32.000000
-29,3,56,1628937049.0,32.000000
-29,3,56,1628937049.0,32.000000
-29,3,56,1628937049.0,32.000000
-29,3,56,1628937049.0,32.000000
-29,3,56,1628937049.0,32.000000
-29,3,55,1628937049.0,32.000000
-29,3,56,1628937049.0,32.000000
-29,3,56,1628937049.0,32.000000
-29,3,56,1628937049.0,32.000000
-29,3,56,1628937049.0,32.000000
-29,3,56,1628937049.0,32.000000
-29,3,56,1628937049.0,32.000000
-29,3,56,1628937049.0,32.000000
-29,3,56,1628937049.0,32.000000
-29,3,56,1628937049.0,32.000000
-29,3,56,1628937049.0,32.000000
-29,3,56,1628937049.0,32.000000
-29,3,56,1628937049.0,32.000000
-29,3,56,1628937049.0,32.000000
-29,3,56,1628937049.0,32.000000
-29,3,56,1628937049.0,32.000000
-29,3,56,1628937049.0,32.000000
-29,3,56,1628937049.0,32.000000
-29,3,56,1628937049.0,32.000000
-29,3,56,1628937049.0,32.000000
-29,3,56,1628937049.0,32.000000
-29,3,56,1628937049.0,32.000000
-29,3,56,1628937049.0,32.000000
-29,3,56,1628937049.0,32.000000
-29,3,56,1628937049.0,32.000000
-29,3,56,1628937049.0,32.000000
-29,3,56,1628937049.0,32.000000
-29,3,56,1628937049.0,32.000000
-29,3,56,1628937049.0,32.000000
-29,3,56,1628937049.0,32.000000
-29,3,56,1628937049.0,32.000000
-29,3,56,1628937049.0,32.000000
-29,3,56,1628937049.0,32.000000
-29,3,56,1628937049.0,32.000000
-29,3,56,1628937049.0,32.000000
-29,3,56,1628937049.0,32.000000
-29,3,56,1628937049.0,32.000000
-29,3,56,1628937049.0,32.000000
-29,3,56,1628937049.0,32.000000
-29,3,56,1628937049.0,32.000000
-29,3,56,1628937049.0,32.000000
-29,3,56,1628937049.0,32.000000
-29,3,56,1628937049.0,32.000000
-29,3,56,1628937049.0,32.000000
-29,3,56,1628937049.0,32.000000
-29,3,56,1628937049.0,32.000000
-29,3,56,1628937049.0,32.000000
-29,3,56,1628937049.0,32.000000
-29,3,56,1628937049.0,32.000000
-29,3,56,1628937049.0,32.000000
-29,3,56,1628937049.0,32.000000
-29,3,56,1628937049.0,32.000000
-29,3,56,1628937049.0,32.000000
-29,3,56,1628937049.0,32.000000
-29,3,56,1628937049.0,32.000000
-29,3,56,1628937049.0,32.000000
-29,3,56,1628937049.0,32.000000
-29,3,56,1628937049.0,32.000000
-29,3,56,1628937049.0,32.000000
-29,3,56,1628937049.0,32.000000
-29,3,56,1628937049.0,32.000000
-29,3,56,1628937049.0,32.000000
-29,3,56,1628937049.0,32.000000
-29,3,56,1628937049.0,32.000000
-29,3,55,1628937049.0,32.000000
-29,3,56,1628937049.0,32.000000
-29,3,56,1628937049.0,32.000000
-29,3,56,1628937049.0,32.000000
-29,3,56,1628937049.0,32.000000
-29,3,56,1628937049.0,32.000000
-29,3,56,1628937049.0,32.000000
-29,3,56,1628937049.0,32.000000
-29,3,56,1628937049.0,32.000000
-29,3,56,1628937049.0,32.000000
-29,3,56,1628937049.0,32.000000
-29,3,55,1628937049.0,32.000000
-29,3,57,1628937049.0,32.000000
-29,3,56,1628937049.0,32.000000
-28,3,56,1628937049.0,32.000000
-29,3,56,1628937049.0,32.000000
-29,3,56,1628937049.0,32.000000
-29,5,56,1628937049.0,32.000000
-31,4,55,1628937049.0,32.000000
-31,3,55,1628937049.0,32.000000
-32,3,55,1628937049.0,32.000000
-31,2,55,1628937049.0,32.000000
-30,3,56,1628937049.0,32.000000
-28,3,56,1628937049.0,32.000000
-27,3,56,1628937049.0,32.000000
-29,3,56,1628937049.0,32.000000
-29,3,57,1628937049.0,32.000000
-28,3,57,1628937049.0,32.000000
-28,3,56,1628937049.0,32.000000
-28,3,57,1628937049.0,32.000000
-27,3,57,1628937049.0,32.000000
-28,2,56,1628937049.0,32.000000
-29,3,56,1628937049.0,32.000000
-28,3,56,1628937049.0,32.000000
-29,3,56,1628937049.0,32.000000
-28,2,56,1628937049.0,32.000000
-29,3,56,1628937049.0,32.000000
-29,3,56,1628937049.0,32.000000
-29,3,56,1628937049.0,32.000000
-29,3,56,1628937049.0,32.000000
-29,2,56,1628937049.0,32.000000
-29,3,57,1628937049.0,32.000000
-27,3,57,1628937049.0,32.000000
-30,3,56,1628937049.0,32.000000
-27,2,57,1628937049.0,32.000000
-27,3,57,1628937049.0,32.000000
-28,2,56,1628937049.0,32.000000
-28,3,57,1628937049.0,32.000000
-28,2,56,1628937049.0,32.000000
-30,2,57,1628937049.0,32.000000
-28,3,56,1628937049.0,32.000000
-28,2,57,1628937049.0,32.000000
-26,2,57,1628937049.0,32.000000
-29,2,56,1628937049.0,32.000000
-28,3,56,1628937049.0,32.000000
-28,3,56,1628937049.0,32.000000
-24,2,58,1628937049.0,32.000000
-31,3,56,1628937049.0,32.000000
-30,3,55,1628937049.0,32.000000
-32,3,54,1628937049.0,32.000000
-30,3,56,1628937049.0,32.000000
-28,3,56,1628937049.0,32.000000
-29,3,55,1628937049.0,32.000000
-29,1,57,1628937049.0,32.000000
-26,3,58,1628937049.0,32.000000
-28,2,57,1628937049.0,32.000000
-28,2,56,1628937049.0,32.000000
-28,2,57,1628937049.0,32.000000
-25,2,59,1628937049.0,32.000000
-28,3,56,1628937049.0,32.000000
-26,6,56,1628937049.0,32.000000
-28,4,57,1628937049.0,32.000000
-29,5,56,1628937049.0,32.000000
-26,7,58,1628937049.0,32.000000
-20,5,60,1628937049.0,32.000000
-22,4,59,1628937049.0,32.000000
-23,3,59,1628937049.0,32.000000
-27,4,55,1628937049.0,32.000000
-25,4,57,1628937049.0,32.000000
-21,4,60,1628937049.0,32.000000
-23,6,60,1628937049.0,32.000000
-23,4,60,1628937049.0,32.000000
-25,4,57,1628937049.0,32.000000
-26,3,58,1628937049.0,32.000000
-26,3,57,1628937049.0,32.000000
-26,3,57,1628937049.0,32.000000
-26,4,57,1628937049.0,32.000000
-27,4,57,1628937049.0,32.000000
-27,4,57,1628937049.0,32.000000
-28,4,57,1628937049.0,32.000000
-28,5,56,1628937049.0,32.000000
-28,4,57,1628937049.0,32.000000
-27,4,57,1628937049.0,32.000000
-27,4,57,1628937049.0,32.000000
-27,5,57,1628937049.0,32.000000
-27,5,56,1628937049.0,32.000000
-28,5,56,1628937049.0,32.000000
-28,5,56,1628937049.0,32.000000
-28,5,55,1628937049.0,32.000000
-28,5,57,1628937049.0,32.000000
-28,4,56,1628937049.0,32.000000
-28,5,57,1628937049.0,32.000000
-28,5,56,1628937049.0,32.000000
-28,5,56,1628937049.0,32.000000
-28,5,56,1628937049.0,32.000000
-28,5,56,1628937049.0,32.000000
-28,5,57,1628937049.0,32.000000
-28,5,56,1628937049.0,32.000000
-27,6,58,1628937049.0,32.000000
-28,5,56,1628937049.0,32.000000
-28,5,56,1628937049.0,32.000000
-28,5,55,1628937049.0,32.000000
-29,5,57,1628937049.0,32.000000
-28,5,54,1628937049.0,32.000000
-29,3,56,1628937049.0,32.000000
-29,6,58,1628937049.0,32.000000
-28,6,55,1628937049.0,32.000000
-30,4,56,1628937049.0,32.000000
-27,4,57,1628937049.0,32.000000
-27,5,56,1628937049.0,32.000000
-29,7,54,1628937049.0,32.000000
-30,5,57,1628937049.0,32.000000
-28,5,56,1628937049.0,32.000000
-27,6,54,1628937049.0,32.000000
-31,5,55,1628937049.0,32.000000
-30,3,55,1628937049.0,32.000000
-34,2,56,1628937049.0,32.000000
-33,0,55,1628937049.0,32.000000
-32,1,55,1628937049.0,32.000000
-30,1,56,1628937049.0,32.000000
-31,2,56,1628937049.0,32.000000
-32,3,54,1628937049.0,32.000000
-27,3,57,1628937049.0,32.000000
-28,5,55,1628937049.0,32.000000
-30,3,55,1628937049.0,32.000000
-29,4,55,1628937049.0,32.000000
-31,3,55,1628937049.0,32.000000
-30,0,55,1628937049.0,32.000000
-30,2,56,1628937049.0,32.000000
-31,2,56,1628937049.0,32.000000
-31,3,55,1628937049.0,32.000000
-32,3,53,1628937049.0,32.000000
-35,2,53,1628937049.0,32.000000
-33,1,54,1628937049.0,32.000000
-30,1,55,1628937049.0,32.000000
-31,2,55,1628937049.0,32.000000
-30,2,55,1628937049.0,32.000000
-31,2,55,1628937049.0,32.000000
-33,1,54,1628937049.0,32.000000
-30,2,55,1628937049.0,32.000000
-29,2,56,1628937049.0,32.000000
-30,2,55,1628937049.0,32.000000
-32,1,54,1628937049.0,32.000000
-34,2,53,1628937049.0,32.000000
-34,2,54,1628937049.0,32.000000
-33,2,54,1628937049.0,32.000000
-34,2,53,1628937049.0,32.000000
-28,2,56,1628937049.0,32.000000
-30,2,56,1628937049.0,32.000000
-31,1,54,1628937049.0,32.000000
-31,1,55,1628937049.0,32.000000
-30,1,55,1628937049.0,32.000000
-27,2,57,1628937049.0,32.000000
-30,1,56,1628937049.0,32.000000
-29,1,56,1628937049.0,32.000000
-29,1,55,1628937049.0,32.000000
-29,2,55,1628937049.0,32.000000
-30,1,56,1628937049.0,32.000000
-31,2,55,1628937049.0,32.000000
-29,1,56,1628937049.0,32.000000
-33,2,54,1628937049.0,32.000000
-33,2,55,1628937049.0,32.000000
-32,2,54,1628937049.0,32.000000
-31,2,54,1628937049.0,32.000000
-32,1,54,1628937049.0,32.000000
-30,1,56,1628937049.0,32.000000
-29,1,56,1628937049.0,32.000000
-28,-1,57,1628937049.0,32.000000
-32,3,56,1628937049.0,32.000000
-30,3,52,1628937049.0,32.000000
-29,6,53,1628937049.0,32.000000
-30,7,55,1628937049.0,32.000000
-34,6,55,1628937049.0,32.000000
-27,9,57,1628937049.0,32.000000
-25,1,58,1628937049.0,32.000000
-26,-1,59,1628937049.0,32.000000
-28,2,57,1628937049.0,32.000000
-28,2,56,1628937049.0,32.000000
-28,2,57,1628937049.0,32.000000
-27,2,57,1628937049.0,32.000000
-27,1,57,1628937049.0,32.000000
-27,1,57,1628937049.0,32.000000
-27,2,57,1628937049.0,32.000000
-25,1,58,1628937049.0,32.000000
-27,1,57,1628937049.0,32.000000
-27,2,56,1628937049.0,32.000000
-27,1,57,1628937049.0,32.000000
-27,1,57,1628937049.0,32.000000
-27,1,57,1628937049.0,32.000000
-28,2,57,1628937049.0,32.000000
-27,2,57,1628937049.0,32.000000
-28,2,57,1628937049.0,32.000000
-29,2,56,1628937049.0,32.000000
-26,2,56,1628937049.0,32.000000
-25,1,58,1628937049.0,32.000000
-26,0,58,1628937049.0,32.000000
-24,1,59,1628937049.0,32.000000
-23,3,59,1628937049.0,32.000000
-21,1,59,1628937049.0,32.000000
-22,1,60,1628937049.0,32.000000
-23,1,58,1628937049.0,32.000000
-22,1,59,1628937049.0,32.000000
-23,1,59,1628937049.0,32.000000
-24,1,59,1628937049.0,32.000000
-24,1,58,1628937049.0,32.000000
-23,1,59,1628937049.0,32.000000
-23,1,59,1628937049.0,32.000000
-23,1,59,1628937049.0,32.000000
-24,1,59,1628937049.0,32.000000
-23,1,59,1628937049.0,32.000000
-23,1,59,1628937049.0,32.000000
-23,1,59,1628937049.0,32.000000
-24,1,58,1628937049.0,32.000000
-25,1,58,1628937049.0,32.000000
-26,1,58,1628937049.0,32.000000
-26,1,57,1628937049.0,32.000000
-27,1,58,1628937049.0,32.000000
-29,2,56,1628937049.0,32.000000
-28,2,57,1628937049.0,32.000000
-28,1,56,1628937049.0,32.000000
-29,2,57,1628937049.0,32.000000
-28,2,56,1628937049.0,32.000000
-32,2,55,1628937049.0,32.000000
-29,1,56,1628937049.0,32.000000
-30,2,55,1628937049.0,32.000000
-32,3,55,1628937049.0,32.000000
-29,3,56,1628937049.0,32.000000
-30,3,56,1628937049.0,32.000000
-30,4,55,1628937049.0,32.000000
-30,3,55,1628937049.0,32.000000
-29,3,56,1628937049.0,32.000000
-30,4,55,1628937049.0,32.000000
-30,3,56,1628937049.0,32.000000
-29,3,56,1628937049.0,32.000000
-29,3,56,1628937049.0,32.000000
-29,3,56,1628937049.0,32.000000
-29,3,56,1628937049.0,32.000000
-29,3,56,1628937049.0,32.000000
-29,4,55,1628937049.0,32.000000
-29,4,56,1628937049.0,32.000000
-30,4,55,1628937049.0,32.000000
-30,4,56,1628937049.0,32.000000
-30,4,56,1628937049.0,32.000000
-30,3,55,1628937049.0,32.000000
-30,4,55,1628937049.0,32.000000
-30,3,56,1628937049.0,32.000000
-30,3,56,1628937049.0,32.000000
-29,3,56,1628937049.0,32.000000
-30,4,56,1628937049.0,32.000000
-30,3,55,1628937049.0,32.000000
-30,3,56,1628937049.0,32.000000
-29,3,56,1628937049.0,32.000000
-30,3,56,1628937049.0,32.000000
-30,3,56,1628937049.0,32.000000
-29,3,56,1628937049.0,32.000000
-29,4,55,1628937049.0,32.000000
-29,3,56,1628937049.0,32.000000
-30,4,55,1628937049.0,32.000000
-30,4,56,1628937049.0,32.000000
-30,4,55,1628937049.0,32.000000
-30,4,55,1628937049.0,32.000000
-30,3,55,1628937049.0,32.000000
-30,3,56,1628937049.0,32.000000
-30,4,55,1628937049.0,32.000000
-30,3,55,1628937049.0,32.000000
-30,4,56,1628937049.0,32.000000
-30,4,55,1628937049.0,32.000000
-30,3,56,1628937049.0,32.000000
-30,4,55,1628937049.0,32.000000
-30,3,55,1628937049.0,32.000000
-30,3,55,1628937049.0,32.000000
-30,4,55,1628937049.0,32.000000
-30,3,55,1628937049.0,32.000000
-30,3,55,1628937049.0,32.000000
-30,4,55,1628937049.0,32.000000
-30,3,55,1628937049.0,32.000000
-30,3,55,1628937049.0,32.000000
-30,3,55,1628937049.0,32.000000
-30,3,55,1628937049.0,32.000000
-30,4,55,1628937049.0,32.000000
-30,3,55,1628937049.0,32.000000
-30,3,55,1628937049.0,32.000000
-30,4,55,1628937049.0,32.000000
-30,4,55,1628937049.0,32.000000
-30,3,55,1628937049.0,32.000000
-30,3,56,1628937049.0,32.000000
-30,3,56,1628937049.0,32.000000
-30,4,56,1628937049.0,32.000000
-30,4,55,1628937049.0,32.000000
-30,4,55,1628937049.0,32.000000
-30,4,55,1628937049.0,32.000000
-29,4,55,1628937049.0,32.000000
-30,3,55,1628937049.0,32.000000
-29,4,55,1628937049.0,32.000000
-31,3,56,1628937049.0,32.000000
-31,3,55,1628937049.0,32.000000
-32,3,55,1628937049.0,32.000000
-31,3,55,1628937049.0,32.000000
-31,3,55,1628937049.0,32.000000
-31,3,55,1628937049.0,32.000000
-30,4,55,1628937049.0,32.000000
-31,3,55,1628937049.0,32.000000
-30,3,55,1628937049.0,32.000000
-30,4,55,1628937049.0,32.000000
-30,4,55,1628937049.0,32.000000
-30,4,55,1628937049.0,32.000000
-30,4,55,1628937049.0,32.000000
-30,4,55,1628937049.0,32.000000
-30,4,55,1628937049.0,32.000000
-30,3,55,1628937049.0,32.000000
-31,3,55,1628937049.0,32.000000
-30,4,55,1628937049.0,32.000000
-30,3,56,1628937049.0,32.000000
-30,4,55,1628937049.0,32.000000
-30,4,55,1628937049.0,32.000000
-30,4,56,1628937049.0,32.000000
-30,3,56,1628937049.0,32.000000
-30,4,55,1628937049.0,32.000000
-30,3,55,1628937049.0,32.000000
-30,4,55,1628937049.0,32.000000
-31,3,55,1628937049.0,32.000000
-30,4,55,1628937049.0,32.000000
-30,4,55,1628937049.0,32.000000
-30,4,55,1628937049.0,32.000000
-30,4,55,1628937049.0,32.000000
-30,4,55,1628937049.0,32.000000
-30,4,55,1628937049.0,32.000000
-30,3,56,1628937049.0,32.000000
-30,4,56,1628937049.0,32.000000
-30,4,55,1628937049.0,32.000000
-30,4,55,1628937049.0,32.000000
-30,4,55,1628937049.0,32.000000
-30,4,55,1628937049.0,32.000000
-30,4,55,1628937049.0,32.000000
-30,4,55,1628937049.0,32.000000
-30,4,55,1628937049.0,32.000000
-30,4,55,1628937049.0,32.000000
-30,4,55,1628937049.0,32.000000
-30,4,55,1628937049.0,32.000000
-30,4,55,1628937049.0,32.000000
-30,4,55,1628937049.0,32.000000
-30,4,55,1628937049.0,32.000000
-30,4,55,1628937049.0,32.000000
-30,4,55,1628937049.0,32.000000
-30,4,55,1628937049.0,32.000000
-30,4,55,1628937049.0,32.000000
-30,4,55,1628937049.0,32.000000
-30,4,55,1628937049.0,32.000000
-30,4,55,1628937049.0,32.000000
-30,4,55,1628937049.0,32.000000
-30,4,55,1628937049.0,32.000000
-30,4,55,1628937049.0,32.000000
-30,4,56,1628937049.0,32.000000
-30,4,55,1628937049.0,32.000000
-30,4,55,1628937049.0,32.000000
-30,4,55,1628937049.0,32.000000
-30,4,55,1628937049.0,32.000000
-30,4,55,1628937049.0,32.000000
-30,4,55,1628937049.0,32.000000
-30,4,55,1628937049.0,32.000000
-30,4,55,1628937049.0,32.000000
-30,4,55,1628937049.0,32.000000
-30,4,55,1628937049.0,32.000000
-30,4,55,1628937049.0,32.000000
-30,4,55,1628937049.0,32.000000
-30,3,55,1628937049.0,32.000000
-30,3,55,1628937049.0,32.000000
-30,4,55,1628937049.0,32.000000
-30,4,55,1628937049.0,32.000000
-30,4,56,1628937049.0,32.000000
-30,4,55,1628937049.0,32.000000
-30,4,55,1628937049.0,32.000000
-30,4,55,1628937049.0,32.000000
-30,4,55,1628937049.0,32.000000
-30,4,55,1628937049.0,32.000000
-30,4,55,1628937049.0,32.000000
-30,4,55,1628937049.0,32.000000
-31,4,55,1628937049.0,32.000000
-30,4,55,1628937049.0,32.000000
-30,3,55,1628937049.0,32.000000
-30,4,55,1628937049.0,32.000000
-30,4,55,1628937049.0,32.000000
-30,4,55,1628937049.0,32.000000
-30,4,55,1628937049.0,32.000000
-30,4,55,1628937049.0,32.000000
-30,4,55,1628937049.0,32.000000
-30,4,55,1628937049.0,32.000000
-30,4,55,1628937049.0,32.000000
-30,4,55,1628937049.0,32.000000
-30,4,55,1628937049.0,32.000000
-30,4,55,1628937049.0,32.000000
-30,4,55,1628937049.0,32.000000
-30,4,55,1628937049.0,32.000000
-30,4,55,1628937049.0,32.000000
-30,4,55,1628937049.0,32.000000
-30,4,55,1628937049.0,32.000000
-30,4,55,1628937049.0,32.000000
-30,4,55,1628937049.0,32.000000
-30,3,55,1628937049.0,32.000000
-30,4,55,1628937049.0,32.000000
-30,4,55,1628937049.0,32.000000
-30,4,55,1628937049.0,32.000000
-30,4,55,1628937049.0,32.000000
-30,4,55,1628937049.0,32.000000
-30,4,55,1628937049.0,32.000000
-30,3,55,1628937049.0,32.000000
-30,4,55,1628937049.0,32.000000
-31,4,55,1628937049.0,32.000000
-30,4,55,1628937049.0,32.000000
-30,3,56,1628937049.0,32.000000
-30,4,55,1628937049.0,32.000000
-30,3,55,1628937049.0,32.000000
-30,4,55,1628937049.0,32.000000
-30,4,55,1628937049.0,32.000000
-30,4,55,1628937049.0,32.000000
-30,4,55,1628937049.0,32.000000
-30,4,55,1628937049.0,32.000000
-30,4,55,1628937049.0,32.000000
-30,3,55,1628937049.0,32.000000
-30,4,55,1628937049.0,32.000000
-30,4,55,1628937049.0,32.000000
-30,4,55,1628937049.0,32.000000
-30,4,55,1628937049.0,32.000000
-30,4,55,1628937049.0,32.000000
-30,4,55,1628937049.0,32.000000
-30,4,55,1628937049.0,32.000000
-30,4,55,1628937049.0,32.000000
-30,4,55,1628937049.0,32.000000
-31,4,56,1628937049.0,32.000000
-30,4,55,1628937049.0,32.000000
-31,4,55,1628937049.0,32.000000
-30,4,55,1628937049.0,32.000000
-30,4,56,1628937049.0,32.000000
-30,4,55,1628937049.0,32.000000
-30,3,56,1628937049.0,32.000000
-30,4,55,1628937049.0,32.000000
-30,4,55,1628937049.0,32.000000
-30,4,55,1628937049.0,32.000000
-30,4,55,1628937049.0,32.000000
-30,4,55,1628937049.0,32.000000
-30,4,55,1628937049.0,32.000000
-30,4,55,1628937049.0,32.000000
-30,4,55,1628937049.0,32.000000
-30,3,55,1628937049.0,32.000000
-30,4,55,1628937049.0,32.000000
-30,4,55,1628937049.0,32.000000
-30,4,55,1628937049.0,32.000000
-30,4,55,1628937049.0,32.000000
-30,4,55,1628937049.0,32.000000
-30,3,55,1628937049.0,32.000000
-31,3,55,1628937049.0,32.000000
-30,4,56,1628937049.0,32.000000
-30,3,56,1628937049.0,32.000000
-30,4,55,1628937049.0,32.000000
-30,4,55,1628937049.0,32.000000
-30,4,55,1628937049.0,32.000000
-30,3,55,1628937049.0,32.000000
-30,4,55,1628937049.0,32.000000
-30,4,55,1628937049.0,32.000000
-30,4,55,1628937049.0,32.000000
-30,4,55,1628937049.0,32.000000
-30,4,55,1628937049.0,32.000000
-30,4,55,1628937049.0,32.000000
-30,4,55,1628937049.0,32.000000
-30,4,55,1628937049.0,32.000000
-30,4,55,1628937049.0,32.000000
-30,4,55,1628937049.0,32.000000
-30,4,55,1628937049.0,32.000000
-30,4,55,1628937049.0,32.000000
-30,4,56,1628937049.0,32.000000
-30,3,55,1628937049.0,32.000000
-30,4,55,1628937049.0,32.000000
-30,4,55,1628937049.0,32.000000
-30,4,55,1628937049.0,32.000000
-31,4,55,1628937049.0,32.000000
-30,4,55,1628937049.0,32.000000
-30,4,55,1628937049.0,32.000000
-30,4,55,1628937049.0,32.000000
-30,3,55,1628937049.0,32.000000
-30,4,55,1628937049.0,32.000000
-30,4,55,1628937049.0,32.000000
-30,4,55,1628937049.0,32.000000
-30,3,55,1628937049.0,32.000000
-30,4,55,1628937049.0,32.000000
-30,4,55,1628937049.0,32.000000
-30,4,55,1628937049.0,32.000000
-30,4,55,1628937049.0,32.000000
-30,4,55,1628937049.0,32.000000
-30,4,55,1628937049.0,32.000000
-30,4,55,1628937049.0,32.000000
-30,4,55,1628937049.0,32.000000
-30,4,55,1628937049.0,32.000000
-30,4,55,1628937049.0,32.000000
-30,4,55,1628937049.0,32.000000
-30,4,55,1628937049.0,32.000000
-30,4,55,1628937049.0,32.000000
-30,4,55,1628937049.0,32.000000
-30,4,55,1628937049.0,32.000000
-30,4,55,1628937049.0,32.000000
-31,4,55,1628937049.0,32.000000
-30,4,55,1628937049.0,32.000000
-30,4,55,1628937049.0,32.000000
-29,4,55,1628937049.0,32.000000
-30,4,55,1628937049.0,32.000000
-30,4,55,1628937049.0,32.000000
-30,4,55,1628937049.0,32.000000
-30,4,55,1628937049.0,32.000000
-29,4,55,1628937049.0,32.000000
-30,4,55,1628937049.0,32.000000
-30,4,55,1628937049.0,32.000000
-30,3,55,1628937049.0,32.000000
-30,4,56,1628937049.0,32.000000
-30,4,55,1628937049.0,32.000000
-30,4,55,1628937049.0,32.000000
-30,4,55,1628937049.0,32.000000
-30,4,56,1628937049.0,32.000000
-30,4,55,1628937049.0,32.000000
-30,4,55,1628937049.0,32.000000
-30,4,55,1628937049.0,32.000000
-30,4,55,1628937049.0,32.000000
-30,4,55,1628937049.0,32.000000
-30,4,55,1628937049.0,32.000000
-30,4,55,1628937049.0,32.000000
-30,4,55,1628937049.0,32.000000
-30,4,56,1628937049.0,32.000000
-30,4,55,1628937049.0,32.000000
-30,2,57,1628937049.0,32.000000
-29,3,62,1628937049.0,32.000000
-32,-1,98,1628937049.0,32.000000
-30,13,114,1628937049.0,32.000000
-29,22,99,1628937049.0,32.000000
-31,37,74,1628937049.0,32.000000
-13,14,52,1628937049.0,32.000000
-10,26,42,1628937049.0,32.000000
-21,51,35,1628937049.0,32.000000
1,59,37,1628937049.0,32.000000
7,50,32,1628937049.0,32.000000
3,27,63,1628937049.0,32.000000
-23,6,55,1628937049.0,32.000000
-35,5,16,1628937049.0,32.000000
-33,4,10,1628937049.0,32.000000
-28,5,34,1628937049.0,32.000000
-16,19,47,1628937049.0,32.000000
-5,28,49,1628937049.0,32.000000
-2,41,51,1628937049.0,32.000000
4,51,55,1628937049.0,32.000000
5,52,56,1628937049.0,32.000000
0,52,56,1628937049.0,32.000000
-5,49,54,1628937049.0,32.000000
-11,43,52,1628937049.0,32.000000
-14,40,48,1628937049.0,32.000000
-13,39,48,1628937049.0,32.000000
-12,38,46,1628937049.0,32.000000
-14,37,46,1628937049.0,32.000000
-16,33,46,1628937049.0,32.000000
-18,28,46,1628937049.0,32.000000
-19,27,46,1628937049.0,32.000000
-15,31,48,1628937049.0,32.000000
-10,43,48,1628937049.0,32.000000
-10,47,48,1628937049.0,32.000000
-8,52,51,1628937049.0,32.000000
-8,52,53,1628937049.0,32.000000
-10,45,52,1628937049.0,32.000000
-12,40,48,1628937049.0,32.000000
-13,36,46,1628937049.0,32.000000
-17,23,48,1628937049.0,32.000000
-20,16,48,1628937049.0,32.000000
-19,9,48,1628937049.0,32.000000
-11,2,44,1628937049.0,32.000000
-8,3,43,1628937049.0,32.000000
-1,12,36,1628937049.0,32.000000
0,16,34,1628937049.0,32.000000
5,30,37,1628937049.0,32.000000
5,41,43,1628937049.0,32.000000
5,37,47,1628937049.0,32.000000
10,49,52,1628937049.0,32.000000
9,41,63,1628937049.0,32.000000
7,36,65,1628937049.0,32.000000
0,29,72,1628937049.0,32.000000
-4,26,75,1628937049.0,32.000000
-14,28,78,1628937049.0,32.000000
-16,19,81,1628937049.0,32.000000
-12,17,78,1628937049.0,32.000000
-18,13,63,1628937049.0,32.000000
-27,11,58,1628937049.0,32.000000
-31,8,53,1628937049.0,32.000000
-24,3,48,1628937049.0,32.000000
-22,0,50,1628937049.0,32.000000
-42,-19,97,1628937049.0,32.000000
-24,-2,49,1628937049.0,32.000000
-22,-5,48,1628937049.0,32.000000
-33,1,62,1628937049.0,32.000000
-33,1,57,1628937049.0,32.000000
-29,2,56,1628937049.0,32.000000
-27,-1,59,1628937049.0,32.000000
-27,-3,62,1628937049.0,32.000000
-34,-7,86,1628937049.0,32.000000
-26,-4,102,1628937049.0,32.000000
-6,3,97,1628937049.0,32.000000
42,32,107,1628937049.0,32.000000
44,26,96,1628937049.0,32.000000
2,32,36,1628937049.0,32.000000
-14,35,16,1628937049.0,32.000000
-11,28,15,1628937049.0,32.000000
-10,2,31,1628937049.0,32.000000
-14,-14,41,1628937049.0,32.000000
-23,-25,36,1628937049.0,32.000000
-38,-26,33,1628937049.0,32.000000
-38,-27,38,1628937049.0,32.000000
-29,-29,51,1628937049.0,32.000000
-21,-30,62,1628937049.0,32.000000
-18,-24,61,1628937049.0,32.000000
-30,-22,58,1628937049.0,32.000000
-27,-21,60,1628937049.0,32.000000
-18,-29,73,1628937049.0,32.000000
-29,-18,69,1628937049.0,32.000000
-20,-19,65,1628937049.0,32.000000
-10,-15,69,1628937049.0,32.000000
16,-8,72,1628937049.0,32.000000
-23,-10,59,1628937049.0,32.000000
1,-10,60,1628937049.0,32.000000
0,-10,60,1628937049.0,32.000000
-6,-13,61,1628937049.0,32.000000
-7,-14,61,1628937049.0,32.000000
-12,-14,60,1628937049.0,32.000000
-16,-15,60,1628937049.0,32.000000
-15,-15,59,1628937049.0,32.000000
-15,-15,56,1628937049.0,32.000000
-18,-14,56,1628937049.0,32.000000
-25,-14,57,1628937049.0,32.000000
-14,-14,59,1628937049.0,32.000000
-17,-14,58,1628937049.0,32.000000
-19,-14,60,1628937049.0,32.000000
-19,-17,59,1628937049.0,32.000000
-18,-18,60,1628937049.0,32.000000
-17,-22,65,1628937049.0,32.000000
-15,-24,68,1628937049.0,32.000000
-26,-27,66,1628937049.0,32.000000
-35,-30,70,1628937049.0,32.000000
-35,-34,68,1628937049.0,32.000000
-30,-36,64,1628937049.0,32.000000
-36,-30,57,1628937049.0,32.000000
-37,-34,55,1628937049.0,32.000000
-28,-25,47,1628937049.0,32.000000
-23,-18,48,1628937049.0,32.000000
-7,-10,56,1628937049.0,32.000000
0,10,40,1628937049.0,32.000000
3,11,37,1628937049.0,32.000000
12,10,40,1628937049.0,32.000000
19,15,40,1628937049.0,32.000000
21,21,47,1628937049.0,32.000000
19,22,56,1628937049.0,32.000000
26,20,55,1628937049.0,32.000000
22,22,55,1628937049.0,32.000000
15,22,59,1628937049.0,32.000000
-5,12,62,1628937049.0,32.000000
-26,6,70,1628937049.0,32.000000
-17,6,69,1628937049.0,32.000000
-24,7,65,1628937049.0,32.000000
-22,6,74,1628937049.0,32.000000
-20,2,70,1628937049.0,32.000000
-21,1,66,1628937049.0,32.000000
-22,1,70,1628937049.0,32.000000
-29,1,69,1628937049.0,32.000000
-27,1,53,1628937049.0,32.000000
-27,2,45,1628937049.0,32.000000
-31,-5,40,1628937049.0,32.000000
-34,-11,56,1628937049.0,32.000000
-39,-9,69,1628937049.0,32.000000
-26,2,58,1628937049.0,32.000000
-36,4,65,1628937049.0,32.000000
-27,4,57,1628937049.0,32.000000
-30,2,56,1628937049.0,32.000000
-30,2,55,1628937049.0,32.000000
-31,1,56,1628937049.0,32.000000
-31,1,55,1628937049.0,32.000000
-31,1,55,1628937049.0,32.000000
-31,1,55,1628937049.0,32.000000
-31,2,55,1628937049.0,32.000000
-31,1,55,1628937049.0,32.000000
-31,2,55,1628937049.0,32.000000
-32,1,55,1628937049.0,32.000000
-31,2,54,1628937049.0,32.000000
-31,2,55,1628937049.0,32.000000
-33,1,54,1628937049.0,32.000000
-32,2,54,1628937049.0,32.000000
-32,2,55,1628937049.0,32.000000
-33,1,54,1628937049.0,32.000000
-31,2,55,1628937049.0,32.000000
-36,2,52,1628937049.0,32.000000
-34,2,53,1628937049.0,32.000000
-33,1,54,1628937049.0,32.000000
-34,1,53,1628937049.0,32.000000
-35,2,53,1628937049.0,32.000000
-34,2,53,1628937049.0,32.000000
-34,2,53,1628937049.0,32.000000
-34,2,53,1628937049.0,32.000000
-34,2,53,1628937049.0,32.000000
-34,2,53,1628937049.0,32.000000
-34,2,53,1628937049.0,32.000000
-34,2,53,1628937049.0,32.000000
-34,1,53,1628937049.0,32.000000
-33,2,54,1628937049.0,32.000000
-34,2,53,1628937049.0,32.000000
-34,2,53,1628937049.0,32.000000
-34,2,53,1628937049.0,32.000000
-34,2,53,1628937049.0,32.000000
-33,2,53,1628937049.0,32.000000
-35,2,52,1628937049.0,32.000000
-36,2,53,1628937049.0,32.000000
-32,2,54,1628937049.0,32.000000
-33,2,54,1628937049.0,32.000000
-31,2,55,1628937049.0,32.000000
-35,2,53,1628937049.0,32.000000
-35,2,53,1628937049.0,32.000000
-34,2,53,1628937049.0,32.000000
-35,2,53,1628937049.0,32.000000
-34,2,53,1628937049.0,32.000000
-34,2,53,1628937049.0,32.000000
-34,2,53,1628937049.0,32.000000
-34,2,53,1628937049.0,32.000000
-34,2,53,1628937049.0,32.000000
-34,2,53,1628937049.0,32.000000
-34,2,53,1628937049.0,32.000000
-34,2,53,1628937049.0,32.000000
-34,2,53,1628937049.0,32.000000
-35,2,53,1628937049.0,32.000000
-34,2,53,1628937049.0,32.000000
-35,2,53,1628937049.0,32.000000
-35,2,53,1628937049.0,32.000000
-34,2,53,1628937049.0,32.000000
-35,2,53,1628937049.0,32.000000
-34,2,53,1628937049.0,32.000000
-32,2,54,1628937049.0,32.000000
-36,2,52,1628937049.0,32.000000
-38,2,51,1628937049.0,32.000000
-35,2,53,1628937049.0,32.000000
-40,2,50,1628937049.0,32.000000
-41,1,49,1628937049.0,32.000000
-43,2,48,1628937049.0,32.000000
-46,1,43,1628937049.0,32.000000
-49,5,40,1628937049.0,32.000000
-46,3,41,1628937049.0,32.000000
-48,4,38,1628937049.0,32.000000
-45,4,43,1628937049.0,32.000000
-44,2,45,1628937049.0,32.000000
-44,5,46,1628937049.0,32.000000
-48,5,39,1628937049.0,32.000000
-48,4,38,1628937049.0,32.000000
-54,7,35,1628937049.0,32.000000
-51,7,35,1628937049.0,32.000000
-52,6,37,1628937049.0,32.000000
-51,6,37,1628937049.0,32.000000
-53,5,35,1628937049.0,32.000000
-52,6,35,1628937049.0,32.000000
-53,6,34,1628937049.0,32.000000
-52,7,34,1628937049.0,32.000000
-52,9,35,1628937049.0,32.000000
-53,6,36,1628937049.0,32.000000
-52,7,33,1628937049.0,32.000000
-53,7,33,1628937049.0,32.000000
-54,5,32,1628937049.0,32.000000
-53,9,34,1628937049.0,32.000000
-50,6,39,1628937049.0,32.000000
-54,12,32,1628937049.0,32.000000
-52,6,36,1628937049.0,32.000000
-51,5,39,1628937049.0,32.000000
-49,6,39,1628937049.0,32.000000
-57,10,28,1628937049.0,32.000000
-55,9,33,1628937049.0,32.000000
-47,7,39,1628937049.0,32.000000
-48,5,44,1628937049.0,32.000000
-47,7,40,1628937049.0,32.000000
-47,4,40,1628937049.0,32.000000
-47,5,38,1628937049.0,32.000000
-47,3,44,1628937049.0,32.000000
-51,12,38,1628937049.0,32.000000
-50,7,36,1628937049.0,32.000000
-47,4,42,1628937049.0,32.000000
-49,6,40,1628937049.0,32.000000
-50,7,38,1628937049.0,32.000000
-53,10,35,1628937049.0,32.000000
-50,7,39,1628937049.0,32.000000
-49,8,39,1628937049.0,32.000000
-51,7,39,1628937049.0,32.000000
-50,9,35,1628937049.0,32.000000
-47,3,42,1628937049.0,32.000000
-45,3,42,1628937049.0,32.000000
-48,6,40,1628937049.0,32.000000
-50,9,37,1628937049.0,32.000000
-48,3,40,1628937049.0,32.000000
-56,16,34,1628937049.0,32.000000
-48,5,42,1628937049.0,32.000000
-47,7,42,1628937049.0,32.000000
-48,5,39,1628937049.0,32.000000
-49,7,38,1628937049.0,32.000000
-49,7,39,1628937049.0,32.000000
-48,5,41,1628937049.0,32.000000
-49,5,43,1628937049.0,32.000000
-49,7,40,1628937049.0,32.000000
-48,5,45,1628937049.0,32.000000
-52,7,40,1628937049.0,32.000000
-55,14,35,1628937049.0,32.000000
-46,5,44,1628937049.0,32.000000
-52,9,36,1628937049.0,32.000000
-53,13,37,1628937049.0,32.000000
-46,4,42,1628937049.0,32.000000
-53,9,36,1628937049.0,32.000000
-50,7,38,1628937049.0,32.000000
-53,9,34,1628937049.0,32.000000
-50,8,37,1628937049.0,32.000000
-50,6,40,1628937049.0,32.000000
-50,7,39,1628937049.0,32.000000
-50,5,38,1628937049.0,32.000000
-50,5,39,1628937049.0,32.000000
-48,4,42,1628937049.0,32.000000
-48,6,40,1628937049.0,32.000000
-49,3,39,1628937049.0,32.000000
-50,8,37,1628937049.0,32.000000
-52,8,34,1628937049.0,32.000000
-49,4,40,1628937049.0,32.000000
-46,4,43,1628937049.0,32.000000
-51,7,35,1628937049.0,32.000000
-49,4,39,1628937049.0,32.000000
-51,6,36,1628937049.0,32.000000
-52,11,34,1628937049.0,32.000000
-49,5,38,1628937049.0,32.000000
-49,10,37,1628937049.0,32.000000
-49,5,39,1628937049.0,32.000000
-52,8,37,1628937049.0,32.000000
-46,4,45,1628937049.0,32.000000
-48,2,45,1628937049.0,32.000000
-56,10,29,1628937049.0,32.000000
-57,11,28,1628937049.0,32.000000
-44,7,38,1628937049.0,32.000000
-44,4,46,1628937049.0,32.000000
-37,7,50,1628937049.0,32.000000
-7,-1,79,1628937049.0,32.000000
-23,5,54,1628937049.0,32.000000
-19,4,59,1628937049.0,32.000000
-32,3,56,1628937049.0,32.000000
-31,4,55,1628937049.0,32.000000
-22,2,59,1628937049.0,32.000000
-22,3,60,1628937049.0,32.000000
-21,2,60,1628937049.0,32.000000
-25,2,57,1628937049.0,32.000000
-29,3,56,1628937049.0,32.000000
-32,2,54,1628937049.0,32.000000
-29,3,54,1628937049.0,32.000000
-29,2,55,1628937049.0,32.000000
-32,3,55,1628937049.0,32.000000
-31,3,55,1628937049.0,32.000000
-31,3,55,1628937049.0,32.000000
-32,3,55,1628937049.0,32.000000
-33,2,54,1628937049.0,32.000000
-32,2,54,1628937049.0,32.000000
-31,3,55,1628937049.0,32.000000
-31,3,55,1628937049.0,32.000000
-31,2,55,1628937049.0,32.000000
-31,2,55,1628937049.0,32.000000
-31,3,55,1628937049.0,32.000000
-31,2,55,1628937049.0,32.000000
-32,2,55,1628937049.0,32.000000
-32,2,54,1628937049.0,32.000000
-32,2,54,1628937049.0,32.000000
-32,2,55,1628937049.0,32.000000
-32,2,54,1628937049.0,32.000000
-32,2,54,1628937049.0,32.000000
-31,2,55,1628937049.0,32.000000
-31,2,55,1628937049.0,32.000000
-32,2,55,1628937049.0,32.000000
-33,2,54,1628937049.0,32.000000
-32,2,54,1628937049.0,32.000000
-32,2,54,1628937049.0,32.000000
-32,2,54,1628937049.0,32.000000
-32,2,54,1628937049.0,32.000000
-32,3,54,1628937049.0,32.000000
-32,2,54,1628937049.0,32.000000
-31,2,55,1628937049.0,32.000000
-32,3,54,1628937049.0,32.000000
-33,3,54,1628937049.0,32.000000
-32,3,54,1628937049.0,32.000000
-32,2,54,1628937049.0,32.000000
-33,2,54,1628937049.0,32.000000
-31,2,54,1628937049.0,32.000000
-32,3,55,1628937049.0,32.000000
-33,2,54,1628937049.0,32.000000
-32,3,55,1628937049.0,32.000000
-32,3,55,1628937049.0,32.000000
-32,3,54,1628937049.0,32.000000
-32,3,54,1628937049.0,32.000000
-32,3,54,1628937049.0,32.000000
-32,3,54,1628937049.0,32.000000
-33,3,54,1628937049.0,32.000000
-32,2,54,1628937049.0,32.000000
-31,3,54,1628937049.0,32.000000
-32,3,54,1628937049.0,32.000000
-31,2,54,1628937049.0,32.000000
-31,3,54,1628937049.0,32.000000
-32,3,54,1628937049.0,32.000000
-32,3,55,1628937049.0,32.000000
-32,3,54,1628937049.0,32.000000
-32,3,55,1628937049.0,32.000000
-32,3,54,1628937049.0,32.000000
-32,3,54,1628937049.0,32.000000
-31,2,55,1628937049.0,32.000000
-32,3,54,1628937049.0,32.000000
-32,3,55,1628937049.0,32.000000
-32,3,55,1628937049.0,32.000000
-33,3,54,1628937049.0,32.000000
-32,3,54,1628937049.0,32.000000
-32,3,54,1628937049.0,32.000000
-32,3,54,1628937049.0,32.000000
-31,2,55,1628937049.0,32.000000
-32,3,55,1628937049.0,32.000000
-32,3,54,1628937049.0,32.000000
-31,3,54,1628937049.0,32.000000
-32,3,54,1628937049.0,32.000000
-32,3,54,1628937049.0,32.000000
-32,3,55,1628937049.0,32.000000
-32,3,55,1628937049.0,32.000000
-32,3,55,1628937049.0,32.000000
-31,3,54,1628937049.0,32.000000
-31,3,54,1628937049.0,32.000000
-32,3,55,1628937049.0,32.000000
-31,3,55,1628937049.0,32.000000
-32,3,55,1628937049.0,32.000000
-31,3,55,1628937049.0,32.000000
-31,3,55,1628937049.0,32.000000
-31,3,55,1628937049.0,32.000000
-32,3,54,1628937049.0,32.000000
-32,3,55,1628937049.0,32.000000
-32,3,54,1628937049.0,32.000000
-31,3,55,1628937049.0,32.000000
-32,3,54,1628937049.0,32.000000
-31,3,55,1628937049.0,32.000000
-32,3,55,1628937049.0,32.000000
-31,3,55,1628937049.0,32.000000
-31,3,55,1628937049.0,32.000000
-32,3,55,1628937049.0,32.000000
-31,3,55,1628937049.0,32.000000
-32,3,55,1628937049.0,32.000000
-32,3,55,1628937049.0,32.000000
-32,3,54,1628937049.0,32.000000
-31,3,55,1628937049.0,32.000000
-31,3,55,1628937049.0,32.000000
-32,3,54,1628937049.0,32.000000
-31,3,55,1628937049.0,32.000000
-32,3,54,1628937049.0,32.000000
-32,3,55,1628937049.0,32.000000
-32,3,55,1628937049.0,32.000000
-32,3,54,1628937049.0,32.000000
-32,3,55,1628937049.0,32.000000
-31,3,55,1628937049.0,32.000000
-31,3,54,1628937049.0,32.000000
-31,3,55,1628937049.0,32.000000
-31,3,55,1628937049.0,32.000000
-32,3,55,1628937049.0,32.000000
-32,3,55,1628937049.0,32.000000
-31,3,54,1628937049.0,32.000000
-32,3,55,1628937049.0,32.000000
-32,3,54,1628937049.0,32.000000
-32,3,54,1628937049.0,32.000000
-32,3,54,1628937049.0,32.000000
-32,3,55,1628937049.0,32.000000
-31,3,54,1628937049.0,32.000000
-32,3,55,1628937049.0,32.000000
-31,3,55,1628937049.0,32.000000
-31,3,55,1628937049.0,32.000000
-32,3,54,1628937049.0,32.000000
-32,3,54,1628937049.0,32.000000
-32,3,55,1628937049.0,32.000000
-32,3,55,1628937049.0,32.000000
-32,3,55,1628937049.0,32.000000
-32,3,55,1628937049.0,32.000000
-31,3,55,1628937049.0,32.000000
-32,3,54,1628937049.0,32.000000
-31,3,54,1628937049.0,32.000000
-31,3,55,1628937049.0,32.000000
-31,3,55,1628937049.0,32.000000
-32,3,54,1628937049.0,32.000000
-32,3,54,1628937049.0,32.000000
-32,3,55,1628937049.0,32.000000
-31,3,55,1628937049.0,32.000000
-31,3,54,1628937049.0,32.000000
-32,3,54,1628937049.0,32.000000
-32,3,55,1628937049.0,32.000000
-32,3,54,1628937049.0,32.000000
-31,3,54,1628937049.0,32.000000
-32,3,54,1628937049.0,32.000000
-32,3,55,1628937049.0,32.000000
-32,3,55,1628937049.0,32.000000
-32,3,55,1628937049.0,32.000000
-32,3,54,1628937049.0,32.000000
-31,3,55,1628937049.0,32.000000
-32,3,55,1628937049.0,32.000000
-32,3,54,1628937049.0,32.000000
-32,3,54,1628937049.0,32.000000
-32,3,54,1628937049.0,32.000000
-32,3,54,1628937049.0,32.000000
-32,3,54,1628937049.0,32.000000
-32,3,54,1628937049.0,32.000000
-32,3,55,1628937049.0,32.000000
-32,3,55,1628937049.0,32.000000
-31,3,55,1628937049.0,32.000000
-32,3,55,1628937049.0,32.000000
-32,3,54,1628937049.0,32.000000
-32,3,54,1628937049.0,32.000000
-32,3,55,1628937049.0,32.000000
-32,3,55,1628937049.0,32.000000
-32,3,54,1628937049.0,32.000000
-32,3,54,1628937049.0,32.000000
-32,3,54,1628937049.0,32.000000
-32,3,55,1628937049.0,32.000000
-31,3,54,1628937049.0,32.000000
-31,3,54,1628937049.0,32.000000
-32,3,54,1628937049.0,32.000000
-33,3,54,1628937049.0,32.000000
-34,3,53,1628937049.0,32.000000
-34,3,53,1628937049.0,32.000000
-31,1,55,1628937049.0,32.000000
-30,2,55,1628937049.0,32.000000
-30,1,55,1628937049.0,32.000000
-31,2,55,1628937049.0,32.000000
-29,0,56,1628937049.0,32.000000
-32,3,55,1628937049.0,32.000000
-27,2,56,1628937049.0,32.000000
-29,2,56,1628937049.0,32.000000
-31,2,55,1628937049.0,32.000000
-30,2,56,1628937049.0,32.000000
-29,2,56,1628937049.0,32.000000
-28,2,56,1628937049.0,32.000000
-30,2,55,1628937049.0,32.000000
-29,2,56,1628937049.0,32.000000
-30,2,56,1628937049.0,32.000000
-29,1,56,1628937049.0,32.000000
-29,2,56,1628937049.0,32.000000
-29,1,56,1628937049.0,32.000000
-29,2,56,1628937049.0,32.000000
-30,2,56,1628937049.0,32.000000
-28,1,55,1628937049.0,32.000000
-29,1,56,1628937049.0,32.000000
-29,3,56,1628937049.0,32.000000
-29,2,57,1628937049.0,32.000000
-29,3,54,1628937049.0,32.000000
-31,3,55,1628937049.0,32.000000
-31,3,55,1628937049.0,32.000000
-31,3,54,1628937049.0,32.000000
-33,4,53,1628937049.0,32.000000
-32,4,54,1628937049.0,32.000000
-31,3,55,1628937049.0,32.000000
-31,3,55,1628937049.0,32.000000
-30,3,56,1628937049.0,32.000000
-30,3,55,1628937049.0,32.000000
-30,2,55,1628937049.0,32.000000
-31,4,56,1628937049.0,32.000000
-30,3,55,1628937049.0,32.000000
-32,3,55,1628937049.0,32.000000
-31,2,55,1628937049.0,32.000000
-31,3,55,1628937049.0,32.000000
-31,2,55,1628937049.0,32.000000
-31,2,55,1628937049.0,32.000000
-31,2,55,1628937049.0,32.000000
-31,2,55,1628937049.0,32.000000
-31,2,55,1628937049.0,32.000000
-31,2,55,1628937049.0,32.000000
-31,2,55,1628937049.0,32.000000
-31,2,55,1628937049.0,32.000000
-31,2,55,1628937049.0,32.000000
-32,2,55,1628937049.0,32.000000
-32,3,54,1628937049.0,32.000000
-31,2,55,1628937049.0,32.000000
-31,3,55,1628937049.0,32.000000
-31,3,53,1628937049.0,32.000000
-27,-1,60,1628937049.0,32.000000
-35,6,51,1628937049.0,32.000000
-31,3,55,1628937049.0,32.000000
-31,3,54,1628937049.0,32.000000
-31,2,55,1628937049.0,32.000000
-31,2,55,1628937049.0,32.000000
-31,2,55,1628937049.0,32.000000
-32,2,55,1628937049.0,32.000000
-33,5,55,1628937049.0,32.000000
-34,2,54,1628937049.0,32.000000
-29,1,56,1628937049.0,32.000000
-26,0,56,1628937049.0,32.000000
-20,2,58,1628937049.0,32.000000
-21,7,57,1628937049.0,32.000000
-24,9,58,1628937049.0,32.000000
-32,7,55,1628937049.0,32.000000
-31,8,56,1628937049.0,32.000000
-35,0,55,1628937049.0,32.000000
-32,-3,55,1628937049.0,32.000000
-31,-3,55,1628937049.0,32.000000
-29,1,57,1628937049.0,32.000000
-30,2,57,1628937049.0,32.000000
-30,3,56,1628937049.0,32.000000
-27,1,57,1628937049.0,32.000000
-25,0,58,1628937049.0,32.000000
-25,2,57,1628937049.0,32.000000
-27,2,57,1628937049.0,32.000000
-28,2,56,1628937049.0,32.000000
-28,2,56,1628937049.0,32.000000
-29,1,56,1628937049.0,32.000000
-30,1,56,1628937049.0,32.000000
-30,1,56,1628937049.0,32.000000
-31,1,56,1628937049.0,32.000000
-30,2,56,1628937049.0,32.000000
-31,1,55,1628937049.0,32.000000
-31,1,55,1628937049.0,32.000000
-34,-1,62,1628937049.0,32.000000
-36,-4,63,1628937049.0,32.000000
-26,-5,71,1628937049.0,32.000000
-16,1,68,1628937049.0,32.000000
-18,4,63,1628937049.0,32.000000
-29,8,58,1628937049.0,32.000000
-29,8,58,1628937049.0,32.000000
-31,14,45,1628937049.0,32.000000
-17,7,62,1628937049.0,32.000000
-19,12,51,1628937049.0,32.000000
-4,25,49,1628937049.0,32.000000
6,23,59,1628937049.0,32.000000
-12,26,59,1628937049.0,32.000000
-30,37,50,1628937049.0,32.000000
-33,37,44,1628937049.0,32.000000
4,43,42,1628937049.0,32.000000
32,52,37,1628937049.0,32.000000
48,51,41,1628937049.0,32.000000
46,47,45,1628937049.0,32.000000
36,49,37,1628937049.0,32.000000
9,47,31,1628937049.0,32.000000
-2,39,34,1628937049.0,32.000000
-1,35,35,1628937049.0,32.000000
12,27,39,1628937049.0,32.000000
18,24,43,1628937049.0,32.000000
20,18,51,1628937049.0,32.000000
32,10,65,1628937049.0,32.000000
37,10,62,1628937049.0,32.000000
27,7,57,1628937049.0,32.000000
8,4,63,1628937049.0,32.000000
2,2,66,1628937049.0,32.000000
6,-1,68,1628937049.0,32.000000
9,-2,67,1628937049.0,32.000000
7,-5,71,1628937049.0,32.000000
-10,0,65,1628937049.0,32.000000
-12,0,62,1628937049.0,32.000000
-19,1,60,1628937049.0,32.000000
-30,6,62,1628937049.0,32.000000
-28,3,61,1628937049.0,32.000000
-32,2,58,1628937049.0,32.000000
-30,1,57,1628937049.0,32.000000
-24,1,58,1628937049.0,32.000000
-24,1,60,1628937049.0,32.000000
-24,1,59,1628937049.0,32.000000
-26,1,58,1628937049.0,32.000000
-25,2,58,1628937049.0,32.000000
-25,1,58,1628937049.0,32.000000
-25,1,58,1628937049.0,32.000000
-25,2,58,1628937049.0,32.000000
-26,2,58,1628937049.0,32.000000
-24,1,58,1628937049.0,32.000000
-24,1,59,1628937049.0,32.000000
-25,3,58,1628937049.0,32.000000
-25,3,58,1628937049.0,32.000000
-26,1,57,1628937049.0,32.000000
-27,1,57,1628937049.0,32.000000
-30,2,56,1628937049.0,32.000000
-29,1,57,1628937049.0,32.000000
-28,1,57,1628937049.0,32.000000
-28,0,57,1628937049.0,32.000000
-28,2,56,1628937049.0,32.000000
-27,2,57,1628937049.0,32.000000
-29,1,58,1628937049.0,32.000000
-30,-3,59,1628937049.0,32.000000
-37,-13,69,1628937049.0,32.000000
-24,-38,70,1628937049.0,32.000000
22,-37,87,1628937049.0,32.000000
31,-22,88,1628937049.0,32.000000
21,-22,70,1628937049.0,32.000000
9,14,53,1628937049.0,32.000000
-18,28,50,1628937049.0,32.000000
-21,37,36,1628937049.0,32.000000
-40,52,13,1628937049.0,32.000000
-50,35,23,1628937049.0,32.000000
-47,31,33,1628937049.0,32.000000
-49,23,30,1628937049.0,32.000000
-52,20,26,1628937049.0,32.000000
-46,15,29,1628937049.0,32.000000
-48,4,37,1628937049.0,32.000000
-46,3,38,1628937049.0,32.000000
-55,4,36,1628937049.0,32.000000
-51,3,35,1628937049.0,32.000000
-42,1,42,1628937049.0,32.000000
-38,3,46,1628937049.0,32.000000
-42,3,46,1628937049.0,32.000000
-53,3,45,1628937049.0,32.000000
-53,0,41,1628937049.0,32.000000
-60,-4,43,1628937049.0,32.000000
-59,-4,41,1628937049.0,32.000000
-66,-3,36,1628937049.0,32.000000
-58,-1,34,1628937049.0,32.000000
-59,-1,31,1628937049.0,32.000000
-61,-3,34,1628937049.0,32.000000
-65,-3,34,1628937049.0,32.000000
-64,-2,34,1628937049.0,32.000000
-61,1,34,1628937049.0,32.000000
-61,6,32,1628937049.0,32.000000
-60,9,32,1628937049.0,32.000000
-56,14,31,1628937049.0,32.000000
-52,18,30,1628937049.0,32.000000
-51,21,31,1628937049.0,32.000000
-48,24,29,1628937049.0,32.000000
-48,25,28,1628937049.0,32.000000
-47,26,31,1628937049.0,32.000000
-46,26,32,1628937049.0,32.000000
-45,27,33,1628937049.0,32.000000
-43,31,36,1628937049.0,32.000000
-41,31,38,1628937049.0,32.000000
-37,35,39,1628937049.0,32.000000
-30,38,40,1628937049.0,32.000000
-27,39,40,1628937049.0,32.000000
-24,39,40,1628937049.0,32.000000
-21,41,39,1628937049.0,32.000000
-21,41,38,1628937049.0,32.000000
-19,42,40,1628937049.0,32.000000
-19,44,40,1628937049.0,32.000000
-21,44,39,1628937049.0,32.000000
-21,43,37,1628937049.0,32.000000
-21,42,35,1628937049.0,32.000000
-18,45,34,1628937049.0,32.000000
-16,45,36,1628937049.0,32.000000
-13,46,40,1628937049.0,32.000000
-11,45,41,1628937049.0,32.000000
-11,46,41,1628937049.0,32.000000
-9,47,42,1628937049.0,32.000000
-5,48,42,1628937049.0,32.000000
-4,49,41,1628937049.0,32.000000
-5,49,41,1628937049.0,32.000000
-5,49,39,1628937049.0,32.000000
-4,49,41,1628937049.0,32.000000
-4,49,43,1628937049.0,32.000000
-4,49,42,1628937049.0,32.000000
-4,49,41,1628937049.0,32.000000
-4,50,40,1628937049.0,32.000000
-2,49,39,1628937049.0,32.000000
2,47,41,1628937049.0,32.000000
0,47,42,1628937049.0,32.000000
-4,49,40,1628937049.0,32.000000
-4,49,39,1628937049.0,32.000000
-2,49,40,1628937049.0,32.000000
-1,49,41,1628937049.0,32.000000
-2,49,40,1628937049.0,32.000000
-1,49,41,1628937049.0,32.000000
-1,49,42,1628937049.0,32.000000
-1,49,41,1628937049.0,32.000000
2,49,42,1628937049.0,32.000000
1,49,42,1628937049.0,32.000000
1,49,41,1628937049.0,32.000000
1,49,41,1628937049.0,32.000000
1,49,40,1628937049.0,32.000000
1,49,40,1628937049.0,32.000000
1,49,41,1628937049.0,32.000000
2,49,41,1628937049.0,32.000000
2,49,40,1628937049.0,32.000000
2,49,41,1628937049.0,32.000000
3,48,41,1628937049.0,32.000000
4,48,41,1628937049.0,32.000000
4,48,41,1628937049.0,32.000000
4,49,40,1628937049.0,32.000000
4,49,41,1628937049.0,32.000000
5,49,41,1628937049.0,32.000000
4,49,40,1628937049.0,32.000000
5,48,40,1628937049.0,32.000000
6,48,40,1628937049.0,32.000000
6,48,40,1628937049.0,32.000000
5,48,40,1628937049.0,32.000000
5,48,39,1628937049.0,32.000000
4,48,39,1628937049.0,32.000000
6,48,40,1628937049.0,32.000000
6,47,39,1628937049.0,32.000000
6,47,40,1628937049.0,32.000000
5,48,41,1628937049.0,32.000000
4,48,41,1628937049.0,32.000000
4,48,42,1628937049.0,32.000000
5,49,42,1628937049.0,32.000000
3,49,41,1628937049.0,32.000000
1,49,41,1628937049.0,32.000000
3,49,42,1628937049.0,32.000000
6,49,48,1628937049.0,32.000000
4,49,46,1628937049.0,32.000000
5,49,47,1628937049.0,32.000000
1,50,46,1628937049.0,32.000000
-3,51,44,1628937049.0,32.000000
-4,51,44,1628937049.0,32.000000
-10,50,45,1628937049.0,32.000000
-11,49,44,1628937049.0,32.000000
-9,48,43,1628937049.0,32.000000
-15,46,40,1628937049.0,32.000000
-18,45,38,1628937049.0,32.000000
-21,43,36,1628937049.0,32.000000
-22,42,34,1628937049.0,32.000000
-30,41,32,1628937049.0,32.000000
-29,38,30,1628937049.0,32.000000
-34,36,27,1628937049.0,32.000000
-41,31,25,1628937049.0,32.000000
-39,29,21,1628937049.0,32.000000
-39,25,20,1628937049.0,32.000000
-47,21,22,1628937049.0,32.000000
-47,20,22,1628937049.0,32.000000
-50,15,20,1628937049.0,32.000000
-57,12,21,1628937049.0,32.000000
-57,10,22,1628937049.0,32.000000
-61,6,19,1628937049.0,32.000000
-61,4,20,1628937049.0,32.000000
-63,1,20,1628937049.0,32.000000
-63,1,19,1628937049.0,32.000000
-62,0,21,1628937049.0,32.000000
-65,-2,19,1628937049.0,32.000000
-67,-5,19,1628937049.0,32.000000
-66,-4,21,1628937049.0,32.000000
-64,-5,22,1628937049.0,32.000000
-65,-5,21,1628937049.0,32.000000
-65,-4,22,1628937049.0,32.000000
-64,-5,22,1628937049.0,32.000000
-62,-5,23,1628937049.0,32.000000
-60,-7,24,1628937049.0,32.000000
-59,-8,25,1628937049.0,32.000000
-61,-8,24,1628937049.0,32.000000
-58,-8,27,1628937049.0,32.000000
-57,-10,27,1628937049.0,32.000000
-58,-11,28,1628937049.0,32.000000
-57,-11,28,1628937049.0,32.000000
-57,-11,28,1628937049.0,32.000000
-58,-10,27,1628937049.0,32.000000
-58,-10,27,1628937049.0,32.000000
-55,-9,27,1628937049.0,32.000000
-59,-8,28,1628937049.0,32.000000
-57,-8,28,1628937049.0,32.000000
-57,-9,25,1628937049.0,32.000000
-55,-9,26,1628937049.0,32.000000
-59,-7,25,1628937049.0,32.000000
-58,-7,27,1628937049.0,32.000000
-57,-8,29,1628937049.0,32.000000
-57,-8,29,1628937049.0,32.000000
-57,-9,31,1628937049.0,32.000000
-57,-9,32,1628937049.0,32.000000
-60,-11,31,1628937049.0,32.000000
-59,-12,32,1628937049.0,32.000000
-56,-13,33,1628937049.0,32.000000
-55,-14,33,1628937049.0,32.000000
-56,-14,32,1628937049.0,32.000000
-60,-13,29,1628937049.0,32.000000
-57,-15,33,1628937049.0,32.000000
-55,-13,34,1628937049.0,32.000000
-60,-13,29,1628937049.0,32.000000
-61,-13,27,1628937049.0,32.000000
-64,-9,26,1628937049.0,32.000000
-59,-12,30,1628937049.0,32.000000
-60,-6,23,1628937049.0,32.000000
-64,-11,26,1628937049.0,32.000000
-60,-9,24,1628937049.0,32.000000
-63,-2,22,1628937049.0,32.000000
-54,-3,29,1628937049.0,32.000000
-49,3,28,1628937049.0,32.000000
-49,-1,29,1628937049.0,32.000000
-44,-1,30,1628937049.0,32.000000
-32,14,31,1628937049.0,32.000000
-34,14,40,1628937049.0,32.000000
-28,12,42,1628937049.0,32.000000
-12,21,39,1628937049.0,32.000000
-12,24,39,1628937049.0,32.000000
-17,18,49,1628937049.0,32.000000
-7,29,52,1628937049.0,32.000000
-3,30,51,1628937049.0,32.000000
-10,31,62,1628937049.0,32.000000
8,28,63,1628937049.0,32.000000
8,25,64,1628937049.0,32.000000
-13,21,65,1628937049.0,32.000000
-20,14,65,1628937049.0,32.000000
-20,8,64,1628937049.0,32.000000
-12,8,73,1628937049.0,32.000000
-16,6,73,1628937049.0,32.000000
-15,7,64,1628937049.0,32.000000
-17,7,59,1628937049.0,32.000000
-23,6,56,1628937049.0,32.000000
-15,7,52,1628937049.0,32.000000
-16,10,51,1628937049.0,32.000000
-19,10,58,1628937049.0,32.000000
-32,-18,100,1628937049.0,32.000000
-94,1,71,1628937049.0,32.000000
-19,-4,42,1628937049.0,32.000000
-38,2,42,1628937049.0,32.000000
-33,-1,64,1628937049.0,32.000000
-28,0,51,1628937049.0,32.000000
-26,1,54,1628937049.0,32.000000
-28,2,61,1628937049.0,32.000000
-28,2,62,1628937049.0,32.000000
-19,4,64,1628937049.0,32.000000
-24,4,66,1628937049.0,32.000000
-25,5,61,1628937049.0,32.000000
-25,7,47,1628937049.0,32.000000
-30,10,52,1628937049.0,32.000000
-31,8,47,1628937049.0,32.000000
-46,10,27,1628937049.0,32.000000
-37,8,28,1628937049.0,32.000000
-50,9,2,1628937049.0,32.000000
-65,13,-25,1628937049.0,32.000000
-74,12,-23,1628937049.0,32.000000
-72,9,-29,1628937049.0,32.000000
-65,9,-31,1628937049.0,32.000000
-57,5,-32,1628937049.0,32.000000
-65,2,-38,1628937049.0,32.000000
-56,2,-52,1628937049.0,32.000000
-51,7,-41,1628937049.0,32.000000
-52,7,-38,1628937049.0,32.000000
-54,7,-37,1628937049.0,32.000000
-53,8,-39,1628937049.0,32.000000
-52,9,-40,1628937049.0,32.000000
-62,7,-31,1628937049.0,32.000000
-59,7,-29,1628937049.0,32.000000
-61,3,-28,1628937049.0,32.000000
-68,3,-27,1628937049.0,32.000000
-63,5,-21,1628937049.0,32.000000
-59,5,-14,1628937049.0,32.000000
-64,6,-10,1628937049.0,32.000000
-60,6,-4,1628937049.0,32.000000
-63,8,0,1628937049.0,32.000000
-55,11,10,1628937049.0,32.000000
-62,12,9,1628937049.0,32.000000
-58,12,17,1628937049.0,32.000000
-51,12,21,1628937049.0,32.000000
-55,12,23,1628937049.0,32.000000
-49,9,33,1628937049.0,32.000000
-52,9,33,1628937049.0,32.000000
-60,9,26,1628937049.0,32.000000
-54,9,29,1628937049.0,32.000000
-53,7,31,1628937049.0,32.000000
-54,7,32,1628937049.0,32.000000
-51,7,33,1628937049.0,32.000000
-54,7,33,1628937049.0,32.000000
-54,6,35,1628937049.0,32.000000
-49,6,39,1628937049.0,32.000000
-51,7,41,1628937049.0,32.000000
-50,7,43,1628937049.0,32.000000
-51,7,39,1628937049.0,32.000000
-49,8,42,1628937049.0,32.000000
-45,7,43,1628937049.0,32.000000
-50,8,42,1628937049.0,32.000000
-51,8,40,1628937049.0,32.000000
-44,7,45,1628937049.0,32.000000
-51,8,39,1628937049.0,32.000000
-43,8,44,1628937049.0,32.000000
-26,4,56,1628937049.0,32.000000
-30,8,53,1628937049.0,32.000000
-28,9,55,1628937049.0,32.000000
-30,11,54,1628937049.0,32.000000
-28,10,53,1628937049.0,32.000000
-33,10,53,1628937049.0,32.000000
-30,9,56,1628937049.0,32.000000
-29,10,55,1628937049.0,32.000000
-29,10,55,1628937049.0,32.000000
-28,10,54,1628937049.0,32.000000
-29,10,56,1628937049.0,32.000000
-30,9,54,1628937049.0,32.000000
-28,9,54,1628937049.0,32.000000
-28,8,59,1628937049.0,32.000000
-27,8,57,1628937049.0,32.000000
-23,8,57,1628937049.0,32.000000
-20,7,56,1628937049.0,32.000000
-22,7,55,1628937049.0,32.000000
-22,8,59,1628937049.0,32.000000
-22,7,57,1628937049.0,32.000000
-25,7,58,1628937049.0,32.000000
-26,2,59,1628937049.0,32.000000
-39,4,52,1628937049.0,32.000000
-24,2,60,1628937049.0,32.000000
-32,2,54,1628937049.0,32.000000
-30,2,56,1628937049.0,32.000000
-31,3,55,1628937049.0,32.000000
-32,3,55,1628937049.0,32.000000
-32,3,55,1628937049.0,32.000000
-29,2,56,1628937049.0,32.000000
-29,2,59,1628937049.0,32.000000
-32,1,55,1628937049.0,32.000000
-32,2,54,1628937049.0,32.000000
-32,2,55,1628937049.0,32.000000
-32,2,54,1628937049.0,32.000000
-33,2,54,1628937049.0,32.000000
-33,2,54,1628937049.0,32.000000
-33,2,54,1628937049.0,32.000000
-33,2,54,1628937049.0,32.000000
-33,2,54,1628937049.0,32.000000
-33,2,54,1628937049.0,32.000000
-33,2,54,1628937049.0,32.000000
-33,2,54,1628937049.0,32.000000
-33,2,54,1628937049.0,32.000000
-33,2,54,1628937049.0,32.000000
-33,2,54,1628937049.0,32.000000
-33,2,54,1628937049.0,32.000000
-33,2,53,1628937049.0,32.000000
-34,2,54,1628937049.0,32.000000
-34,2,53,1628937049.0,32.000000
-34,2,54,1628937049.0,32.000000
-34,2,53,1628937049.0,32.000000
-34,2,53,1628937049.0,32.000000
-34,2,53,1628937049.0,32.000000
-34,2,53,1628937049.0,32.000000
-34,2,53,1628937049.0,32.000000
-35,2,53,1628937049.0,32.000000
-34,2,53,1628937049.0,32.000000
-35,2,53,1628937049.0,32.000000
-35,2,53,1628937049.0,32.000000
-34,2,53,1628937049.0,32.000000
-35,2,53,1628937049.0,32.000000
-35,1,53,1628937049.0,32.000000
-35,2,52,1628937049.0,32.000000
-37,3,52,1628937049.0,32.000000
-33,1,53,1628937049.0,32.000000
-35,1,53,1628937049.0,32.000000
-33,2,54,1628937049.0,32.000000
-34,1,53,1628937049.0,32.000000
-34,0,53,1628937049.0,32.000000
-34,1,53,1628937049.0,32.000000
-34,2,53,1628937049.0,32.000000
-35,5,52,1628937049.0,32.000000
-37,3,52,1628937049.0,32.000000
-38,3,50,1628937049.0,32.000000
-39,3,49,1628937049.0,32.000000
-38,2,51,1628937049.0,32.000000
-37,3,51,1628937049.0,32.000000
-38,3,50,1628937049.0,32.000000
-38,3,50,1628937049.0,32.000000
-39,2,50,1628937049.0,32.000000
-38,2,50,1628937049.0,32.000000
-39,2,50,1628937049.0,32.000000
-40,2,49,1628937049.0,32.000000
-39,2,50,1628937049.0,32.000000
-38,2,51,1628937049.0,32.000000
-38,2,50,1628937049.0,32.000000
-38,3,50,1628937049.0,32.000000
-38,3,50,1628937049.0,32.000000
-37,2,51,1628937049.0,32.000000
-36,2,52,1628937049.0,32.000000
-35,2,53,1628937049.0,32.000000
-35,2,53,1628937049.0,32.000000
-34,2,53,1628937049.0,32.000000
-34,1,54,1628937049.0,32.000000
-34,1,54,1628937049.0,32.000000
-33,2,54,1628937049.0,32.000000
-34,1,54,1628937049.0,32.000000
-31,2,55,1628937049.0,32.000000
-31,2,55,1628937049.0,32.000000
-29,1,55,1628937049.0,32.000000
-32,1,55,1628937049.0,32.000000
-33,1,54,1628937049.0,32.000000
-33,1,54,1628937049.0,32.000000
-33,1,54,1628937049.0,32.000000
-33,-2,55,1628937049.0,32.000000
-34,0,54,1628937049.0,32.000000
-28,2,56,1628937049.0,32.000000
-28,5,56,1628937049.0,32.000000
-30,5,56,1628937049.0,32.000000
-34,1,53,1628937049.0,32.000000
-30,1,55,1628937049.0,32.000000
-31,1,55,1628937049.0,32.000000
-32,1,55,1628937049.0,32.000000
-31,1,55,1628937049.0,32.000000
-31,1,55,1628937049.0,32.000000
-31,1,55,1628937049.0,32.000000
-31,1,55,1628937049.0,32.000000
-31,1,55,1628937049.0,32.000000
-31,1,55,1628937049.0,32.000000
-33,1,54,1628937049.0,32.000000
-33,1,54,1628937049.0,32.000000
-32,1,54,1628937049.0,32.000000
-32,1,54,1628937049.0,32.000000
-34,2,53,1628937049.0,32.000000
-34,1,54,1628937049.0,32.000000
-33,1,54,1628937049.0,32.000000
-32,1,54,1628937049.0,32.000000
-32,2,55,1628937049.0,32.000000
-33,2,54,1628937049.0,32.000000
-33,3,54,1628937049.0,32.000000
-32,3,54,1628937049.0,32.000000
-33,2,53,1628937049.0,32.000000
-33,3,53,1628937049.0,32.000000
-33,3,53,1628937049.0,32.000000
-34,3,53,1628937049.0,32.000000
-34,3,53,1628937049.0,32.000000
-33,3,54,1628937049.0,32.000000
-33,3,54,1628937049.0,32.000000
-33,3,54,1628937049.0,32.000000
-33,3,54,1628937049.0,32.000000
-33,3,54,1628937049.0,32.000000
-33,3,54,1628937049.0,32.000000
-33,3,54,1628937049.0,32.000000
-33,3,54,1628937049.0,32.000000
-33,3,54,1628937049.0,32.000000
-33,3,54,1628937049.0,32.000000
-33,3,54,1628937049.0,32.000000
-33,3,54,1628937049.0,32.000000
-33,3,54,1628937049.0,32.000000
-33,3,54,1628937049.0,32.000000
-33,3,54,1628937049.0,32.000000
-33,3,54,1628937049.0,32.000000
-33,3,54,1628937049.0,32.000000
-33,3,54,1628937049.0,32.000000
-33,3,54,1628937049.0,32.000000
-33,3,54,1628937049.0,32.000000
-33,3,54,1628937049.0,32.000000
-33,3,54,1628937049.0,32.000000
-33,3,54,1628937049.0,32.000000
-33,3,54,1628937049.0,32.000000
-33,3,54,1628937049.0,32.000000
-33,3,54,1628937049.0,32.000000
-33,3,53,1628937049.0,32.000000
-33,3,54,1628937049.0,32.000000
-33,3,54,1628937049.0,32.000000
-33,3,54,1628937049.0,32.000000
-33,3,54,1628937049.0,32.000000
-33,3,54,1628937049.0,32.000000
-33,3,54,1628937049.0,32.000000
-33,3,54,1628937049.0,32.000000
-33,3,54,1628937049.0,32.000000
-33,3,54,1628937049.0,32.000000
-33,3,54,1628937049.0,32.000000
-33,3,54,1628937049.0,32.000000
-33,3,54,1628937049.0,32.000000
-33,3,54,1628937049.0,32.000000
-33,3,54,1628937049.0,32.000000
-33,3,54,1628937049.0,32.000000
-33,3,54,1628937049.0,32.000000
-33,3,53,1628937049.0,32.000000
-33,3,54,1628937049.0,32.000000
-33,3,54,1628937049.0,32.000000
-33,3,54,1628937049.0,32.000000
-33,3,54,1628937049.0,32.000000
-33,3,54,1628937049.0,32.000000
-33,3,54,1628937049.0,32.000000
-33,3,54,1628937049.0,32.000000
-33,3,54,1628937049.0,32.000000
-33,3,53,1628937049.0,32.000000
-33,3,54,1628937049.0,32.000000
-33,3,54,1628937049.0,32.000000
-33,3,54,1628937049.0,32.000000
-33,2,54,1628937049.0,32.000000
-33,3,54,1628937049.0,32.000000
-33,3,54,1628937049.0,32.000000
-33,3,54,1628937049.0,32.000000
-33,3,54,1628937049.0,32.000000
-33,3,54,1628937049.0,32.000000
-33,3,54,1628937049.0,32.000000
-33,3,53,1628937049.0,32.000000
-33,3,54,1628937049.0,32.000000
-33,3,53,1628937049.0,32.000000
-33,3,54,1628937049.0,32.000000
-33,3,54,1628937049.0,32.000000
-34,3,54,1628937049.0,32.000000
-34,2,54,1628937049.0,32.000000
-34,3,53,1628937049.0,32.000000
-34,3,54,1628937049.0,32.000000
-34,2,52,1628937049.0,32.000000
-34,2,54,1628937049.0,32.000000
-34,3,53,1628937049.0,32.000000
-34,2,53,1628937049.0,32.000000
-34,2,53,1628937049.0,32.000000
-34,3,53,1628937049.0,32.000000
-34,2,53,1628937049.0,32.000000
-34,3,53,1628937049.0,32.000000
-35,3,53,1628937049.0,32.000000
-34,2,53,1628937049.0,32.000000
-34,2,53,1628937049.0,32.000000
-34,2,53,1628937049.0,32.000000
-34,2,53,1628937049.0,32.000000
-34,2,53,1628937049.0,32.000000
-34,2,53,1628937049.0,32.000000
-34,2,53,1628937049.0,32.000000
-34,3,54,1628937049.0,32.000000
-34,3,53,1628937049.0,32.000000
-34,2,53,1628937049.0,32.000000
-34,2,53,1628937049.0,32.000000
-33,3,53,1628937049.0,32.000000
-34,2,53,1628937049.0,32.000000
-34,2,53,1628937049.0,32.000000
-34,3,53,1628937049.0,32.000000
-34,2,54,1628937049.0,32.000000
-34,2,53,1628937049.0,32.000000
-34,3,53,1628937049.0,32.000000
-34,2,53,1628937049.0,32.000000
-33,2,54,1628937049.0,32.000000
-34,2,54,1628937049.0,32.000000
-33,2,53,1628937049.0,32.000000
-34,2,54,1628937049.0,32.000000
-34,3,53,1628937049.0,32.000000
-35,2,54,1628937049.0,32.000000
-32,3,53,1628937049.0,32.000000
-34,3,54,1628937049.0,32.000000
-34,3,53,1628937049.0,32.000000
-33,2,52,1628937049.0,32.000000
-28,4,62,1628937049.0,32.000000
-37,2,48,1628937049.0,32.000000
-34,3,54,1628937049.0,32.000000
-33,3,53,1628937049.0,32.000000
-34,3,53,1628937049.0,32.000000
-34,2,55,1628937049.0,32.000000
-34,3,52,1628937049.0,32.000000
-34,2,54,1628937049.0,32.000000
-34,2,53,1628937049.0,32.000000
-34,2,53,1628937049.0,32.000000
-34,3,53,1628937049.0,32.000000
-34,3,53,1628937049.0,32.000000
-34,3,54,1628937049.0,32.000000
-34,3,53,1628937049.0,32.000000
-33,3,54,1628937049.0,32.000000
-35,3,53,1628937049.0,32.000000
-34,3,54,1628937049.0,32.000000
-34,3,53,1628937049.0,32.000000
-34,3,53,1628937049.0,32.000000
-34,3,53,1628937049.0,32.000000
-34,3,53,1628937049.0,32.000000
-34,3,53,1628937049.0,32.000000
-34,3,53,1628937049.0,32.000000
-34,3,53,1628937049.0,32.000000
-34,3,53,1628937049.0,32.000000
-34,3,53,1628937049.0,32.000000
-34,3,53,1628937049.0,32.000000
-34,3,53,1628937049.0,32.000000
-34,3,53,1628937049.0,32.000000
-34,3,53,1628937049.0,32.000000
-34,3,53,1628937049.0,32.000000
-34,3,53,1628937049.0,32.000000
-34,3,53,1628937049.0,32.000000
-34,3,53,1628937049.0,32.000000
-34,3,53,1628937049.0,32.000000
-34,2,53,1628937049.0,32.000000
-34,3,53,1628937049.0,32.000000
-34,3,53,1628937049.0,32.000000
-34,3,53,1628937049.0,32.000000
-34,3,53,1628937049.0,32.000000
-34,3,53,1628937049.0,32.000000
-34,3,53,1628937049.0,32.000000
-34,3,53,1628937049.0,32.000000
-34,3,53,1628937049.0,32.000000
-34,3,53,1628937049.0,32.000000
-34,3,53,1628937049.0,32.000000
-34,3,53,1628937049.0,32.000000
-34,3,53,1628937049.0,32.000000
-33,3,54,1628937049.0,32.000000
-34,3,53,1628937049.0,32.000000
-34,3,53,1628937049.0,32.000000
-34,3,53,1628937049.0,32.000000
-34,3,53,1628937049.0,32.000000
-34,3,53,1628937049.0,32.000000
-34,3,53,1628937049.0,32.000000
-34,3,53,1628937049.0,32.000000
-34,2,53,1628937049.0,32.000000
-34,3,53,1628937049.0,32.000000
-34,3,53,1628937049.0,32.000000
-34,3,53,1628937049.0,32.000000
-34,3,53,1628937049.0,32.000000
-34,2,53,1628937049.0,32.000000
-34,3,53,1628937049.0,32.000000
-34,3,53,1628937049.0,32.000000
-34,2,53,1628937049.0,32.000000
-34,2,53,1628937049.0,32.000000
-34,3,53,1628937049.0,32.000000
-34,3,54,1628937049.0,32.000000
-34,2,53,1628937049.0,32.000000
-34,2,53,1628937049.0,32.000000
-34,3,53,1628937049.0,32.000000
-34,3,53,1628937049.0,32.000000
-34,3,53,1628937049.0,32.000000
-34,3,54,1628937049.0,32.000000
-34,2,53,1628937049.0,32.000000
-34,2,54,1628937049.0,32.000000
-34,2,53,1628937049.0,32.000000
-34,3,54,1628937049.0,32.000000
-34,2,53,1628937049.0,32.000000
-34,2,53,1628937049.0,32.000000
-34,3,54,1628937049.0,32.000000
-34,2,53,1628937049.0,32.000000
-34,2,53,1628937049.0,32.000000
-34,3,53,1628937049.0,32.000000
-34,2,53,1628937049.0,32.000000
-34,2,53,1628937049.0,32.000000
-34,3,53,1628937049.0,32.000000
-34,3,53,1628937049.0,32.000000
-34,2,53,1628937049.0,32.000000
-33,2,53,1628937049.0,32.000000
-34,2,53,1628937049.0,32.000000
-34,2,53,1628937049.0,32.000000
-34,2,54,1628937049.0,32.000000
-34,3,53,1628937049.0,32.000000
-34,2,54,1628937049.0,32.000000
-33,3,53,1628937049.0,32.000000
-34,3,53,1628937049.0,32.000000
-34,2,53,1628937049.0,32.000000
-34,2,54,1628937049.0,32.000000
-34,2,54,1628937049.0,32.000000
-34,2,54,1628937049.0,32.000000
-34,3,53,1628937049.0,32.000000
-34,3,53,1628937049.0,32.000000
-34,3,54,1628937049.0,32.000000
-33,2,53,1628937049.0,32.000000
-34,3,54,1628937049.0,32.000000
-33,2,54,1628937049.0,32.000000
-34,3,53,1628937049.0,32.000000
-34,2,53,1628937049.0,32.000000
-34,2,53,1628937049.0,32.000000
-34,3,53,1628937049.0,32.000000
-33,3,54,1628937049.0,32.000000
-33,2,53,1628937049.0,32.000000
-33,3,53,1628937049.0,32.000000
-34,2,54,1628937049.0,32.000000
-34,2,53,1628937049.0,32.000000
-34,2,53,1628937049.0,32.000000
-34,2,53,1628937049.0,32.000000
-34,3,53,1628937049.0,32.000000
-34,3,53,1628937049.0,32.000000
-34,3,54,1628937049.0,32.000000
-34,3,53,1628937049.0,32.000000
-34,3,53,1628937049.0,32.000000
-34,3,54,1628937049.0,32.000000
-33,2,54,1628937049.0,32.000000
-34,3,53,1628937049.0,32.000000
-34,2,53,1628937049.0,32.000000
-34,3,53,1628937049.0,32.000000
-34,2,53,1628937049.0,32.000000
-34,3,53,1628937049.0,32.000000
-33,2,54,1628937049.0,32.000000
-34,3,54,1628937049.0,32.000000
-34,2,53,1628937049.0,32.000000
-34,2,53,1628937049.0,32.000000
-34,2,53,1628937049.0,32.000000
-34,2,53,1628937049.0,32.000000
-34,3,54,1628937049.0,32.000000
-33,2,53,1628937049.0,32.000000
-34,3,54,1628937049.0,32.000000
-34,2,53,1628937049.0,32.000000
-34,2,54,1628937049.0,32.000000
-33,3,53,1628937049.0,32.000000
-34,2,53,1628937049.0,32.000000
-33,2,54,1628937049.0,32.000000
-34,2,54,1628937049.0,32.000000
-33,2,53,1628937049.0,32.000000
-34,2,53,1628937049.0,32.000000
-34,2,54,1628937049.0,32.000000
-33,2,54,1628937049.0,32.000000
-33,2,54,1628937049.0,32.000000
-34,2,54,1628937049.0,32.000000
-33,2,54,1628937049.0,32.000000
-33,2,53,1628937049.0,32.000000
-34,2,53,1628937049.0,32.000000
-33,2,54,1628937049.0,32.000000
-33,2,53,1628937049.0,32.000000
-33,2,54,1628937049.0,32.000000
-33,2,53,1628937049.0,32.000000
-33,2,54,1628937049.0,32.000000
-33,2,53,1628937049.0,32.000000
-33,2,54,1628937049.0,32.000000
-33,2,54,1628937049.0,32.000000
-33,2,54,1628937049.0,32.000000
-34,2,53,1628937049.0,32.000000
-34,2,54,1628937049.0,32.000000
-34,3,53,1628937049.0,32.000000
-33,2,54,1628937049.0,32.000000
-33,2,54,1628937049.0,32.000000
-34,2,54,1628937049.0,32.000000
-34,2,54,1628937049.0,32.000000
-33,2,54,1628937049.0,32.000000
-34,2,53,1628937049.0,32.000000
-34,2,53,1628937049.0,32.000000
-34,2,54,1628937049.0,32.000000
-34,2,54,1628937049.0,32.000000
-34,2,54,1628937049.0,32.000000
-34,2,54,1628937049.0,32.000000
-33,2,53,1628937049.0,32.000000
-33,2,54,1628937049.0,32.000000
-34,2,53,1628937049.0,32.000000
-34,2,53,1628937049.0,32.000000
-34,3,53,1628937049.0,32.000000
-34,3,53,1628937049.0,32.000000
-34,2,53,1628937049.0,32.000000
-34,2,53,1628937049.0,32.000000
-34,2,53,1628937049.0,32.000000
-34,2,53,1628937049.0,32.000000
-34,2,53,1628937049.0,32.000000
-34,2,53,1628937049.0,32.000000
-34,2,53,1628937049.0,32.000000
-34,2,53,1628937049.0,32.000000
-34,3,53,1628937049.0,32.000000
-34,3,53,1628937049.0,32.000000
-34,3,53,1628937049.0,32.000000
-34,2,54,1628937049.0,32.000000
-34,2,53,1628937049.0,32.000000
-34,3,53,1628937049.0,32.000000
-34,3,53,1628937049.0,32.000000
-34,3,53,1628937049.0,32.000000
-34,3,53,1628937049.0,32.000000
-34,3,53,1628937049.0,32.000000
-34,3,53,1628937049.0,32.000000
-34,2,53,1628937049.0,32.000000
-34,3,53,1628937049.0,32.000000
-34,2,53,1628937049.0,32.000000
-34,3,53,1628937049.0,32.000000
-34,3,53,1628937049.0,32.000000
-34,2,53,1628937049.0,32.000000
-34,3,53,1628937049.0,32.000000
-35,3,53,1628937049.0,32.000000
-34,2,53,1628937049.0,32.000000
-34,3,53,1628937049.0,32.000000
-34,3,53,1628937049.0,32.000000
-34,2,53,1628937049.0,32.000000
-34,2,53,1628937049.0,32.000000
-34,3,53,1628937049.0,32.000000
-34,2,53,1628937049.0,32.000000
-34,3,53,1628937049.0,32.000000
-34,3,53,1628937049.0,32.000000
-34,2,53,1628937049.0,32.000000
-34,2,54,1628937049.0,32.000000
-34,2,53,1628937049.0,32.000000
-34,3,53,1628937049.0,32.000000
-34,3,53,1628937049.0,32.000000
-34,2,53,1628937049.0,32.000000
-35,2,54,1628937049.0,32.000000
-39,2,55,1628937049.0,32.000000
-43,1,59,1628937049.0,32.000000
-51,0,70,1628937049.0,32.000000
-54,-3,65,1628937049.0,32.000000
-26,3,69,1628937049.0,32.000000
4,5,84,1628937049.0,32.000000
23,5,85,1628937049.0,32.000000
19,16,73,1628937049.0,32.000000
4,23,61,1628937049.0,32.000000
-2,37,50,1628937049.0,32.000000
11,38,38,1628937049.0,32.000000
18,39,33,1628937049.0,32.000000
18,38,23,1628937049.0,32.000000
14,37,16,1628937049.0,32.000000
26,42,2,1628937049.0,32.000000
45,41,-5,1628937049.0,32.000000
41,42,-1,1628937049.0,32.000000
45,42,5,1628937049.0,32.000000
43,41,11,1628937049.0,32.000000
42,41,12,1628937049.0,32.000000
41,42,7,1628937049.0,32.000000
41,43,7,1628937049.0,32.000000
42,43,7,1628937049.0,32.000000
40,44,6,1628937049.0,32.000000
40,45,4,1628937049.0,32.000000
42,45,2,1628937049.0,32.000000
41,45,0,1628937049.0,32.000000
44,47,1,1628937049.0,32.000000
40,47,-3,1628937049.0,32.000000
42,47,-3,1628937049.0,32.000000
42,47,-4,1628937049.0,32.000000
40,47,-5,1628937049.0,32.000000
41,47,-5,1628937049.0,32.000000
41,47,-6,1628937049.0,32.000000
41,47,-7,1628937049.0,32.000000
42,46,-6,1628937049.0,32.000000
41,47,-7,1628937049.0,32.000000
41,46,-6,1628937049.0,32.000000
42,47,-5,1628937049.0,32.000000
40,47,-6,1628937049.0,32.000000
42,47,-6,1628937049.0,32.000000
43,46,-5,1628937049.0,32.000000
42,46,-6,1628937049.0,32.000000
42,46,-6,1628937049.0,32.000000
42,46,-6,1628937049.0,32.000000
43,46,-7,1628937049.0,32.000000
40,45,-8,1628937049.0,32.000000
44,46,-7,1628937049.0,32.000000
38,49,0,1628937049.0,32.000000
39,49,-3,1628937049.0,32.000000
40,48,-6,1628937049.0,32.000000
43,47,-6,1628937049.0,32.000000
42,47,-6,1628937049.0,32.000000
41,47,-4,1628937049.0,32.000000
41,46,-4,1628937049.0,32.000000
42,47,-5,1628937049.0,32.000000
41,47,-4,1628937049.0,32.000000
42,47,-5,1628937049.0,32.000000
41,46,-6,1628937049.0,32.000000
42,46,-3,1628937049.0,32.000000
42,46,-4,1628937049.0,32.000000
42,47,-6,1628937049.0,32.000000
41,47,-4,1628937049.0,32.000000
41,46,-3,1628937049.0,32.000000
42,47,-5,1628937049.0,32.000000
43,47,-6,1628937049.0,32.000000
42,46,-5,1628937049.0,32.000000
43,46,-5,1628937049.0,32.000000
43,46,-5,1628937049.0,32.000000
42,48,-7,1628937049.0,32.000000
44,47,-6,1628937049.0,32.000000
42,46,-2,1628937049.0,32.000000
40,45,-3,1628937049.0,32.000000
38,43,-4,1628937049.0,32.000000
36,43,-2,1628937049.0,32.000000
37,45,-3,1628937049.0,32.000000
39,44,-4,1628937049.0,32.000000
41,42,-4,1628937049.0,32.000000
41,41,-2,1628937049.0,32.000000
37,42,5,1628937049.0,32.000000
33,38,15,1628937049.0,32.000000
31,36,19,1628937049.0,32.000000
26,38,26,1628937049.0,32.000000
25,34,33,1628937049.0,32.000000
25,31,37,1628937049.0,32.000000
17,28,51,1628937049.0,32.000000
13,25,61,1628937049.0,32.000000
18,23,73,1628937049.0,32.000000
3,12,71,1628937049.0,32.000000
-22,11,68,1628937049.0,32.000000
-32,11,65,1628937049.0,32.000000
-25,8,65,1628937049.0,32.000000
-25,3,66,1628937049.0,32.000000
-22,0,67,1628937049.0,32.000000
-26,-1,62,1628937049.0,32.000000
-32,0,56,1628937049.0,32.000000
-32,1,56,1628937049.0,32.000000
-27,1,56,1628937049.0,32.000000
-24,2,63,1628937049.0,32.000000
-21,1,66,1628937049.0,32.000000
-28,5,61,1628937049.0,32.000000
-25,4,58,1628937049.0,32.000000
-26,3,59,1628937049.0,32.000000
-31,0,62,1628937049.0,32.000000
-33,-1,57,1628937049.0,32.000000
-28,-1,57,1628937049.0,32.000000
-29,1,56,1628937049.0,32.000000
-29,1,56,1628937049.0,32.000000
-29,1,56,1628937049.0,32.000000
-29,1,56,1628937049.0,32.000000
-28,1,56,1628937049.0,32.000000
-28,1,57,1628937049.0,32.000000
-28,1,56,1628937049.0,32.000000
-28,1,57,1628937049.0,32.000000
-29,1,56,1628937049.0,32.000000
-29,1,56,1628937049.0,32.000000
-28,1,56,1628937049.0,32.000000
-28,1,56,1628937049.0,32.000000
-29,1,56,1628937049.0,32.000000
-28,1,56,1628937049.0,32.000000
-28,1,56,1628937049.0,32.000000
-29,1,56,1628937049.0,32.000000
-28,1,56,1628937049.0,32.000000
-29,1,56,1628937049.0,32.000000
-29,1,56,1628937049.0,32.000000
-29,1,56,1628937049.0,32.000000
-28,1,56,1628937049.0,32.000000
-28,1,56,1628937049.0,32.000000
-28,1,56,1628937049.0,32.000000
-29,1,56,1628937049.0,32.000000
-29,1,57,1628937049.0,32.000000
-29,1,56,1628937049.0,32.000000
-29,1,56,1628937049.0,32.000000
-28,1,56,1628937049.0,32.000000
-29,1,56,1628937049.0,32.000000
-29,1,56,1628937049.0,32.000000
-28,1,56,1628937049.0,32.000000
-28,1,56,1628937049.0,32.000000
-28,1,56,1628937049.0,32.000000
-28,1,56,1628937049.0,32.000000
-29,1,56,1628937049.0,32.000000
-29,1,56,1628937049.0,32.000000
-29,1,56,1628937049.0,32.000000
-29,1,56,1628937049.0,32.000000
-29,1,56,1628937049.0,32.000000
-29,1,56,1628937049.0,32.000000
-29,1,56,1628937049.0,32.000000
-28,1,56,1628937049.0,32.000000
-28,1,56,1628937049.0,32.000000
-28,1,56,1628937049.0,32.000000
-28,1,56,1628937049.0,32.000000
-28,1,56,1628937049.0,32.000000
-29,1,56,1628937049.0,32.000000
-29,1,56,1628937049.0,32.000000
-29,1,56,1628937049.0,32.000000
-29,1,56,1628937049.0,32.000000
-28,1,56,1628937049.0,32.000000
-29,1,56,1628937049.0,32.000000
-29,1,56,1628937049.0,32.000000
-29,1,56,1628937049.0,32.000000
-29,1,56,1628937049.0,32.000000
-29,1,56,1628937049.0,32.000000
-29,1,56,1628937049.0,32.000000
-29,1,56,1628937049.0,32.000000
-28,1,56,1628937049.0,32.000000
-29,1,56,1628937049.0,32.000000
-29,1,56,1628937049.0,32.000000
-29,1,56,1628937049.0,32.000000
-29,1,56,1628937049.0,32.000000
-28,1,56,1628937049.0,32.000000
-29,1,56,1628937049.0,32.000000
