ACC_X,ACC_Y,ACC_Z,start_time_unix,sampling_rate
-56,-4,35,1625193209.0,32.000000
-56,-4,35,1625193209.0,32.000000
-56,-4,35,1625193209.0,32.000000
-56,-3,35,1625193209.0,32.000000
-57,-4,35,1625193209.0,32.000000
-56,-4,35,1625193209.0,32.000000
-56,-4,35,1625193209.0,32.000000
-56,-4,35,1625193209.0,32.000000
-56,-4,35,1625193209.0,32.000000
-56,-4,35,1625193209.0,32.000000
-56,-4,35,1625193209.0,32.000000
-56,-4,35,1625193209.0,32.000000
-56,-4,35,1625193209.0,32.000000
-56,-4,35,1625193209.0,32.000000
-56,-4,35,1625193209.0,32.000000
-57,-4,35,1625193209.0,32.000000
-56,-4,35,1625193209.0,32.000000
-57,-4,35,1625193209.0,32.000000
-56,-4,35,1625193209.0,32.000000
-56,-4,35,1625193209.0,32.000000
-56,-4,35,1625193209.0,32.000000
-56,-4,35,1625193209.0,32.000000
-56,-4,35,1625193209.0,32.000000
-56,-3,35,1625193209.0,32.000000
-56,-4,35,1625193209.0,32.000000
-56,-4,35,1625193209.0,32.000000
-57,-4,35,1625193209.0,32.000000
-57,-4,35,1625193209.0,32.000000
-56,-4,35,1625193209.0,32.000000
-56,-4,35,1625193209.0,32.000000
-56,-4,35,1625193209.0,32.000000
-56,-5,35,1625193209.0,32.000000
-55,-5,35,1625193209.0,32.000000
-56,-3,33,1625193209.0,32.000000
-58,-5,34,1625193209.0,32.000000
-57,-4,34,1625193209.0,32.000000
-58,-2,35,1625193209.0,32.000000
-57,-2,36,1625193209.0,32.000000
-56,-2,36,1625193209.0,32.000000
-56,-2,36,1625193209.0,32.000000
-55,-3,36,1625193209.0,32.000000
-56,-4,35,1625193209.0,32.000000
-58,-5,33,1625193209.0,32.000000
-58,-5,32,1625193209.0,32.000000
-59,-5,32,1625193209.0,32.000000
-57,-4,32,1625193209.0,32.000000
-58,-4,32,1625193209.0,32.000000
-57,-4,35,1625193209.0,32.000000
-57,-3,36,1625193209.0,32.000000
-56,-4,37,1625193209.0,32.000000
-56,-5,37,1625193209.0,32.000000
-56,-6,36,1625193209.0,32.000000
-55,-6,36,1625193209.0,32.000000
-57,-5,36,1625193209.0,32.000000
-55,-5,37,1625193209.0,32.000000
-54,-6,38,1625193209.0,32.000000
-53,-6,39,1625193209.0,32.000000
-53,-7,38,1625193209.0,32.000000
-52,-8,41,1625193209.0,32.000000
-52,-8,40,1625193209.0,32.000000
-52,-8,41,1625193209.0,32.000000
-52,-8,41,1625193209.0,32.000000
-50,-7,40,1625193209.0,32.000000
-50,-7,41,1625193209.0,32.000000
-50,-7,42,1625193209.0,32.000000
-50,-8,42,1625193209.0,32.000000
-50,-8,42,1625193209.0,32.000000
-50,-8,41,1625193209.0,32.000000
-51,-9,40,1625193209.0,32.000000
-52,-9,40,1625193209.0,32.000000
-52,-9,40,1625193209.0,32.000000
-52,-8,40,1625193209.0,32.000000
-53,-8,40,1625193209.0,32.000000
-51,-9,40,1625193209.0,32.000000
-51,-9,40,1625193209.0,32.000000
-50,-8,41,1625193209.0,32.000000
-49,-8,41,1625193209.0,32.000000
-51,-9,41,1625193209.0,32.000000
-52,-8,41,1625193209.0,32.000000
-53,-8,40,1625193209.0,32.000000
-53,-8,41,1625193209.0,32.000000
-53,-7,40,1625193209.0,32.000000
-52,-8,40,1625193209.0,32.000000
-52,-8,40,1625193209.0,32.000000
-51,-8,41,1625193209.0,32.000000
-51,-8,41,1625193209.0,32.000000
-52,-7,41,1625193209.0,32.000000
-50,-7,41,1625193209.0,32.000000
-51,-7,41,1625193209.0,32.000000
-52,-7,40,1625193209.0,32.000000
-52,-8,41,1625193209.0,32.000000
-51,-8,41,1625193209.0,32.000000
-50,-10,42,1625193209.0,32.000000
-49,-10,42,1625193209.0,32.000000
-50,-10,44,1625193209.0,32.000000
-51,-9,42,1625193209.0,32.000000
-49,-8,43,1625193209.0,32.000000
-50,-5,42,1625193209.0,32.000000
-50,-5,42,1625193209.0,32.000000
-50,-6,42,1625193209.0,32.000000
-51,-7,42,1625193209.0,32.000000
-50,-9,42,1625193209.0,32.000000
-48,-10,43,1625193209.0,32.000000
-47,-11,43,1625193209.0,32.000000
-47,-10,46,1625193209.0,32.000000
-46,-8,46,1625193209.0,32.000000
-47,-8,47,1625193209.0,32.000000
-48,-7,46,1625193209.0,32.000000
-48,-7,46,1625193209.0,32.000000
-47,-6,46,1625193209.0,32.000000
-44,-8,47,1625193209.0,32.000000
-46,-7,46,1625193209.0,32.000000
-47,-8,44,1625193209.0,32.000000
-45,-7,45,1625193209.0,32.000000
-50,-6,43,1625193209.0,32.000000
-51,-6,42,1625193209.0,32.000000
-50,-6,42,1625193209.0,32.000000
-49,-7,43,1625193209.0,32.000000
-49,-6,43,1625193209.0,32.000000
-53,-6,38,1625193209.0,32.000000
-55,-5,36,1625193209.0,32.000000
-58,-4,33,1625193209.0,32.000000
-61,-2,30,1625193209.0,32.000000
-63,-1,29,1625193209.0,32.000000
-63,0,28,1625193209.0,32.000000
-63,-1,28,1625193209.0,32.000000
-61,-3,28,1625193209.0,32.000000
-59,-3,30,1625193209.0,32.000000
-59,-3,30,1625193209.0,32.000000
-58,-3,31,1625193209.0,32.000000
-58,-3,32,1625193209.0,32.000000
-58,-3,32,1625193209.0,32.000000
-59,-3,32,1625193209.0,32.000000
-58,-2,32,1625193209.0,32.000000
-58,-2,32,1625193209.0,32.000000
-59,-2,32,1625193209.0,32.000000
-59,-3,32,1625193209.0,32.000000
-59,-3,32,1625193209.0,32.000000
-59,-3,31,1625193209.0,32.000000
-57,-4,32,1625193209.0,32.000000
-57,-4,33,1625193209.0,32.000000
-58,-3,34,1625193209.0,32.000000
-56,-3,33,1625193209.0,32.000000
-56,-3,34,1625193209.0,32.000000
-57,-4,34,1625193209.0,32.000000
-57,-4,34,1625193209.0,32.000000
-57,-4,33,1625193209.0,32.000000
-57,-3,33,1625193209.0,32.000000
-57,-4,34,1625193209.0,32.000000
-57,-4,34,1625193209.0,32.000000
-57,-4,35,1625193209.0,32.000000
-57,-5,34,1625193209.0,32.000000
-58,-4,34,1625193209.0,32.000000
-58,-4,34,1625193209.0,32.000000
-57,-4,34,1625193209.0,32.000000
-58,-4,34,1625193209.0,32.000000
-57,-3,34,1625193209.0,32.000000
-57,-3,34,1625193209.0,32.000000
-57,-4,34,1625193209.0,32.000000
-56,-4,33,1625193209.0,32.000000
-56,-5,33,1625193209.0,32.000000
-56,-6,35,1625193209.0,32.000000
-55,-5,36,1625193209.0,32.000000
-56,-5,36,1625193209.0,32.000000
-56,-5,35,1625193209.0,32.000000
-57,-5,34,1625193209.0,32.000000
-57,-5,34,1625193209.0,32.000000
-56,-5,34,1625193209.0,32.000000
-57,-5,34,1625193209.0,32.000000
-56,-5,35,1625193209.0,32.000000
-56,-5,35,1625193209.0,32.000000
-56,-5,35,1625193209.0,32.000000
-56,-5,35,1625193209.0,32.000000
-56,-5,35,1625193209.0,32.000000
-57,-5,35,1625193209.0,32.000000
-57,-5,35,1625193209.0,32.000000
-56,-5,35,1625193209.0,32.000000
-57,-5,35,1625193209.0,32.000000
-56,-6,35,1625193209.0,32.000000
-56,-5,35,1625193209.0,32.000000
-56,-5,35,1625193209.0,32.000000
-56,-5,35,1625193209.0,32.000000
-57,-5,35,1625193209.0,32.000000
-57,-5,35,1625193209.0,32.000000
-56,-5,35,1625193209.0,32.000000
-56,-5,35,1625193209.0,32.000000
-56,-5,35,1625193209.0,32.000000
-56,-5,35,1625193209.0,32.000000
-57,-5,35,1625193209.0,32.000000
-56,-5,35,1625193209.0,32.000000
-56,-5,34,1625193209.0,32.000000
-57,-5,34,1625193209.0,32.000000
-57,-5,35,1625193209.0,32.000000
-56,-5,35,1625193209.0,32.000000
-56,-5,35,1625193209.0,32.000000
-56,-5,35,1625193209.0,32.000000
-56,-5,34,1625193209.0,32.000000
-57,-5,34,1625193209.0,32.000000
-57,-5,35,1625193209.0,32.000000
-56,-5,34,1625193209.0,32.000000
-57,-5,34,1625193209.0,32.000000
-56,-5,35,1625193209.0,32.000000
-57,-6,35,1625193209.0,32.000000
-56,-5,35,1625193209.0,32.000000
-56,-5,35,1625193209.0,32.000000
-56,-5,35,1625193209.0,32.000000
-56,-5,35,1625193209.0,32.000000
-56,-5,35,1625193209.0,32.000000
-56,-5,35,1625193209.0,32.000000
-56,-5,35,1625193209.0,32.000000
-56,-5,35,1625193209.0,32.000000
-56,-5,35,1625193209.0,32.000000
-57,-5,35,1625193209.0,32.000000
-56,-5,36,1625193209.0,32.000000
-57,-5,35,1625193209.0,32.000000
-57,-5,35,1625193209.0,32.000000
-56,-5,35,1625193209.0,32.000000
-55,-5,35,1625193209.0,32.000000
-56,-5,35,1625193209.0,32.000000
-55,-5,35,1625193209.0,32.000000
-57,-5,35,1625193209.0,32.000000
-55,-4,34,1625193209.0,32.000000
-57,-5,35,1625193209.0,32.000000
-56,-5,35,1625193209.0,32.000000
-55,-5,35,1625193209.0,32.000000
-55,-4,35,1625193209.0,32.000000
-57,-5,35,1625193209.0,32.000000
-56,-5,35,1625193209.0,32.000000
-55,-5,34,1625193209.0,32.000000
-56,-5,34,1625193209.0,32.000000
-56,-5,36,1625193209.0,32.000000
-57,-6,36,1625193209.0,32.000000
-56,-5,36,1625193209.0,32.000000
-57,-5,34,1625193209.0,32.000000
-58,-5,34,1625193209.0,32.000000
-55,-5,35,1625193209.0,32.000000
-56,-5,35,1625193209.0,32.000000
-55,-4,36,1625193209.0,32.000000
-55,-5,36,1625193209.0,32.000000
-56,-5,35,1625193209.0,32.000000
-57,-5,34,1625193209.0,32.000000
-58,-5,35,1625193209.0,32.000000
-56,-4,35,1625193209.0,32.000000
-56,-5,36,1625193209.0,32.000000
-55,-5,36,1625193209.0,32.000000
-57,-6,34,1625193209.0,32.000000
-57,-5,33,1625193209.0,32.000000
-57,-4,34,1625193209.0,32.000000
-56,-5,35,1625193209.0,32.000000
-55,-5,36,1625193209.0,32.000000
-56,-4,35,1625193209.0,32.000000
-57,-4,35,1625193209.0,32.000000
-57,-5,34,1625193209.0,32.000000
-57,-6,35,1625193209.0,32.000000
-56,-5,35,1625193209.0,32.000000
-55,-5,35,1625193209.0,32.000000
-55,-5,36,1625193209.0,32.000000
-56,-4,36,1625193209.0,32.000000
-56,-5,35,1625193209.0,32.000000
-56,-5,35,1625193209.0,32.000000
-56,-5,35,1625193209.0,32.000000
-56,-5,35,1625193209.0,32.000000
-56,-5,35,1625193209.0,32.000000
-56,-5,35,1625193209.0,32.000000
-56,-5,35,1625193209.0,32.000000
-56,-5,35,1625193209.0,32.000000
-57,-5,35,1625193209.0,32.000000
-56,-5,34,1625193209.0,32.000000
-56,-4,35,1625193209.0,32.000000
-58,-5,36,1625193209.0,32.000000
-55,-5,35,1625193209.0,32.000000
-54,-4,35,1625193209.0,32.000000
-57,-4,35,1625193209.0,32.000000
-58,-5,35,1625193209.0,32.000000
-57,-6,34,1625193209.0,32.000000
-56,-5,36,1625193209.0,32.000000
-56,-5,36,1625193209.0,32.000000
-55,-4,35,1625193209.0,32.000000
-57,-5,34,1625193209.0,32.000000
-57,-5,34,1625193209.0,32.000000
-56,-5,35,1625193209.0,32.000000
-56,-4,36,1625193209.0,32.000000
-55,-4,36,1625193209.0,32.000000
-56,-6,35,1625193209.0,32.000000
-54,-4,36,1625193209.0,32.000000
-57,-5,34,1625193209.0,32.000000
-55,-5,35,1625193209.0,32.000000
-59,-5,35,1625193209.0,32.000000
-53,-3,36,1625193209.0,32.000000
-56,-6,36,1625193209.0,32.000000
-55,-6,36,1625193209.0,32.000000
-57,-5,35,1625193209.0,32.000000
-57,-4,34,1625193209.0,32.000000
-57,-5,34,1625193209.0,32.000000
-56,-5,36,1625193209.0,32.000000
-55,-5,36,1625193209.0,32.000000
-56,-5,36,1625193209.0,32.000000
-57,-5,35,1625193209.0,32.000000
-57,-5,35,1625193209.0,32.000000
-56,-5,35,1625193209.0,32.000000
-55,-5,36,1625193209.0,32.000000
-55,-5,36,1625193209.0,32.000000
-57,-5,35,1625193209.0,32.000000
-57,-6,34,1625193209.0,32.000000
-57,-6,35,1625193209.0,32.000000
-59,-4,34,1625193209.0,32.000000
-56,-5,36,1625193209.0,32.000000
-57,-6,34,1625193209.0,32.000000
-60,-4,32,1625193209.0,32.000000
-54,-5,35,1625193209.0,32.000000
-55,-7,35,1625193209.0,32.000000
-55,-6,35,1625193209.0,32.000000
-56,-6,35,1625193209.0,32.000000
-57,-5,35,1625193209.0,32.000000
-55,-4,37,1625193209.0,32.000000
-56,-5,35,1625193209.0,32.000000
-56,-6,34,1625193209.0,32.000000
-56,-6,35,1625193209.0,32.000000
-56,-5,36,1625193209.0,32.000000
-56,-5,35,1625193209.0,32.000000
-57,-5,35,1625193209.0,32.000000
-56,-5,35,1625193209.0,32.000000
-56,-6,35,1625193209.0,32.000000
-56,-6,35,1625193209.0,32.000000
-56,-5,35,1625193209.0,32.000000
-57,-6,35,1625193209.0,32.000000
-56,-5,35,1625193209.0,32.000000
-56,-5,35,1625193209.0,32.000000
-57,-6,35,1625193209.0,32.000000
-56,-5,35,1625193209.0,32.000000
-56,-5,35,1625193209.0,32.000000
-56,-6,34,1625193209.0,32.000000
-57,-6,34,1625193209.0,32.000000
-56,-6,35,1625193209.0,32.000000
-56,-6,35,1625193209.0,32.000000
-56,-6,35,1625193209.0,32.000000
-56,-6,35,1625193209.0,32.000000
-57,-6,35,1625193209.0,32.000000
-57,-6,35,1625193209.0,32.000000
-57,-6,35,1625193209.0,32.000000
-56,-6,35,1625193209.0,32.000000
-56,-6,35,1625193209.0,32.000000
-57,-6,35,1625193209.0,32.000000
-57,-6,34,1625193209.0,32.000000
-56,-6,35,1625193209.0,32.000000
-56,-5,35,1625193209.0,32.000000
-56,-5,34,1625193209.0,32.000000
-57,-6,35,1625193209.0,32.000000
-56,-6,35,1625193209.0,32.000000
-56,-6,35,1625193209.0,32.000000
-56,-6,34,1625193209.0,32.000000
-56,-6,35,1625193209.0,32.000000
-56,-6,35,1625193209.0,32.000000
-56,-6,35,1625193209.0,32.000000
-56,-6,35,1625193209.0,32.000000
-56,-6,34,1625193209.0,32.000000
-56,-5,34,1625193209.0,32.000000
-57,-6,35,1625193209.0,32.000000
-57,-6,35,1625193209.0,32.000000
-57,-6,35,1625193209.0,32.000000
-57,-6,34,1625193209.0,32.000000
-56,-6,35,1625193209.0,32.000000
-56,-6,35,1625193209.0,32.000000
-56,-6,35,1625193209.0,32.000000
-56,-6,34,1625193209.0,32.000000
-56,-6,34,1625193209.0,32.000000
-56,-5,35,1625193209.0,32.000000
-57,-6,35,1625193209.0,32.000000
-56,-6,35,1625193209.0,32.000000
-56,-6,35,1625193209.0,32.000000
-56,-5,34,1625193209.0,32.000000
-57,-6,35,1625193209.0,32.000000
-56,-5,35,1625193209.0,32.000000
-56,-6,35,1625193209.0,32.000000
-56,-6,35,1625193209.0,32.000000
-57,-6,35,1625193209.0,32.000000
-56,-6,35,1625193209.0,32.000000
-56,-6,34,1625193209.0,32.000000
-56,-6,35,1625193209.0,32.000000
-56,-6,35,1625193209.0,32.000000
-56,-5,35,1625193209.0,32.000000
-56,-6,34,1625193209.0,32.000000
-56,-6,35,1625193209.0,32.000000
-57,-6,35,1625193209.0,32.000000
-56,-6,35,1625193209.0,32.000000
-57,-6,34,1625193209.0,32.000000
-57,-6,34,1625193209.0,32.000000
-57,-6,34,1625193209.0,32.000000
-56,-6,35,1625193209.0,32.000000
-56,-6,35,1625193209.0,32.000000
-56,-6,35,1625193209.0,32.000000
-56,-6,35,1625193209.0,32.000000
-56,-6,35,1625193209.0,32.000000
-56,-6,35,1625193209.0,32.000000
-56,-6,34,1625193209.0,32.000000
-57,-6,35,1625193209.0,32.000000
-56,-6,35,1625193209.0,32.000000
-56,-6,35,1625193209.0,32.000000
-56,-6,34,1625193209.0,32.000000
-57,-5,35,1625193209.0,32.000000
-57,-6,35,1625193209.0,32.000000
-57,-6,35,1625193209.0,32.000000
-56,-6,34,1625193209.0,32.000000
-56,-5,34,1625193209.0,32.000000
-56,-5,35,1625193209.0,32.000000
-56,-6,35,1625193209.0,32.000000
-56,-6,35,1625193209.0,32.000000
-56,-6,35,1625193209.0,32.000000
-57,-6,34,1625193209.0,32.000000
-57,-6,34,1625193209.0,32.000000
-56,-6,35,1625193209.0,32.000000
-56,-6,35,1625193209.0,32.000000
-56,-6,35,1625193209.0,32.000000
-56,-6,35,1625193209.0,32.000000
-56,-6,35,1625193209.0,32.000000
-56,-6,34,1625193209.0,32.000000
-57,-6,35,1625193209.0,32.000000
-56,-6,35,1625193209.0,32.000000
-57,-5,35,1625193209.0,32.000000
-56,-6,35,1625193209.0,32.000000
-56,-6,35,1625193209.0,32.000000
-56,-6,35,1625193209.0,32.000000
-56,-6,35,1625193209.0,32.000000
-57,-6,35,1625193209.0,32.000000
-56,-6,35,1625193209.0,32.000000
-56,-6,35,1625193209.0,32.000000
-56,-5,35,1625193209.0,32.000000
-57,-6,34,1625193209.0,32.000000
-58,-6,34,1625193209.0,32.000000
-55,-5,38,1625193209.0,32.000000
-56,-5,34,1625193209.0,32.000000
-56,-6,33,1625193209.0,32.000000
-58,-6,33,1625193209.0,32.000000
-57,-5,34,1625193209.0,32.000000
-56,-5,35,1625193209.0,32.000000
-56,-6,36,1625193209.0,32.000000
-57,-6,34,1625193209.0,32.000000
-57,-5,34,1625193209.0,32.000000
-57,-6,34,1625193209.0,32.000000
-57,-6,34,1625193209.0,32.000000
-56,-5,34,1625193209.0,32.000000
-56,-6,35,1625193209.0,32.000000
-56,-5,34,1625193209.0,32.000000
-55,-1,36,1625193209.0,32.000000
-64,-12,33,1625193209.0,32.000000
-54,-4,35,1625193209.0,32.000000
-56,-4,35,1625193209.0,32.000000
-55,-5,35,1625193209.0,32.000000
-58,-6,34,1625193209.0,32.000000
-56,-5,34,1625193209.0,32.000000
-57,-6,35,1625193209.0,32.000000
-56,-5,35,1625193209.0,32.000000
-58,-6,34,1625193209.0,32.000000
-57,-5,35,1625193209.0,32.000000
-56,-5,35,1625193209.0,32.000000
-56,-6,35,1625193209.0,32.000000
-56,-6,35,1625193209.0,32.000000
-57,-5,34,1625193209.0,32.000000
-57,-5,34,1625193209.0,32.000000
-57,-5,35,1625193209.0,32.000000
-56,-5,35,1625193209.0,32.000000
-56,-5,35,1625193209.0,32.000000
-56,-6,35,1625193209.0,32.000000
-56,-5,34,1625193209.0,32.000000
-57,-6,35,1625193209.0,32.000000
-56,-5,34,1625193209.0,32.000000
-56,-5,35,1625193209.0,32.000000
-56,-6,34,1625193209.0,32.000000
-57,-5,35,1625193209.0,32.000000
-56,-5,35,1625193209.0,32.000000
-57,-6,35,1625193209.0,32.000000
-57,-5,34,1625193209.0,32.000000
-56,-5,35,1625193209.0,32.000000
-56,-5,35,1625193209.0,32.000000
-56,-6,34,1625193209.0,32.000000
-56,-6,34,1625193209.0,32.000000
-56,-6,34,1625193209.0,32.000000
-57,-6,35,1625193209.0,32.000000
-56,-5,35,1625193209.0,32.000000
-57,-6,34,1625193209.0,32.000000
-57,-6,35,1625193209.0,32.000000
-56,-5,35,1625193209.0,32.000000
-56,-5,35,1625193209.0,32.000000
-57,-5,35,1625193209.0,32.000000
-56,-5,35,1625193209.0,32.000000
-57,-5,35,1625193209.0,32.000000
-56,-5,35,1625193209.0,32.000000
-56,-6,35,1625193209.0,32.000000
-56,-6,34,1625193209.0,32.000000
-57,-6,34,1625193209.0,32.000000
-56,-6,35,1625193209.0,32.000000
-56,-6,34,1625193209.0,32.000000
-57,-6,35,1625193209.0,32.000000
-56,-5,35,1625193209.0,32.000000
-57,-5,35,1625193209.0,32.000000
-56,-6,35,1625193209.0,32.000000
-56,-6,35,1625193209.0,32.000000
-56,-5,34,1625193209.0,32.000000
-57,-5,34,1625193209.0,32.000000
-56,-6,35,1625193209.0,32.000000
-56,-6,35,1625193209.0,32.000000
-56,-6,35,1625193209.0,32.000000
-57,-6,34,1625193209.0,32.000000
-56,-5,34,1625193209.0,32.000000
-56,-5,35,1625193209.0,32.000000
-57,-5,34,1625193209.0,32.000000
-57,-6,35,1625193209.0,32.000000
-56,-6,35,1625193209.0,32.000000
-56,-6,34,1625193209.0,32.000000
-56,-5,35,1625193209.0,32.000000
-57,-5,35,1625193209.0,32.000000
-56,-5,35,1625193209.0,32.000000
-56,-6,35,1625193209.0,32.000000
-56,-5,35,1625193209.0,32.000000
-56,-5,35,1625193209.0,32.000000
-57,-6,35,1625193209.0,32.000000
-56,-5,35,1625193209.0,32.000000
-56,-5,35,1625193209.0,32.000000
-57,-5,35,1625193209.0,32.000000
-56,-6,34,1625193209.0,32.000000
-57,-6,35,1625193209.0,32.000000
-56,-5,35,1625193209.0,32.000000
-57,-6,34,1625193209.0,32.000000
-56,-5,35,1625193209.0,32.000000
-57,-5,35,1625193209.0,32.000000
-56,-6,34,1625193209.0,32.000000
-57,-6,35,1625193209.0,32.000000
-56,-6,35,1625193209.0,32.000000
-56,-6,35,1625193209.0,32.000000
-56,-6,35,1625193209.0,32.000000
-56,-5,35,1625193209.0,32.000000
-57,-6,35,1625193209.0,32.000000
-56,-6,35,1625193209.0,32.000000
-56,-6,35,1625193209.0,32.000000
-56,-5,35,1625193209.0,32.000000
-56,-5,35,1625193209.0,32.000000
-56,-5,35,1625193209.0,32.000000
-56,-5,34,1625193209.0,32.000000
-57,-6,35,1625193209.0,32.000000
-56,-5,34,1625193209.0,32.000000
-57,-6,35,1625193209.0,32.000000
-56,-5,35,1625193209.0,32.000000
-56,-6,34,1625193209.0,32.000000
-57,-6,35,1625193209.0,32.000000
-56,-5,34,1625193209.0,32.000000
-56,-5,35,1625193209.0,32.000000
-56,-6,35,1625193209.0,32.000000
-57,-5,35,1625193209.0,32.000000
-56,-6,35,1625193209.0,32.000000
-56,-6,35,1625193209.0,32.000000
-57,-6,34,1625193209.0,32.000000
-57,-5,35,1625193209.0,32.000000
-56,-5,35,1625193209.0,32.000000
-56,-5,35,1625193209.0,32.000000
-56,-6,35,1625193209.0,32.000000
-56,-6,34,1625193209.0,32.000000
-57,-5,35,1625193209.0,32.000000
-56,-5,35,1625193209.0,32.000000
-56,-6,35,1625193209.0,32.000000
-56,-5,35,1625193209.0,32.000000
-57,-5,35,1625193209.0,32.000000
-57,-6,34,1625193209.0,32.000000
-56,-5,35,1625193209.0,32.000000
-56,-5,35,1625193209.0,32.000000
-57,-5,35,1625193209.0,32.000000
-56,-5,35,1625193209.0,32.000000
-56,-6,35,1625193209.0,32.000000
-56,-5,35,1625193209.0,32.000000
-56,-6,35,1625193209.0,32.000000
-56,-5,35,1625193209.0,32.000000
-57,-5,35,1625193209.0,32.000000
-56,-5,35,1625193209.0,32.000000
-57,-5,35,1625193209.0,32.000000
-56,-6,35,1625193209.0,32.000000
-56,-5,34,1625193209.0,32.000000
-56,-5,35,1625193209.0,32.000000
-56,-6,35,1625193209.0,32.000000
-56,-5,35,1625193209.0,32.000000
-57,-6,34,1625193209.0,32.000000
-56,-5,35,1625193209.0,32.000000
-56,-5,35,1625193209.0,32.000000
-56,-5,35,1625193209.0,32.000000
-56,-6,35,1625193209.0,32.000000
-56,-6,35,1625193209.0,32.000000
-56,-6,35,1625193209.0,32.000000
-56,-5,35,1625193209.0,32.000000
-57,-5,34,1625193209.0,32.000000
-56,-5,35,1625193209.0,32.000000
-56,-5,35,1625193209.0,32.000000
-57,-5,34,1625193209.0,32.000000
-57,-5,34,1625193209.0,32.000000
-58,-5,33,1625193209.0,32.000000
-57,-6,38,1625193209.0,32.000000
-54,-6,35,1625193209.0,32.000000
-56,-7,35,1625193209.0,32.000000
-55,-6,34,1625193209.0,32.000000
-56,-6,37,1625193209.0,32.000000
-54,-6,38,1625193209.0,32.000000
-57,-7,33,1625193209.0,32.000000
-55,-7,39,1625193209.0,32.000000
-54,-7,41,1625193209.0,32.000000
-50,-7,38,1625193209.0,32.000000
-54,-7,32,1625193209.0,32.000000
-59,-8,30,1625193209.0,32.000000
-55,-5,37,1625193209.0,32.000000
-55,-4,41,1625193209.0,32.000000
-54,-5,38,1625193209.0,32.000000
-55,-6,36,1625193209.0,32.000000
-57,-7,33,1625193209.0,32.000000
-57,-7,35,1625193209.0,32.000000
-57,-6,36,1625193209.0,32.000000
-55,-7,35,1625193209.0,32.000000
-55,-7,35,1625193209.0,32.000000
-55,-7,35,1625193209.0,32.000000
-56,-6,35,1625193209.0,32.000000
-57,-6,35,1625193209.0,32.000000
-57,-5,35,1625193209.0,32.000000
-57,-5,35,1625193209.0,32.000000
-56,-6,35,1625193209.0,32.000000
-56,-6,35,1625193209.0,32.000000
-56,-6,34,1625193209.0,32.000000
-56,-6,35,1625193209.0,32.000000
-56,-6,35,1625193209.0,32.000000
-56,-6,35,1625193209.0,32.000000
-56,-6,35,1625193209.0,32.000000
-56,-6,35,1625193209.0,32.000000
-57,-6,34,1625193209.0,32.000000
-57,-6,34,1625193209.0,32.000000
-57,-6,34,1625193209.0,32.000000
-57,-6,35,1625193209.0,32.000000
-56,-6,35,1625193209.0,32.000000
-54,-5,34,1625193209.0,32.000000
-56,-5,34,1625193209.0,32.000000
-56,-5,34,1625193209.0,32.000000
-56,-7,35,1625193209.0,32.000000
-55,-7,35,1625193209.0,32.000000
-55,-7,34,1625193209.0,32.000000
-55,-6,34,1625193209.0,32.000000
-57,-6,33,1625193209.0,32.000000
-57,-6,33,1625193209.0,32.000000
-57,-5,34,1625193209.0,32.000000
-56,-4,33,1625193209.0,32.000000
-57,-5,33,1625193209.0,32.000000
-58,-5,33,1625193209.0,32.000000
-57,-5,33,1625193209.0,32.000000
-59,-5,33,1625193209.0,32.000000
-58,-5,33,1625193209.0,32.000000
-58,-5,33,1625193209.0,32.000000
-58,-5,33,1625193209.0,32.000000
-58,-5,33,1625193209.0,32.000000
-57,-5,33,1625193209.0,32.000000
-58,-5,33,1625193209.0,32.000000
-57,-5,33,1625193209.0,32.000000
-58,-5,33,1625193209.0,32.000000
-57,-5,33,1625193209.0,32.000000
-57,-5,33,1625193209.0,32.000000
-57,-5,33,1625193209.0,32.000000
-57,-5,33,1625193209.0,32.000000
-58,-6,33,1625193209.0,32.000000
-57,-6,33,1625193209.0,32.000000
-57,-6,33,1625193209.0,32.000000
-57,-6,33,1625193209.0,32.000000
-56,-5,34,1625193209.0,32.000000
-58,-5,33,1625193209.0,32.000000
-58,-6,33,1625193209.0,32.000000
-57,-5,33,1625193209.0,32.000000
-57,-5,33,1625193209.0,32.000000
-57,-6,33,1625193209.0,32.000000
-57,-6,33,1625193209.0,32.000000
-57,-6,33,1625193209.0,32.000000
-62,-2,36,1625193209.0,32.000000
-60,-11,32,1625193209.0,32.000000
-57,-7,33,1625193209.0,32.000000
-57,-5,34,1625193209.0,32.000000
-56,-6,34,1625193209.0,32.000000
-58,-6,33,1625193209.0,32.000000
-57,-6,34,1625193209.0,32.000000
-57,-6,34,1625193209.0,32.000000
-57,-5,33,1625193209.0,32.000000
-59,-6,33,1625193209.0,32.000000
-56,-5,33,1625193209.0,32.000000
-57,-6,33,1625193209.0,32.000000
-57,-5,34,1625193209.0,32.000000
-58,-5,33,1625193209.0,32.000000
-58,-5,33,1625193209.0,32.000000
-57,-6,33,1625193209.0,32.000000
-57,-6,33,1625193209.0,32.000000
-57,-6,33,1625193209.0,32.000000
-57,-5,33,1625193209.0,32.000000
-58,-6,33,1625193209.0,32.000000
-57,-6,33,1625193209.0,32.000000
-57,-6,33,1625193209.0,32.000000
-57,-6,33,1625193209.0,32.000000
-58,-6,33,1625193209.0,32.000000
-57,-6,33,1625193209.0,32.000000
-57,-6,33,1625193209.0,32.000000
-58,-6,33,1625193209.0,32.000000
-57,-5,34,1625193209.0,32.000000
-57,-6,33,1625193209.0,32.000000
-57,-6,33,1625193209.0,32.000000
-57,-6,33,1625193209.0,32.000000
-57,-6,33,1625193209.0,32.000000
-57,-6,33,1625193209.0,32.000000
-57,-5,33,1625193209.0,32.000000
-58,-6,33,1625193209.0,32.000000
-57,-6,33,1625193209.0,32.000000
-57,-6,33,1625193209.0,32.000000
-58,-5,33,1625193209.0,32.000000
-58,-6,33,1625193209.0,32.000000
-57,-6,33,1625193209.0,32.000000
-57,-6,33,1625193209.0,32.000000
-57,-6,33,1625193209.0,32.000000
-57,-6,33,1625193209.0,32.000000
-57,-6,33,1625193209.0,32.000000
-57,-6,33,1625193209.0,32.000000
-57,-6,33,1625193209.0,32.000000
-57,-6,33,1625193209.0,32.000000
-58,-5,33,1625193209.0,32.000000
-59,-5,33,1625193209.0,32.000000
-58,-5,32,1625193209.0,32.000000
-58,-5,32,1625193209.0,32.000000
-58,-5,33,1625193209.0,32.000000
-57,-5,32,1625193209.0,32.000000
-58,-6,32,1625193209.0,32.000000
-58,-6,33,1625193209.0,32.000000
-57,-5,32,1625193209.0,32.000000
-57,-5,33,1625193209.0,32.000000
-58,-5,33,1625193209.0,32.000000
-57,-5,33,1625193209.0,32.000000
-59,-5,33,1625193209.0,32.000000
-58,-5,32,1625193209.0,32.000000
-59,-5,33,1625193209.0,32.000000
-56,-5,33,1625193209.0,32.000000
-56,-5,33,1625193209.0,32.000000
-57,-6,33,1625193209.0,32.000000
-58,-6,32,1625193209.0,32.000000
-58,-6,32,1625193209.0,32.000000
-60,-5,31,1625193209.0,32.000000
-59,-5,36,1625193209.0,32.000000
-55,-4,36,1625193209.0,32.000000
-60,-5,35,1625193209.0,32.000000
-62,-3,40,1625193209.0,32.000000
-58,-4,42,1625193209.0,32.000000
-60,-4,42,1625193209.0,32.000000
-62,-2,42,1625193209.0,32.000000
-61,-3,40,1625193209.0,32.000000
-43,-18,31,1625193209.0,32.000000
-46,-24,30,1625193209.0,32.000000
-51,-19,31,1625193209.0,32.000000
-47,-27,33,1625193209.0,32.000000
-46,-25,33,1625193209.0,32.000000
-44,-30,32,1625193209.0,32.000000
-42,-28,37,1625193209.0,32.000000
-41,-26,38,1625193209.0,32.000000
-42,-24,40,1625193209.0,32.000000
-41,-23,39,1625193209.0,32.000000
-37,-20,40,1625193209.0,32.000000
-45,-16,44,1625193209.0,32.000000
-45,-17,44,1625193209.0,32.000000
-48,-11,46,1625193209.0,32.000000
-47,-10,48,1625193209.0,32.000000
-53,-10,46,1625193209.0,32.000000
-51,-8,43,1625193209.0,32.000000
-55,-8,41,1625193209.0,32.000000
-56,-7,38,1625193209.0,32.000000
-62,-6,36,1625193209.0,32.000000
-56,-8,36,1625193209.0,32.000000
-59,-10,34,1625193209.0,32.000000
-60,-9,33,1625193209.0,32.000000
-57,-9,35,1625193209.0,32.000000
-57,-8,35,1625193209.0,32.000000
-55,-8,37,1625193209.0,32.000000
-53,-9,37,1625193209.0,32.000000
-52,-8,38,1625193209.0,32.000000
-53,-10,39,1625193209.0,32.000000
-52,-9,39,1625193209.0,32.000000
-52,-9,38,1625193209.0,32.000000
-54,-9,38,1625193209.0,32.000000
-53,-9,38,1625193209.0,32.000000
-54,-9,37,1625193209.0,32.000000
-53,-9,38,1625193209.0,32.000000
-53,-9,38,1625193209.0,32.000000
-54,-9,38,1625193209.0,32.000000
-53,-9,39,1625193209.0,32.000000
-54,-8,39,1625193209.0,32.000000
-54,-9,39,1625193209.0,32.000000
-55,-8,40,1625193209.0,32.000000
-57,-7,39,1625193209.0,32.000000
-60,-5,39,1625193209.0,32.000000
-66,-6,37,1625193209.0,32.000000
-65,-10,37,1625193209.0,32.000000
-56,-16,34,1625193209.0,32.000000
-48,-13,33,1625193209.0,32.000000
-48,-18,31,1625193209.0,32.000000
-43,-18,30,1625193209.0,32.000000
-43,-21,32,1625193209.0,32.000000
-43,-21,36,1625193209.0,32.000000
-41,-24,37,1625193209.0,32.000000
-34,-24,37,1625193209.0,32.000000
-34,-26,37,1625193209.0,32.000000
-32,-25,43,1625193209.0,32.000000
-40,-22,55,1625193209.0,32.000000
-40,-22,53,1625193209.0,32.000000
-36,-19,54,1625193209.0,32.000000
-36,-16,58,1625193209.0,32.000000
-33,-18,56,1625193209.0,32.000000
-33,-19,55,1625193209.0,32.000000
-30,-22,55,1625193209.0,32.000000
-34,-19,56,1625193209.0,32.000000
-27,-21,51,1625193209.0,32.000000
-27,-24,49,1625193209.0,32.000000
-20,-20,56,1625193209.0,32.000000
-20,-20,51,1625193209.0,32.000000
-28,-20,62,1625193209.0,32.000000
-19,-12,75,1625193209.0,32.000000
-32,-18,61,1625193209.0,32.000000
-21,-13,54,1625193209.0,32.000000
-23,-10,65,1625193209.0,32.000000
-21,-23,62,1625193209.0,32.000000
-26,-32,65,1625193209.0,32.000000
-30,-33,63,1625193209.0,32.000000
-26,-33,63,1625193209.0,32.000000
-28,-35,57,1625193209.0,32.000000
-39,-35,47,1625193209.0,32.000000
-38,-39,48,1625193209.0,32.000000
-33,-39,63,1625193209.0,32.000000
-40,-55,49,1625193209.0,32.000000
-31,-54,40,1625193209.0,32.000000
-63,-34,42,1625193209.0,32.000000
-78,-36,45,1625193209.0,32.000000
-27,-18,46,1625193209.0,32.000000
6,-10,37,1625193209.0,32.000000
5,-5,32,1625193209.0,32.000000
-7,1,28,1625193209.0,32.000000
-16,7,32,1625193209.0,32.000000
-6,11,49,1625193209.0,32.000000
-20,9,46,1625193209.0,32.000000
-3,8,50,1625193209.0,32.000000
-25,10,77,1625193209.0,32.000000
-31,12,81,1625193209.0,32.000000
-18,8,78,1625193209.0,32.000000
-30,9,79,1625193209.0,32.000000
-30,12,83,1625193209.0,32.000000
-25,5,70,1625193209.0,32.000000
-21,3,63,1625193209.0,32.000000
-21,5,59,1625193209.0,32.000000
-16,-4,66,1625193209.0,32.000000
-16,-2,74,1625193209.0,32.000000
-19,4,66,1625193209.0,32.000000
-17,4,64,1625193209.0,32.000000
-22,0,58,1625193209.0,32.000000
-23,-3,61,1625193209.0,32.000000
-26,-4,59,1625193209.0,32.000000
-30,-4,59,1625193209.0,32.000000
-27,-3,59,1625193209.0,32.000000
-23,-1,61,1625193209.0,32.000000
-23,0,61,1625193209.0,32.000000
-23,0,61,1625193209.0,32.000000
-24,1,61,1625193209.0,32.000000
-24,1,60,1625193209.0,32.000000
-25,-1,61,1625193209.0,32.000000
-27,-1,60,1625193209.0,32.000000
-26,-1,60,1625193209.0,32.000000
-25,0,60,1625193209.0,32.000000
-24,0,61,1625193209.0,32.000000
-25,1,61,1625193209.0,32.000000
-25,1,61,1625193209.0,32.000000
-25,0,61,1625193209.0,32.000000
-26,0,60,1625193209.0,32.000000
-25,0,60,1625193209.0,32.000000
-25,1,60,1625193209.0,32.000000
-25,0,61,1625193209.0,32.000000
-24,0,61,1625193209.0,32.000000
-25,1,60,1625193209.0,32.000000
-25,0,60,1625193209.0,32.000000
-25,0,60,1625193209.0,32.000000
-25,1,60,1625193209.0,32.000000
-25,1,61,1625193209.0,32.000000
-25,0,61,1625193209.0,32.000000
-25,0,61,1625193209.0,32.000000
-25,0,61,1625193209.0,32.000000
-25,0,61,1625193209.0,32.000000
-25,1,60,1625193209.0,32.000000
-24,1,61,1625193209.0,32.000000
-25,0,60,1625193209.0,32.000000
-25,0,61,1625193209.0,32.000000
-25,0,60,1625193209.0,32.000000
-25,0,61,1625193209.0,32.000000
-24,1,60,1625193209.0,32.000000
-24,0,60,1625193209.0,32.000000
-25,1,61,1625193209.0,32.000000
-25,0,60,1625193209.0,32.000000
-24,1,61,1625193209.0,32.000000
-25,0,60,1625193209.0,32.000000
-25,0,61,1625193209.0,32.000000
-25,0,60,1625193209.0,32.000000
-24,0,61,1625193209.0,32.000000
-25,1,61,1625193209.0,32.000000
-25,1,61,1625193209.0,32.000000
-25,0,60,1625193209.0,32.000000
-25,0,60,1625193209.0,32.000000
-26,0,61,1625193209.0,32.000000
-24,1,61,1625193209.0,32.000000
-25,1,61,1625193209.0,32.000000
-25,0,60,1625193209.0,32.000000
-25,0,60,1625193209.0,32.000000
-25,0,61,1625193209.0,32.000000
-25,0,60,1625193209.0,32.000000
-25,1,61,1625193209.0,32.000000
-25,0,60,1625193209.0,32.000000
-26,1,60,1625193209.0,32.000000
-25,0,59,1625193209.0,32.000000
-26,1,62,1625193209.0,32.000000
-25,1,60,1625193209.0,32.000000
-24,1,61,1625193209.0,32.000000
-26,0,59,1625193209.0,32.000000
-25,0,60,1625193209.0,32.000000
-24,0,61,1625193209.0,32.000000
-26,1,61,1625193209.0,32.000000
-25,0,60,1625193209.0,32.000000
-25,1,61,1625193209.0,32.000000
-26,0,61,1625193209.0,32.000000
-24,0,59,1625193209.0,32.000000
-24,1,61,1625193209.0,32.000000
-26,0,59,1625193209.0,32.000000
-25,1,61,1625193209.0,32.000000
-25,0,60,1625193209.0,32.000000
-25,0,60,1625193209.0,32.000000
-26,1,60,1625193209.0,32.000000
-26,1,60,1625193209.0,32.000000
-25,0,60,1625193209.0,32.000000
-25,1,60,1625193209.0,32.000000
-26,1,60,1625193209.0,32.000000
-26,1,60,1625193209.0,32.000000
-26,1,61,1625193209.0,32.000000
-26,0,60,1625193209.0,32.000000
-26,1,61,1625193209.0,32.000000
-25,1,60,1625193209.0,32.000000
-25,1,60,1625193209.0,32.000000
-26,0,60,1625193209.0,32.000000
-25,0,61,1625193209.0,32.000000
-25,0,60,1625193209.0,32.000000
-26,1,61,1625193209.0,32.000000
-26,0,60,1625193209.0,32.000000
-25,1,60,1625193209.0,32.000000
-26,0,60,1625193209.0,32.000000
-27,0,60,1625193209.0,32.000000
-25,0,61,1625193209.0,32.000000
-25,1,60,1625193209.0,32.000000
-26,1,60,1625193209.0,32.000000
-25,1,60,1625193209.0,32.000000
-25,0,60,1625193209.0,32.000000
-26,0,60,1625193209.0,32.000000
-26,0,60,1625193209.0,32.000000
-25,1,61,1625193209.0,32.000000
-25,0,60,1625193209.0,32.000000
-25,1,60,1625193209.0,32.000000
-26,1,60,1625193209.0,32.000000
-26,0,60,1625193209.0,32.000000
-25,0,60,1625193209.0,32.000000
-26,1,60,1625193209.0,32.000000
-26,1,60,1625193209.0,32.000000
-25,1,60,1625193209.0,32.000000
-25,1,61,1625193209.0,32.000000
-25,0,60,1625193209.0,32.000000
-25,0,60,1625193209.0,32.000000
-26,0,60,1625193209.0,32.000000
-25,0,60,1625193209.0,32.000000
-25,0,61,1625193209.0,32.000000
-26,0,60,1625193209.0,32.000000
-26,1,60,1625193209.0,32.000000
-25,0,60,1625193209.0,32.000000
-25,0,60,1625193209.0,32.000000
-25,0,60,1625193209.0,32.000000
-26,1,60,1625193209.0,32.000000
-25,0,60,1625193209.0,32.000000
-25,1,60,1625193209.0,32.000000
-25,1,61,1625193209.0,32.000000
-25,0,60,1625193209.0,32.000000
-25,0,60,1625193209.0,32.000000
-26,0,60,1625193209.0,32.000000
-26,1,60,1625193209.0,32.000000
-25,0,60,1625193209.0,32.000000
-25,0,61,1625193209.0,32.000000
-26,0,60,1625193209.0,32.000000
-26,1,60,1625193209.0,32.000000
-25,1,61,1625193209.0,32.000000
-25,0,60,1625193209.0,32.000000
-25,1,60,1625193209.0,32.000000
-25,1,61,1625193209.0,32.000000
-25,0,61,1625193209.0,32.000000
-25,0,60,1625193209.0,32.000000
-25,1,60,1625193209.0,32.000000
-25,0,60,1625193209.0,32.000000
-25,0,61,1625193209.0,32.000000
-25,0,61,1625193209.0,32.000000
-25,0,61,1625193209.0,32.000000
-25,1,60,1625193209.0,32.000000
-25,0,61,1625193209.0,32.000000
-25,0,61,1625193209.0,32.000000
-25,0,60,1625193209.0,32.000000
-25,1,61,1625193209.0,32.000000
-25,0,60,1625193209.0,32.000000
-25,0,60,1625193209.0,32.000000
-25,1,61,1625193209.0,32.000000
-25,0,61,1625193209.0,32.000000
-25,0,60,1625193209.0,32.000000
-25,1,61,1625193209.0,32.000000
-25,0,60,1625193209.0,32.000000
-25,1,61,1625193209.0,32.000000
-25,0,61,1625193209.0,32.000000
-25,1,60,1625193209.0,32.000000
-25,1,60,1625193209.0,32.000000
-25,0,61,1625193209.0,32.000000
-25,0,60,1625193209.0,32.000000
-25,0,61,1625193209.0,32.000000
-25,1,61,1625193209.0,32.000000
-25,1,60,1625193209.0,32.000000
-25,1,61,1625193209.0,32.000000
-25,1,60,1625193209.0,32.000000
-25,0,61,1625193209.0,32.000000
-25,0,60,1625193209.0,32.000000
-25,1,60,1625193209.0,32.000000
-25,1,61,1625193209.0,32.000000
-25,1,61,1625193209.0,32.000000
-25,0,61,1625193209.0,32.000000
-25,0,60,1625193209.0,32.000000
-25,1,60,1625193209.0,32.000000
-25,1,61,1625193209.0,32.000000
-25,0,60,1625193209.0,32.000000
-25,1,60,1625193209.0,32.000000
-25,0,61,1625193209.0,32.000000
-25,1,61,1625193209.0,32.000000
-25,0,60,1625193209.0,32.000000
-25,1,61,1625193209.0,32.000000
-25,0,60,1625193209.0,32.000000
-25,0,61,1625193209.0,32.000000
-25,1,60,1625193209.0,32.000000
-26,1,62,1625193209.0,32.000000
-26,0,60,1625193209.0,32.000000
-25,1,61,1625193209.0,32.000000
-26,0,59,1625193209.0,32.000000
-25,1,61,1625193209.0,32.000000
-24,0,60,1625193209.0,32.000000
-25,1,59,1625193209.0,32.000000
-27,1,60,1625193209.0,32.000000
-25,0,61,1625193209.0,32.000000
-26,1,61,1625193209.0,32.000000
-26,1,60,1625193209.0,32.000000
-25,1,61,1625193209.0,32.000000
-26,0,60,1625193209.0,32.000000
-26,0,60,1625193209.0,32.000000
-25,0,60,1625193209.0,32.000000
-25,1,61,1625193209.0,32.000000
-26,1,60,1625193209.0,32.000000
-25,0,60,1625193209.0,32.000000
-26,1,60,1625193209.0,32.000000
-26,0,60,1625193209.0,32.000000
-25,0,61,1625193209.0,32.000000
-25,0,60,1625193209.0,32.000000
-26,1,60,1625193209.0,32.000000
-25,0,60,1625193209.0,32.000000
-25,0,60,1625193209.0,32.000000
-25,0,60,1625193209.0,32.000000
-26,1,61,1625193209.0,32.000000
-25,0,59,1625193209.0,32.000000
-26,1,60,1625193209.0,32.000000
-25,0,60,1625193209.0,32.000000
-25,0,60,1625193209.0,32.000000
-26,0,60,1625193209.0,32.000000
-26,0,60,1625193209.0,32.000000
-25,1,60,1625193209.0,32.000000
-25,1,61,1625193209.0,32.000000
-26,0,60,1625193209.0,32.000000
-25,0,61,1625193209.0,32.000000
-25,0,60,1625193209.0,32.000000
-26,0,61,1625193209.0,32.000000
-25,1,60,1625193209.0,32.000000
-25,1,60,1625193209.0,32.000000
-25,0,60,1625193209.0,32.000000
-25,0,60,1625193209.0,32.000000
-25,0,60,1625193209.0,32.000000
-25,0,61,1625193209.0,32.000000
-25,1,60,1625193209.0,32.000000
-25,1,61,1625193209.0,32.000000
-25,0,60,1625193209.0,32.000000
-25,0,61,1625193209.0,32.000000
-26,0,60,1625193209.0,32.000000
-25,1,61,1625193209.0,32.000000
-25,1,61,1625193209.0,32.000000
-25,1,60,1625193209.0,32.000000
-25,0,61,1625193209.0,32.000000
-25,0,60,1625193209.0,32.000000
-25,1,61,1625193209.0,32.000000
-25,0,61,1625193209.0,32.000000
-25,0,60,1625193209.0,32.000000
-25,1,61,1625193209.0,32.000000
-25,0,59,1625193209.0,32.000000
-25,1,61,1625193209.0,32.000000
-26,1,60,1625193209.0,32.000000
-25,0,61,1625193209.0,32.000000
-25,1,61,1625193209.0,32.000000
-25,0,60,1625193209.0,32.000000
-25,0,60,1625193209.0,32.000000
-25,0,60,1625193209.0,32.000000
-25,0,61,1625193209.0,32.000000
-25,0,60,1625193209.0,32.000000
-24,1,60,1625193209.0,32.000000
-25,1,60,1625193209.0,32.000000
-25,1,61,1625193209.0,32.000000
-25,0,61,1625193209.0,32.000000
-25,0,60,1625193209.0,32.000000
-24,0,60,1625193209.0,32.000000
-25,1,61,1625193209.0,32.000000
-25,1,61,1625193209.0,32.000000
-24,0,61,1625193209.0,32.000000
-25,0,61,1625193209.0,32.000000
-25,0,60,1625193209.0,32.000000
-25,1,62,1625193209.0,32.000000
-24,0,59,1625193209.0,32.000000
-25,0,61,1625193209.0,32.000000
-26,0,60,1625193209.0,32.000000
-24,1,61,1625193209.0,32.000000
-24,0,61,1625193209.0,32.000000
-24,0,61,1625193209.0,32.000000
-25,1,61,1625193209.0,32.000000
-25,0,60,1625193209.0,32.000000
-24,0,61,1625193209.0,32.000000
-25,1,61,1625193209.0,32.000000
-25,0,60,1625193209.0,32.000000
-25,0,60,1625193209.0,32.000000
-25,0,61,1625193209.0,32.000000
-24,0,60,1625193209.0,32.000000
-24,0,60,1625193209.0,32.000000
-25,0,61,1625193209.0,32.000000
-24,1,60,1625193209.0,32.000000
-24,1,61,1625193209.0,32.000000
-25,0,60,1625193209.0,32.000000
-26,0,61,1625193209.0,32.000000
-24,0,60,1625193209.0,32.000000
-25,0,61,1625193209.0,32.000000
-25,1,60,1625193209.0,32.000000
-24,1,61,1625193209.0,32.000000
-24,1,61,1625193209.0,32.000000
-25,0,61,1625193209.0,32.000000
-24,0,61,1625193209.0,32.000000
-24,0,61,1625193209.0,32.000000
-25,0,61,1625193209.0,32.000000
-26,1,61,1625193209.0,32.000000
-23,0,61,1625193209.0,32.000000
-26,0,59,1625193209.0,32.000000
-27,1,60,1625193209.0,32.000000
-24,0,61,1625193209.0,32.000000
-23,0,61,1625193209.0,32.000000
-25,1,60,1625193209.0,32.000000
-25,1,60,1625193209.0,32.000000
-25,1,61,1625193209.0,32.000000
-24,0,60,1625193209.0,32.000000
-24,1,61,1625193209.0,32.000000
-25,0,60,1625193209.0,32.000000
-24,1,61,1625193209.0,32.000000
-24,1,61,1625193209.0,32.000000
-25,0,61,1625193209.0,32.000000
-25,1,61,1625193209.0,32.000000
-24,0,60,1625193209.0,32.000000
-24,1,61,1625193209.0,32.000000
-25,1,61,1625193209.0,32.000000
-24,0,60,1625193209.0,32.000000
-25,0,61,1625193209.0,32.000000
-25,0,59,1625193209.0,32.000000
-24,0,61,1625193209.0,32.000000
-24,1,60,1625193209.0,32.000000
-25,1,61,1625193209.0,32.000000
-25,1,61,1625193209.0,32.000000
-24,0,60,1625193209.0,32.000000
-24,0,61,1625193209.0,32.000000
-25,1,61,1625193209.0,32.000000
-25,1,61,1625193209.0,32.000000
-24,1,61,1625193209.0,32.000000
-25,0,60,1625193209.0,32.000000
-25,0,60,1625193209.0,32.000000
-25,0,60,1625193209.0,32.000000
-24,1,61,1625193209.0,32.000000
-25,1,60,1625193209.0,32.000000
-26,1,60,1625193209.0,32.000000
-25,0,60,1625193209.0,32.000000
-25,0,61,1625193209.0,32.000000
-25,1,60,1625193209.0,32.000000
-25,1,61,1625193209.0,32.000000
-25,1,60,1625193209.0,32.000000
-25,0,60,1625193209.0,32.000000
-25,0,60,1625193209.0,32.000000
-25,0,60,1625193209.0,32.000000
-25,1,61,1625193209.0,32.000000
-25,1,61,1625193209.0,32.000000
-25,1,61,1625193209.0,32.000000
-25,0,60,1625193209.0,32.000000
-25,0,60,1625193209.0,32.000000
-25,1,60,1625193209.0,32.000000
-25,1,61,1625193209.0,32.000000
-25,1,60,1625193209.0,32.000000
-26,0,60,1625193209.0,32.000000
-25,0,60,1625193209.0,32.000000
-25,0,61,1625193209.0,32.000000
-26,1,60,1625193209.0,32.000000
-26,1,60,1625193209.0,32.000000
-25,1,60,1625193209.0,32.000000
-25,0,60,1625193209.0,32.000000
-26,1,60,1625193209.0,32.000000
-25,0,60,1625193209.0,32.000000
-25,1,61,1625193209.0,32.000000
-26,1,60,1625193209.0,32.000000
-26,1,60,1625193209.0,32.000000
-25,0,60,1625193209.0,32.000000
-26,1,60,1625193209.0,32.000000
-26,1,60,1625193209.0,32.000000
-25,1,60,1625193209.0,32.000000
-25,1,60,1625193209.0,32.000000
-26,1,60,1625193209.0,32.000000
-26,1,60,1625193209.0,32.000000
-25,0,61,1625193209.0,32.000000
-26,1,61,1625193209.0,32.000000
-26,1,60,1625193209.0,32.000000
-25,1,61,1625193209.0,32.000000
-25,0,60,1625193209.0,32.000000
-26,1,61,1625193209.0,32.000000
-26,0,61,1625193209.0,32.000000
-25,1,61,1625193209.0,32.000000
-25,1,60,1625193209.0,32.000000
-27,1,60,1625193209.0,32.000000
-25,0,61,1625193209.0,32.000000
-25,0,61,1625193209.0,32.000000
-26,0,60,1625193209.0,32.000000
-26,1,60,1625193209.0,32.000000
-25,1,60,1625193209.0,32.000000
-25,1,60,1625193209.0,32.000000
-26,0,61,1625193209.0,32.000000
-25,0,60,1625193209.0,32.000000
-25,0,60,1625193209.0,32.000000
-25,1,60,1625193209.0,32.000000
-25,0,60,1625193209.0,32.000000
-26,1,61,1625193209.0,32.000000
-27,1,61,1625193209.0,32.000000
-24,0,60,1625193209.0,32.000000
-24,1,61,1625193209.0,32.000000
-26,1,60,1625193209.0,32.000000
-25,1,61,1625193209.0,32.000000
-25,1,61,1625193209.0,32.000000
-25,0,60,1625193209.0,32.000000
-25,1,60,1625193209.0,32.000000
-25,1,60,1625193209.0,32.000000
-25,1,61,1625193209.0,32.000000
-25,1,61,1625193209.0,32.000000
-25,0,59,1625193209.0,32.000000
-25,0,60,1625193209.0,32.000000
-25,1,61,1625193209.0,32.000000
-24,1,61,1625193209.0,32.000000
-24,1,61,1625193209.0,32.000000
-26,0,61,1625193209.0,32.000000
-25,0,60,1625193209.0,32.000000
-24,1,61,1625193209.0,32.000000
-25,1,60,1625193209.0,32.000000
-25,1,61,1625193209.0,32.000000
-25,0,61,1625193209.0,32.000000
-25,0,60,1625193209.0,32.000000
-25,1,61,1625193209.0,32.000000
-24,1,60,1625193209.0,32.000000
-24,1,61,1625193209.0,32.000000
-25,1,60,1625193209.0,32.000000
-25,0,61,1625193209.0,32.000000
-24,0,60,1625193209.0,32.000000
-25,1,60,1625193209.0,32.000000
-25,1,60,1625193209.0,32.000000
-25,1,61,1625193209.0,32.000000
-24,1,61,1625193209.0,32.000000
-25,1,60,1625193209.0,32.000000
-25,1,60,1625193209.0,32.000000
-25,1,61,1625193209.0,32.000000
-24,1,61,1625193209.0,32.000000
-24,1,60,1625193209.0,32.000000
-25,1,60,1625193209.0,32.000000
-24,0,60,1625193209.0,32.000000
-24,0,61,1625193209.0,32.000000
-25,1,61,1625193209.0,32.000000
-25,1,60,1625193209.0,32.000000
-25,1,61,1625193209.0,32.000000
-25,1,60,1625193209.0,32.000000
-25,1,60,1625193209.0,32.000000
-25,1,61,1625193209.0,32.000000
-24,0,60,1625193209.0,32.000000
-25,1,61,1625193209.0,32.000000
-25,0,60,1625193209.0,32.000000
-24,1,61,1625193209.0,32.000000
-26,0,61,1625193209.0,32.000000
-25,1,61,1625193209.0,32.000000
-24,1,60,1625193209.0,32.000000
-25,1,61,1625193209.0,32.000000
-25,1,60,1625193209.0,32.000000
-25,1,61,1625193209.0,32.000000
-25,1,60,1625193209.0,32.000000
-25,0,60,1625193209.0,32.000000
-24,1,60,1625193209.0,32.000000
-25,1,61,1625193209.0,32.000000
-25,1,61,1625193209.0,32.000000
-25,1,61,1625193209.0,32.000000
-25,1,60,1625193209.0,32.000000
-25,1,60,1625193209.0,32.000000
-25,1,60,1625193209.0,32.000000
-25,1,60,1625193209.0,32.000000
-25,0,61,1625193209.0,32.000000
-26,1,60,1625193209.0,32.000000
-25,0,60,1625193209.0,32.000000
-25,1,61,1625193209.0,32.000000
-25,1,61,1625193209.0,32.000000
-24,1,61,1625193209.0,32.000000
-25,1,60,1625193209.0,32.000000
-26,0,60,1625193209.0,32.000000
-25,0,60,1625193209.0,32.000000
-25,1,61,1625193209.0,32.000000
-25,1,61,1625193209.0,32.000000
-25,1,61,1625193209.0,32.000000
-25,1,60,1625193209.0,32.000000
-26,1,60,1625193209.0,32.000000
-26,0,60,1625193209.0,32.000000
-25,1,61,1625193209.0,32.000000
-25,1,60,1625193209.0,32.000000
-25,1,60,1625193209.0,32.000000
-26,1,60,1625193209.0,32.000000
-25,1,61,1625193209.0,32.000000
-25,0,60,1625193209.0,32.000000
-26,1,60,1625193209.0,32.000000
-26,1,60,1625193209.0,32.000000
-25,1,60,1625193209.0,32.000000
-25,1,60,1625193209.0,32.000000
-27,1,60,1625193209.0,32.000000
-25,1,61,1625193209.0,32.000000
-25,1,60,1625193209.0,32.000000
-25,1,60,1625193209.0,32.000000
-26,1,60,1625193209.0,32.000000
-25,1,60,1625193209.0,32.000000
-25,0,61,1625193209.0,32.000000
-26,0,61,1625193209.0,32.000000
-26,1,61,1625193209.0,32.000000
-25,1,60,1625193209.0,32.000000
-26,1,60,1625193209.0,32.000000
-26,0,60,1625193209.0,32.000000
-26,1,60,1625193209.0,32.000000
-25,1,61,1625193209.0,32.000000
-25,1,60,1625193209.0,32.000000
-26,1,60,1625193209.0,32.000000
-26,1,61,1625193209.0,32.000000
-26,1,60,1625193209.0,32.000000
-25,1,60,1625193209.0,32.000000
-26,1,60,1625193209.0,32.000000
-26,0,60,1625193209.0,32.000000
-26,1,60,1625193209.0,32.000000
-26,1,59,1625193209.0,32.000000
-25,1,61,1625193209.0,32.000000
-26,1,60,1625193209.0,32.000000
-26,0,60,1625193209.0,32.000000
-26,1,60,1625193209.0,32.000000
-25,1,60,1625193209.0,32.000000
-25,1,60,1625193209.0,32.000000
-26,1,60,1625193209.0,32.000000
-26,0,60,1625193209.0,32.000000
-26,1,60,1625193209.0,32.000000
-25,1,60,1625193209.0,32.000000
-26,0,60,1625193209.0,32.000000
-26,0,59,1625193209.0,32.000000
-26,1,60,1625193209.0,32.000000
-26,1,60,1625193209.0,32.000000
-26,1,61,1625193209.0,32.000000
-26,0,61,1625193209.0,32.000000
-26,0,60,1625193209.0,32.000000
-25,1,59,1625193209.0,32.000000
-25,1,60,1625193209.0,32.000000
-26,1,60,1625193209.0,32.000000
-25,1,60,1625193209.0,32.000000
-26,1,60,1625193209.0,32.000000
-27,0,60,1625193209.0,32.000000
-25,1,60,1625193209.0,32.000000
-26,1,61,1625193209.0,32.000000
-26,0,60,1625193209.0,32.000000
-26,1,61,1625193209.0,32.000000
-25,1,60,1625193209.0,32.000000
-26,1,60,1625193209.0,32.000000
-26,1,60,1625193209.0,32.000000
-25,1,60,1625193209.0,32.000000
-26,1,60,1625193209.0,32.000000
-26,1,60,1625193209.0,32.000000
-25,0,60,1625193209.0,32.000000
-26,1,60,1625193209.0,32.000000
-26,1,60,1625193209.0,32.000000
-25,1,59,1625193209.0,32.000000
-27,2,62,1625193209.0,32.000000
-27,1,60,1625193209.0,32.000000
-24,1,62,1625193209.0,32.000000
-27,-1,58,1625193209.0,32.000000
-26,1,61,1625193209.0,32.000000
-25,1,60,1625193209.0,32.000000
-26,1,60,1625193209.0,32.000000
-26,1,60,1625193209.0,32.000000
-25,1,60,1625193209.0,32.000000
-26,0,60,1625193209.0,32.000000
-26,1,60,1625193209.0,32.000000
-25,1,60,1625193209.0,32.000000
-26,1,60,1625193209.0,32.000000
-26,1,60,1625193209.0,32.000000
-25,1,61,1625193209.0,32.000000
-26,1,60,1625193209.0,32.000000
-27,1,60,1625193209.0,32.000000
-25,1,61,1625193209.0,32.000000
-24,1,60,1625193209.0,32.000000
-27,1,60,1625193209.0,32.000000
-25,1,61,1625193209.0,32.000000
-25,1,61,1625193209.0,32.000000
-26,1,60,1625193209.0,32.000000
-26,1,61,1625193209.0,32.000000
-24,0,60,1625193209.0,32.000000
-25,0,60,1625193209.0,32.000000
-26,0,60,1625193209.0,32.000000
-25,1,61,1625193209.0,32.000000
-25,1,61,1625193209.0,32.000000
-25,0,60,1625193209.0,32.000000
-26,1,61,1625193209.0,32.000000
-26,0,61,1625193209.0,32.000000
-23,0,60,1625193209.0,32.000000
-25,2,61,1625193209.0,32.000000
-26,0,59,1625193209.0,32.000000
-24,1,61,1625193209.0,32.000000
-25,0,60,1625193209.0,32.000000
-25,1,60,1625193209.0,32.000000
-25,1,60,1625193209.0,32.000000
-25,1,60,1625193209.0,32.000000
-25,1,61,1625193209.0,32.000000
-24,0,61,1625193209.0,32.000000
-25,0,59,1625193209.0,32.000000
-25,0,60,1625193209.0,32.000000
-25,1,61,1625193209.0,32.000000
-24,1,61,1625193209.0,32.000000
-25,1,61,1625193209.0,32.000000
-25,-1,59,1625193209.0,32.000000
-24,0,60,1625193209.0,32.000000
-25,1,60,1625193209.0,32.000000
-25,1,61,1625193209.0,32.000000
-24,1,61,1625193209.0,32.000000
-25,0,60,1625193209.0,32.000000
-26,1,60,1625193209.0,32.000000
-24,1,61,1625193209.0,32.000000
-25,0,60,1625193209.0,32.000000
-26,0,60,1625193209.0,32.000000
-25,1,61,1625193209.0,32.000000
-24,1,61,1625193209.0,32.000000
-25,1,60,1625193209.0,32.000000
-25,1,60,1625193209.0,32.000000
-25,1,61,1625193209.0,32.000000
-25,1,61,1625193209.0,32.000000
-25,1,60,1625193209.0,32.000000
-25,1,61,1625193209.0,32.000000
-26,1,62,1625193209.0,32.000000
-24,0,60,1625193209.0,32.000000
-25,1,60,1625193209.0,32.000000
-26,1,60,1625193209.0,32.000000
-24,1,61,1625193209.0,32.000000
-24,1,61,1625193209.0,32.000000
-25,0,60,1625193209.0,32.000000
-25,0,61,1625193209.0,32.000000
-25,1,61,1625193209.0,32.000000
-24,1,60,1625193209.0,32.000000
-25,1,61,1625193209.0,32.000000
-25,0,60,1625193209.0,32.000000
-25,1,61,1625193209.0,32.000000
-25,1,61,1625193209.0,32.000000
-24,0,61,1625193209.0,32.000000
-25,1,61,1625193209.0,32.000000
-25,1,60,1625193209.0,32.000000
-25,1,61,1625193209.0,32.000000
-24,1,61,1625193209.0,32.000000
-25,1,61,1625193209.0,32.000000
-26,1,61,1625193209.0,32.000000
-24,1,61,1625193209.0,32.000000
-25,1,60,1625193209.0,32.000000
-25,0,60,1625193209.0,32.000000
-25,0,61,1625193209.0,32.000000
-25,1,60,1625193209.0,32.000000
-25,1,61,1625193209.0,32.000000
-25,0,60,1625193209.0,32.000000
-25,1,61,1625193209.0,32.000000
-25,0,59,1625193209.0,32.000000
-25,1,61,1625193209.0,32.000000
-25,1,59,1625193209.0,32.000000
-25,1,61,1625193209.0,32.000000
-25,1,61,1625193209.0,32.000000
-25,0,60,1625193209.0,32.000000
-25,1,60,1625193209.0,32.000000
-25,1,60,1625193209.0,32.000000
-25,1,60,1625193209.0,32.000000
-25,1,60,1625193209.0,32.000000
-26,1,60,1625193209.0,32.000000
-25,1,60,1625193209.0,32.000000
-25,1,61,1625193209.0,32.000000
-25,1,60,1625193209.0,32.000000
-25,1,60,1625193209.0,32.000000
-26,1,60,1625193209.0,32.000000
-26,1,61,1625193209.0,32.000000
-25,0,60,1625193209.0,32.000000
-25,1,61,1625193209.0,32.000000
-26,1,60,1625193209.0,32.000000
-25,1,60,1625193209.0,32.000000
-25,1,61,1625193209.0,32.000000
-25,0,60,1625193209.0,32.000000
-26,1,60,1625193209.0,32.000000
-25,1,60,1625193209.0,32.000000
-25,1,61,1625193209.0,32.000000
-25,1,60,1625193209.0,32.000000
-25,1,60,1625193209.0,32.000000
-25,0,60,1625193209.0,32.000000
-26,1,61,1625193209.0,32.000000
-25,1,60,1625193209.0,32.000000
-25,1,61,1625193209.0,32.000000
-26,0,59,1625193209.0,32.000000
-25,1,60,1625193209.0,32.000000
-25,1,61,1625193209.0,32.000000
-25,1,60,1625193209.0,32.000000
-25,1,60,1625193209.0,32.000000
-25,1,61,1625193209.0,32.000000
-25,1,61,1625193209.0,32.000000
-25,1,60,1625193209.0,32.000000
-25,1,60,1625193209.0,32.000000
-25,1,60,1625193209.0,32.000000
-25,1,61,1625193209.0,32.000000
-25,1,61,1625193209.0,32.000000
-25,0,60,1625193209.0,32.000000
-25,1,60,1625193209.0,32.000000
-24,1,60,1625193209.0,32.000000
-25,1,61,1625193209.0,32.000000
-26,1,61,1625193209.0,32.000000
-25,0,60,1625193209.0,32.000000
-25,1,60,1625193209.0,32.000000
-25,1,61,1625193209.0,32.000000
-25,1,60,1625193209.0,32.000000
-25,1,60,1625193209.0,32.000000
-25,1,60,1625193209.0,32.000000
-25,1,60,1625193209.0,32.000000
-25,1,61,1625193209.0,32.000000
-25,0,60,1625193209.0,32.000000
-25,1,61,1625193209.0,32.000000
-25,0,60,1625193209.0,32.000000
-25,1,61,1625193209.0,32.000000
-25,1,60,1625193209.0,32.000000
-25,1,61,1625193209.0,32.000000
-25,0,60,1625193209.0,32.000000
-25,0,61,1625193209.0,32.000000
-25,0,60,1625193209.0,32.000000
-25,1,61,1625193209.0,32.000000
-24,0,61,1625193209.0,32.000000
-25,0,61,1625193209.0,32.000000
-25,1,60,1625193209.0,32.000000
-25,1,60,1625193209.0,32.000000
-25,1,61,1625193209.0,32.000000
-25,1,61,1625193209.0,32.000000
-25,0,61,1625193209.0,32.000000
-25,1,61,1625193209.0,32.000000
-24,1,61,1625193209.0,32.000000
-25,1,60,1625193209.0,32.000000
-25,1,61,1625193209.0,32.000000
-25,0,61,1625193209.0,32.000000
-24,0,59,1625193209.0,32.000000
-24,1,60,1625193209.0,32.000000
-26,1,62,1625193209.0,32.000000
-24,0,59,1625193209.0,32.000000
-24,1,61,1625193209.0,32.000000
-27,0,61,1625193209.0,32.000000
-25,0,60,1625193209.0,32.000000
-24,1,61,1625193209.0,32.000000
-26,0,60,1625193209.0,32.000000
-25,1,61,1625193209.0,32.000000
-24,0,61,1625193209.0,32.000000
-25,0,61,1625193209.0,32.000000
-26,1,60,1625193209.0,32.000000
-24,1,61,1625193209.0,32.000000
-25,0,61,1625193209.0,32.000000
-25,1,60,1625193209.0,32.000000
-24,1,60,1625193209.0,32.000000
-25,1,61,1625193209.0,32.000000
-25,1,60,1625193209.0,32.000000
-25,1,61,1625193209.0,32.000000
-25,1,61,1625193209.0,32.000000
-25,1,60,1625193209.0,32.000000
-25,1,60,1625193209.0,32.000000
-25,1,61,1625193209.0,32.000000
-25,1,61,1625193209.0,32.000000
-25,0,60,1625193209.0,32.000000
-25,1,61,1625193209.0,32.000000
-25,1,61,1625193209.0,32.000000
-24,1,60,1625193209.0,32.000000
-26,1,61,1625193209.0,32.000000
-24,0,60,1625193209.0,32.000000
-25,1,62,1625193209.0,32.000000
-25,0,59,1625193209.0,32.000000
-25,1,61,1625193209.0,32.000000
-26,0,60,1625193209.0,32.000000
-24,1,61,1625193209.0,32.000000
-25,1,60,1625193209.0,32.000000
-25,0,60,1625193209.0,32.000000
-25,1,61,1625193209.0,32.000000
-25,0,60,1625193209.0,32.000000
-25,1,61,1625193209.0,32.000000
-26,1,61,1625193209.0,32.000000
-25,1,61,1625193209.0,32.000000
-25,1,60,1625193209.0,32.000000
-25,1,60,1625193209.0,32.000000
-25,1,61,1625193209.0,32.000000
-24,1,61,1625193209.0,32.000000
-25,1,60,1625193209.0,32.000000
-26,0,60,1625193209.0,32.000000
-25,0,61,1625193209.0,32.000000
-25,1,60,1625193209.0,32.000000
-26,1,60,1625193209.0,32.000000
-25,0,60,1625193209.0,32.000000
-25,1,62,1625193209.0,32.000000
-25,0,59,1625193209.0,32.000000
-25,0,61,1625193209.0,32.000000
-25,0,59,1625193209.0,32.000000
-25,2,61,1625193209.0,32.000000
-25,1,60,1625193209.0,32.000000
-25,1,61,1625193209.0,32.000000
-25,0,60,1625193209.0,32.000000
-25,1,61,1625193209.0,32.000000
-26,1,60,1625193209.0,32.000000
-25,1,61,1625193209.0,32.000000
-25,0,61,1625193209.0,32.000000
-25,1,61,1625193209.0,32.000000
-25,1,60,1625193209.0,32.000000
-25,0,60,1625193209.0,32.000000
-25,1,61,1625193209.0,32.000000
-25,1,61,1625193209.0,32.000000
-25,1,61,1625193209.0,32.000000
-25,0,60,1625193209.0,32.000000
-25,0,61,1625193209.0,32.000000
-25,1,61,1625193209.0,32.000000
-25,1,61,1625193209.0,32.000000
-25,1,60,1625193209.0,32.000000
-25,1,61,1625193209.0,32.000000
-25,0,60,1625193209.0,32.000000
-25,1,61,1625193209.0,32.000000
-25,1,60,1625193209.0,32.000000
-26,1,61,1625193209.0,32.000000
-24,0,60,1625193209.0,32.000000
-25,1,61,1625193209.0,32.000000
-26,0,60,1625193209.0,32.000000
-24,1,61,1625193209.0,32.000000
-24,1,61,1625193209.0,32.000000
-26,0,60,1625193209.0,32.000000
-25,1,61,1625193209.0,32.000000
-25,1,61,1625193209.0,32.000000
-25,1,60,1625193209.0,32.000000
-25,1,61,1625193209.0,32.000000
-25,1,61,1625193209.0,32.000000
-25,1,60,1625193209.0,32.000000
-25,1,61,1625193209.0,32.000000
-24,1,61,1625193209.0,32.000000
-25,0,61,1625193209.0,32.000000
-25,1,61,1625193209.0,32.000000
-25,1,60,1625193209.0,32.000000
-25,1,60,1625193209.0,32.000000
-25,1,61,1625193209.0,32.000000
-25,1,61,1625193209.0,32.000000
-24,1,60,1625193209.0,32.000000
-25,1,61,1625193209.0,32.000000
-25,1,60,1625193209.0,32.000000
-25,1,61,1625193209.0,32.000000
-25,0,61,1625193209.0,32.000000
-25,1,60,1625193209.0,32.000000
-25,1,60,1625193209.0,32.000000
-25,1,61,1625193209.0,32.000000
-25,1,61,1625193209.0,32.000000
-24,0,61,1625193209.0,32.000000
-25,1,60,1625193209.0,32.000000
-26,1,60,1625193209.0,32.000000
-25,1,60,1625193209.0,32.000000
-24,1,61,1625193209.0,32.000000
-25,1,61,1625193209.0,32.000000
-25,1,61,1625193209.0,32.000000
-25,1,61,1625193209.0,32.000000
-25,0,60,1625193209.0,32.000000
-25,1,61,1625193209.0,32.000000
-24,1,61,1625193209.0,32.000000
-25,1,60,1625193209.0,32.000000
-25,1,60,1625193209.0,32.000000
-25,0,61,1625193209.0,32.000000
-25,1,60,1625193209.0,32.000000
-25,1,60,1625193209.0,32.000000
-25,1,61,1625193209.0,32.000000
-24,1,61,1625193209.0,32.000000
-25,1,60,1625193209.0,32.000000
-25,1,60,1625193209.0,32.000000
-25,1,60,1625193209.0,32.000000
-24,1,60,1625193209.0,32.000000
-25,1,60,1625193209.0,32.000000
-25,1,61,1625193209.0,32.000000
-25,0,60,1625193209.0,32.000000
-25,1,61,1625193209.0,32.000000
-24,1,61,1625193209.0,32.000000
-24,1,61,1625193209.0,32.000000
-25,1,60,1625193209.0,32.000000
-25,1,60,1625193209.0,32.000000
-25,1,61,1625193209.0,32.000000
-25,1,60,1625193209.0,32.000000
-25,1,60,1625193209.0,32.000000
-25,1,61,1625193209.0,32.000000
-25,1,61,1625193209.0,32.000000
-24,0,61,1625193209.0,32.000000
-24,0,61,1625193209.0,32.000000
-25,1,61,1625193209.0,32.000000
-25,1,61,1625193209.0,32.000000
-24,0,61,1625193209.0,32.000000
-25,1,60,1625193209.0,32.000000
-26,0,60,1625193209.0,32.000000
-25,1,61,1625193209.0,32.000000
-25,1,61,1625193209.0,32.000000
-25,1,61,1625193209.0,32.000000
-24,1,61,1625193209.0,32.000000
-25,0,60,1625193209.0,32.000000
-25,1,61,1625193209.0,32.000000
-25,1,60,1625193209.0,32.000000
-25,1,60,1625193209.0,32.000000
-25,0,61,1625193209.0,32.000000
-25,1,60,1625193209.0,32.000000
-25,1,60,1625193209.0,32.000000
-25,1,61,1625193209.0,32.000000
-25,1,61,1625193209.0,32.000000
-25,1,60,1625193209.0,32.000000
-25,0,60,1625193209.0,32.000000
-25,1,61,1625193209.0,32.000000
-24,1,60,1625193209.0,32.000000
-25,1,61,1625193209.0,32.000000
-25,0,59,1625193209.0,32.000000
-24,1,62,1625193209.0,32.000000
-26,1,61,1625193209.0,32.000000
-25,1,61,1625193209.0,32.000000
-24,1,61,1625193209.0,32.000000
-25,1,61,1625193209.0,32.000000
-25,1,60,1625193209.0,32.000000
-24,1,61,1625193209.0,32.000000
-25,0,60,1625193209.0,32.000000
-26,0,60,1625193209.0,32.000000
-25,0,60,1625193209.0,32.000000
-25,1,61,1625193209.0,32.000000
-25,1,60,1625193209.0,32.000000
-25,1,61,1625193209.0,32.000000
-25,1,61,1625193209.0,32.000000
-25,0,60,1625193209.0,32.000000
-26,0,61,1625193209.0,32.000000
-25,0,61,1625193209.0,32.000000
-24,1,59,1625193209.0,32.000000
-25,1,61,1625193209.0,32.000000
-25,1,60,1625193209.0,32.000000
-24,0,60,1625193209.0,32.000000
-27,0,61,1625193209.0,32.000000
-25,0,59,1625193209.0,32.000000
-23,1,60,1625193209.0,32.000000
-26,1,61,1625193209.0,32.000000
-26,0,60,1625193209.0,32.000000
-25,1,61,1625193209.0,32.000000
-26,0,59,1625193209.0,32.000000
-24,0,60,1625193209.0,32.000000
-25,1,60,1625193209.0,32.000000
-25,1,60,1625193209.0,32.000000
-26,1,61,1625193209.0,32.000000
-26,0,60,1625193209.0,32.000000
-25,1,61,1625193209.0,32.000000
-25,1,59,1625193209.0,32.000000
-25,1,60,1625193209.0,32.000000
-27,1,61,1625193209.0,32.000000
-25,0,61,1625193209.0,32.000000
-25,1,61,1625193209.0,32.000000
-26,1,59,1625193209.0,32.000000
-25,1,60,1625193209.0,32.000000
-25,1,61,1625193209.0,32.000000
-26,0,61,1625193209.0,32.000000
-26,0,60,1625193209.0,32.000000
-25,0,61,1625193209.0,32.000000
-26,1,60,1625193209.0,32.000000
-25,1,60,1625193209.0,32.000000
-25,1,60,1625193209.0,32.000000
-25,0,60,1625193209.0,32.000000
-26,1,60,1625193209.0,32.000000
-25,0,60,1625193209.0,32.000000
-25,1,60,1625193209.0,32.000000
-25,1,61,1625193209.0,32.000000
-25,0,60,1625193209.0,32.000000
-24,1,60,1625193209.0,32.000000
-25,1,60,1625193209.0,32.000000
-26,0,60,1625193209.0,32.000000
-25,1,60,1625193209.0,32.000000
-25,1,60,1625193209.0,32.000000
-25,1,60,1625193209.0,32.000000
-25,1,60,1625193209.0,32.000000
-25,1,60,1625193209.0,32.000000
-25,0,60,1625193209.0,32.000000
-25,1,60,1625193209.0,32.000000
-24,1,61,1625193209.0,32.000000
-25,1,61,1625193209.0,32.000000
-25,1,61,1625193209.0,32.000000
-25,0,61,1625193209.0,32.000000
-25,0,60,1625193209.0,32.000000
-26,1,61,1625193209.0,32.000000
-25,1,60,1625193209.0,32.000000
-24,1,61,1625193209.0,32.000000
-25,1,60,1625193209.0,32.000000
-25,0,60,1625193209.0,32.000000
-25,1,61,1625193209.0,32.000000
-25,1,60,1625193209.0,32.000000
-24,1,61,1625193209.0,32.000000
-25,1,61,1625193209.0,32.000000
-25,0,60,1625193209.0,32.000000
-25,0,61,1625193209.0,32.000000
-25,0,60,1625193209.0,32.000000
-25,1,61,1625193209.0,32.000000
-25,1,61,1625193209.0,32.000000
-25,0,60,1625193209.0,32.000000
-26,0,60,1625193209.0,32.000000
-25,0,60,1625193209.0,32.000000
-24,1,60,1625193209.0,32.000000
-25,1,60,1625193209.0,32.000000
-25,1,60,1625193209.0,32.000000
-24,1,61,1625193209.0,32.000000
-25,1,61,1625193209.0,32.000000
-25,1,61,1625193209.0,32.000000
-24,1,61,1625193209.0,32.000000
-25,1,61,1625193209.0,32.000000
-26,1,60,1625193209.0,32.000000
-24,1,60,1625193209.0,32.000000
-25,1,61,1625193209.0,32.000000
-26,0,60,1625193209.0,32.000000
-25,1,61,1625193209.0,32.000000
-25,1,60,1625193209.0,32.000000
-25,1,61,1625193209.0,32.000000
-25,1,61,1625193209.0,32.000000
-24,1,61,1625193209.0,32.000000
-26,1,61,1625193209.0,32.000000
-25,0,60,1625193209.0,32.000000
-24,1,60,1625193209.0,32.000000
-25,1,61,1625193209.0,32.000000
-25,1,60,1625193209.0,32.000000
-24,1,60,1625193209.0,32.000000
-25,1,60,1625193209.0,32.000000
-26,1,60,1625193209.0,32.000000
-24,1,61,1625193209.0,32.000000
-25,1,61,1625193209.0,32.000000
-25,1,60,1625193209.0,32.000000
-25,1,60,1625193209.0,32.000000
-24,1,61,1625193209.0,32.000000
-25,1,61,1625193209.0,32.000000
-25,1,61,1625193209.0,32.000000
-25,1,61,1625193209.0,32.000000
-25,1,60,1625193209.0,32.000000
-25,1,61,1625193209.0,32.000000
-24,1,61,1625193209.0,32.000000
-25,1,61,1625193209.0,32.000000
-25,1,60,1625193209.0,32.000000
-25,1,60,1625193209.0,32.000000
-25,1,61,1625193209.0,32.000000
-25,1,60,1625193209.0,32.000000
-25,1,61,1625193209.0,32.000000
-25,1,60,1625193209.0,32.000000
-25,1,61,1625193209.0,32.000000
-25,0,60,1625193209.0,32.000000
-25,1,61,1625193209.0,32.000000
-25,1,61,1625193209.0,32.000000
-25,1,61,1625193209.0,32.000000
-25,1,61,1625193209.0,32.000000
-25,1,60,1625193209.0,32.000000
-25,1,60,1625193209.0,32.000000
-25,1,61,1625193209.0,32.000000
-25,1,61,1625193209.0,32.000000
-25,1,60,1625193209.0,32.000000
-25,1,60,1625193209.0,32.000000
-26,1,61,1625193209.0,32.000000
-25,0,60,1625193209.0,32.000000
-25,1,60,1625193209.0,32.000000
-26,0,60,1625193209.0,32.000000
-25,1,61,1625193209.0,32.000000
-25,1,61,1625193209.0,32.000000
-25,1,60,1625193209.0,32.000000
-25,1,61,1625193209.0,32.000000
-25,0,60,1625193209.0,32.000000
-26,1,61,1625193209.0,32.000000
-25,1,60,1625193209.0,32.000000
-25,1,60,1625193209.0,32.000000
-26,1,60,1625193209.0,32.000000
-25,1,60,1625193209.0,32.000000
-26,1,60,1625193209.0,32.000000
-25,1,60,1625193209.0,32.000000
-25,1,60,1625193209.0,32.000000
-26,1,60,1625193209.0,32.000000
-26,1,61,1625193209.0,32.000000
-25,0,60,1625193209.0,32.000000
-25,1,60,1625193209.0,32.000000
-26,1,61,1625193209.0,32.000000
-25,0,60,1625193209.0,32.000000
-25,1,61,1625193209.0,32.000000
-26,0,60,1625193209.0,32.000000
-26,0,60,1625193209.0,32.000000
-25,1,60,1625193209.0,32.000000
-26,1,60,1625193209.0,32.000000
-25,1,60,1625193209.0,32.000000
-25,0,61,1625193209.0,32.000000
-25,0,60,1625193209.0,32.000000
-25,1,60,1625193209.0,32.000000
-25,1,60,1625193209.0,32.000000
-25,1,60,1625193209.0,32.000000
-25,1,60,1625193209.0,32.000000
-25,1,60,1625193209.0,32.000000
-25,1,60,1625193209.0,32.000000
-25,1,60,1625193209.0,32.000000
-25,1,60,1625193209.0,32.000000
-25,1,60,1625193209.0,32.000000
-25,0,60,1625193209.0,32.000000
-25,1,60,1625193209.0,32.000000
-25,1,60,1625193209.0,32.000000
-25,1,60,1625193209.0,32.000000
-25,1,60,1625193209.0,32.000000
-25,1,60,1625193209.0,32.000000
-25,0,61,1625193209.0,32.000000
-25,1,60,1625193209.0,32.000000
-25,0,60,1625193209.0,32.000000
-27,1,60,1625193209.0,32.000000
-25,0,59,1625193209.0,32.000000
-25,1,62,1625193209.0,32.000000
-27,0,58,1625193209.0,32.000000
-24,2,62,1625193209.0,32.000000
-25,1,59,1625193209.0,32.000000
-25,1,61,1625193209.0,32.000000
-25,0,60,1625193209.0,32.000000
-25,0,61,1625193209.0,32.000000
-25,0,60,1625193209.0,32.000000
-25,1,60,1625193209.0,32.000000
-25,1,60,1625193209.0,32.000000
-25,1,60,1625193209.0,32.000000
-25,0,60,1625193209.0,32.000000
-25,1,61,1625193209.0,32.000000
-25,1,61,1625193209.0,32.000000
-25,1,61,1625193209.0,32.000000
-25,1,61,1625193209.0,32.000000
-25,1,60,1625193209.0,32.000000
-25,1,60,1625193209.0,32.000000
-25,1,60,1625193209.0,32.000000
-25,1,61,1625193209.0,32.000000
-25,1,61,1625193209.0,32.000000
-25,1,61,1625193209.0,32.000000
-25,1,60,1625193209.0,32.000000
-25,1,60,1625193209.0,32.000000
-25,1,60,1625193209.0,32.000000
-25,1,60,1625193209.0,32.000000
-25,1,60,1625193209.0,32.000000
-25,1,61,1625193209.0,32.000000
-25,1,60,1625193209.0,32.000000
-25,1,61,1625193209.0,32.000000
-25,1,60,1625193209.0,32.000000
-25,0,60,1625193209.0,32.000000
-25,1,60,1625193209.0,32.000000
-25,1,60,1625193209.0,32.000000
-25,1,61,1625193209.0,32.000000
-24,1,61,1625193209.0,32.000000
-25,0,61,1625193209.0,32.000000
-26,1,61,1625193209.0,32.000000
-25,1,60,1625193209.0,32.000000
-24,1,61,1625193209.0,32.000000
-25,1,60,1625193209.0,32.000000
-25,1,61,1625193209.0,32.000000
-24,1,60,1625193209.0,32.000000
-25,1,61,1625193209.0,32.000000
-25,0,60,1625193209.0,32.000000
-25,1,61,1625193209.0,32.000000
-25,0,60,1625193209.0,32.000000
-25,1,61,1625193209.0,32.000000
-25,1,61,1625193209.0,32.000000
-24,1,61,1625193209.0,32.000000
-26,1,61,1625193209.0,32.000000
-26,0,60,1625193209.0,32.000000
-24,0,61,1625193209.0,32.000000
-24,1,61,1625193209.0,32.000000
-25,1,61,1625193209.0,32.000000
-24,0,61,1625193209.0,32.000000
-25,1,61,1625193209.0,32.000000
-25,0,60,1625193209.0,32.000000
-24,0,61,1625193209.0,32.000000
-25,0,60,1625193209.0,32.000000
-26,1,61,1625193209.0,32.000000
-25,1,61,1625193209.0,32.000000
-24,0,61,1625193209.0,32.000000
-25,1,60,1625193209.0,32.000000
-25,1,61,1625193209.0,32.000000
-24,1,61,1625193209.0,32.000000
-25,1,61,1625193209.0,32.000000
-25,0,61,1625193209.0,32.000000
-25,0,61,1625193209.0,32.000000
-25,1,61,1625193209.0,32.000000
-25,1,60,1625193209.0,32.000000
-25,1,61,1625193209.0,32.000000
-25,0,60,1625193209.0,32.000000
-25,0,60,1625193209.0,32.000000
-25,1,61,1625193209.0,32.000000
-25,1,60,1625193209.0,32.000000
-24,1,61,1625193209.0,32.000000
-25,0,61,1625193209.0,32.000000
-25,0,60,1625193209.0,32.000000
-25,1,61,1625193209.0,32.000000
-24,1,60,1625193209.0,32.000000
-24,1,61,1625193209.0,32.000000
-25,1,61,1625193209.0,32.000000
-25,1,60,1625193209.0,32.000000
-24,1,61,1625193209.0,32.000000
-24,0,61,1625193209.0,32.000000
-25,0,61,1625193209.0,32.000000
-25,1,60,1625193209.0,32.000000
-25,1,61,1625193209.0,32.000000
-24,1,61,1625193209.0,32.000000
-25,1,61,1625193209.0,32.000000
-25,0,60,1625193209.0,32.000000
-24,1,61,1625193209.0,32.000000
-24,0,61,1625193209.0,32.000000
-25,1,60,1625193209.0,32.000000
-25,0,60,1625193209.0,32.000000
-24,1,61,1625193209.0,32.000000
-24,1,61,1625193209.0,32.000000
-25,1,61,1625193209.0,32.000000
-25,0,60,1625193209.0,32.000000
-25,0,60,1625193209.0,32.000000
-25,0,61,1625193209.0,32.000000
-25,0,61,1625193209.0,32.000000
-24,0,61,1625193209.0,32.000000
-24,0,61,1625193209.0,32.000000
-25,1,61,1625193209.0,32.000000
-24,1,61,1625193209.0,32.000000
-24,1,61,1625193209.0,32.000000
-24,0,59,1625193209.0,32.000000
-25,1,61,1625193209.0,32.000000
-25,1,61,1625193209.0,32.000000
-24,1,60,1625193209.0,32.000000
-24,1,60,1625193209.0,32.000000
-26,0,60,1625193209.0,32.000000
-24,0,61,1625193209.0,32.000000
-24,1,61,1625193209.0,32.000000
-25,1,60,1625193209.0,32.000000
-25,1,61,1625193209.0,32.000000
-24,1,60,1625193209.0,32.000000
-25,1,61,1625193209.0,32.000000
-25,0,60,1625193209.0,32.000000
-24,1,61,1625193209.0,32.000000
-24,1,61,1625193209.0,32.000000
-25,0,60,1625193209.0,32.000000
-25,1,61,1625193209.0,32.000000
-25,1,60,1625193209.0,32.000000
-25,0,61,1625193209.0,32.000000
-25,0,60,1625193209.0,32.000000
-25,0,61,1625193209.0,32.000000
-25,1,60,1625193209.0,32.000000
-25,0,60,1625193209.0,32.000000
-25,0,61,1625193209.0,32.000000
-25,0,61,1625193209.0,32.000000
-25,1,61,1625193209.0,32.000000
-25,1,60,1625193209.0,32.000000
-25,0,60,1625193209.0,32.000000
-25,0,61,1625193209.0,32.000000
-25,1,60,1625193209.0,32.000000
-25,1,61,1625193209.0,32.000000
-25,1,61,1625193209.0,32.000000
-25,1,61,1625193209.0,32.000000
-25,1,60,1625193209.0,32.000000
-25,1,60,1625193209.0,32.000000
-25,1,60,1625193209.0,32.000000
-25,1,61,1625193209.0,32.000000
-25,1,60,1625193209.0,32.000000
-26,1,61,1625193209.0,32.000000
-25,0,60,1625193209.0,32.000000
-25,1,60,1625193209.0,32.000000
-25,1,60,1625193209.0,32.000000
-25,1,60,1625193209.0,32.000000
-25,1,60,1625193209.0,32.000000
-25,0,60,1625193209.0,32.000000
-25,1,60,1625193209.0,32.000000
-25,1,61,1625193209.0,32.000000
-25,1,60,1625193209.0,32.000000
-25,1,61,1625193209.0,32.000000
-25,1,60,1625193209.0,32.000000
-25,1,60,1625193209.0,32.000000
-25,0,60,1625193209.0,32.000000
-25,1,61,1625193209.0,32.000000
-25,0,61,1625193209.0,32.000000
-25,0,60,1625193209.0,32.000000
-26,1,60,1625193209.0,32.000000
-25,1,61,1625193209.0,32.000000
-25,1,60,1625193209.0,32.000000
-25,1,61,1625193209.0,32.000000
-25,0,61,1625193209.0,32.000000
-25,1,61,1625193209.0,32.000000
-25,1,60,1625193209.0,32.000000
-25,1,60,1625193209.0,32.000000
-25,1,60,1625193209.0,32.000000
-25,1,60,1625193209.0,32.000000
-25,1,60,1625193209.0,32.000000
-25,1,61,1625193209.0,32.000000
-25,0,60,1625193209.0,32.000000
-25,1,60,1625193209.0,32.000000
-26,1,61,1625193209.0,32.000000
-24,1,60,1625193209.0,32.000000
-24,1,60,1625193209.0,32.000000
-26,1,61,1625193209.0,32.000000
-24,1,60,1625193209.0,32.000000
-24,1,60,1625193209.0,32.000000
-27,1,60,1625193209.0,32.000000
-25,1,61,1625193209.0,32.000000
-23,1,61,1625193209.0,32.000000
-26,1,60,1625193209.0,32.000000
-26,1,61,1625193209.0,32.000000
-24,0,60,1625193209.0,32.000000
-24,1,61,1625193209.0,32.000000
-25,1,62,1625193209.0,32.000000
-25,0,62,1625193209.0,32.000000
-19,2,69,1625193209.0,32.000000
-26,0,81,1625193209.0,32.000000
-36,-3,83,1625193209.0,32.000000
-50,4,80,1625193209.0,32.000000
-57,4,67,1625193209.0,32.000000
-57,2,59,1625193209.0,32.000000
-51,-5,41,1625193209.0,32.000000
-52,-8,30,1625193209.0,32.000000
-56,-15,16,1625193209.0,32.000000
-59,-17,10,1625193209.0,32.000000
-43,-28,16,1625193209.0,32.000000
-35,-34,19,1625193209.0,32.000000
-32,-37,16,1625193209.0,32.000000
-27,-43,18,1625193209.0,32.000000
-26,-43,18,1625193209.0,32.000000
-26,-46,20,1625193209.0,32.000000
-29,-47,23,1625193209.0,32.000000
-31,-48,18,1625193209.0,32.000000
0,-53,33,1625193209.0,32.000000
2,-52,36,1625193209.0,32.000000
-19,-48,29,1625193209.0,32.000000
-33,-46,29,1625193209.0,32.000000
-33,-50,28,1625193209.0,32.000000
-28,-48,29,1625193209.0,32.000000
-18,-46,32,1625193209.0,32.000000
-31,-47,28,1625193209.0,32.000000
-32,-43,38,1625193209.0,32.000000
-46,-43,34,1625193209.0,32.000000
-36,-46,35,1625193209.0,32.000000
-38,-50,32,1625193209.0,32.000000
-25,-51,30,1625193209.0,32.000000
-29,-53,27,1625193209.0,32.000000
-27,-51,31,1625193209.0,32.000000
-27,-49,28,1625193209.0,32.000000
-23,-51,30,1625193209.0,32.000000
-25,-50,34,1625193209.0,32.000000
-26,-49,30,1625193209.0,32.000000
-18,-53,32,1625193209.0,32.000000
-16,-48,31,1625193209.0,32.000000
-20,-46,33,1625193209.0,32.000000
-22,-40,28,1625193209.0,32.000000
2,-49,40,1625193209.0,32.000000
-15,-44,37,1625193209.0,32.000000
-26,-47,28,1625193209.0,32.000000
-19,-47,20,1625193209.0,32.000000
-13,-36,34,1625193209.0,32.000000
-26,-30,40,1625193209.0,32.000000
-28,-26,37,1625193209.0,32.000000
-24,-24,39,1625193209.0,32.000000
-27,-15,55,1625193209.0,32.000000
-24,-20,61,1625193209.0,32.000000
-20,-17,57,1625193209.0,32.000000
-32,-10,71,1625193209.0,32.000000
-18,-18,85,1625193209.0,32.000000
-16,-12,78,1625193209.0,32.000000
-12,-8,71,1625193209.0,32.000000
-17,-11,71,1625193209.0,32.000000
-25,-9,60,1625193209.0,32.000000
-22,-7,59,1625193209.0,32.000000
-25,-5,63,1625193209.0,32.000000
-16,-3,66,1625193209.0,32.000000
-19,-2,68,1625193209.0,32.000000
-16,-1,75,1625193209.0,32.000000
-23,-2,65,1625193209.0,32.000000
-20,-1,64,1625193209.0,32.000000
-17,-5,64,1625193209.0,32.000000
-26,3,70,1625193209.0,32.000000
-25,1,58,1625193209.0,32.000000
-33,2,60,1625193209.0,32.000000
-32,1,59,1625193209.0,32.000000
-31,1,59,1625193209.0,32.000000
-28,2,59,1625193209.0,32.000000
-28,2,59,1625193209.0,32.000000
-29,2,60,1625193209.0,32.000000
-30,1,59,1625193209.0,32.000000
-28,1,59,1625193209.0,32.000000
-28,2,59,1625193209.0,32.000000
-29,1,59,1625193209.0,32.000000
-28,2,59,1625193209.0,32.000000
-29,1,59,1625193209.0,32.000000
-29,2,59,1625193209.0,32.000000
-29,1,59,1625193209.0,32.000000
-27,2,59,1625193209.0,32.000000
-29,2,60,1625193209.0,32.000000
-29,1,59,1625193209.0,32.000000
-29,2,59,1625193209.0,32.000000
-29,1,58,1625193209.0,32.000000
-29,1,59,1625193209.0,32.000000
-29,1,59,1625193209.0,32.000000
-28,2,59,1625193209.0,32.000000
-29,2,59,1625193209.0,32.000000
-30,2,58,1625193209.0,32.000000
-27,4,61,1625193209.0,32.000000
-27,0,60,1625193209.0,32.000000
-29,0,59,1625193209.0,32.000000
-29,1,58,1625193209.0,32.000000
-29,1,59,1625193209.0,32.000000
-29,2,59,1625193209.0,32.000000
-29,2,59,1625193209.0,32.000000
-30,1,58,1625193209.0,32.000000
-30,1,59,1625193209.0,32.000000
-29,1,59,1625193209.0,32.000000
-29,2,59,1625193209.0,32.000000
-29,1,59,1625193209.0,32.000000
-29,2,59,1625193209.0,32.000000
-29,1,59,1625193209.0,32.000000
-29,1,59,1625193209.0,32.000000
-29,1,59,1625193209.0,32.000000
-29,1,59,1625193209.0,32.000000
-28,1,59,1625193209.0,32.000000
-29,1,59,1625193209.0,32.000000
-29,1,59,1625193209.0,32.000000
-29,1,59,1625193209.0,32.000000
-29,1,59,1625193209.0,32.000000
-29,1,59,1625193209.0,32.000000
-29,1,59,1625193209.0,32.000000
-28,2,59,1625193209.0,32.000000
-29,1,58,1625193209.0,32.000000
-29,1,59,1625193209.0,32.000000
-29,1,59,1625193209.0,32.000000
-29,1,59,1625193209.0,32.000000
-29,1,59,1625193209.0,32.000000
-29,1,59,1625193209.0,32.000000
-29,1,59,1625193209.0,32.000000
-29,1,59,1625193209.0,32.000000
-29,1,59,1625193209.0,32.000000
-29,1,59,1625193209.0,32.000000
-29,1,59,1625193209.0,32.000000
-29,1,59,1625193209.0,32.000000
-29,1,59,1625193209.0,32.000000
-29,1,59,1625193209.0,32.000000
-29,1,59,1625193209.0,32.000000
-29,1,59,1625193209.0,32.000000
-29,1,59,1625193209.0,32.000000
-29,1,59,1625193209.0,32.000000
-29,1,59,1625193209.0,32.000000
-29,1,59,1625193209.0,32.000000
-29,1,59,1625193209.0,32.000000
-29,1,59,1625193209.0,32.000000
-29,1,59,1625193209.0,32.000000
-29,1,59,1625193209.0,32.000000
-29,1,59,1625193209.0,32.000000
-29,1,59,1625193209.0,32.000000
-29,1,59,1625193209.0,32.000000
-29,1,59,1625193209.0,32.000000
-29,1,59,1625193209.0,32.000000
-29,1,59,1625193209.0,32.000000
-29,1,59,1625193209.0,32.000000
-29,1,59,1625193209.0,32.000000
-28,1,59,1625193209.0,32.000000
-29,1,59,1625193209.0,32.000000
-29,1,59,1625193209.0,32.000000
-29,1,59,1625193209.0,32.000000
-29,1,59,1625193209.0,32.000000
-29,1,59,1625193209.0,32.000000
-29,1,59,1625193209.0,32.000000
-29,1,59,1625193209.0,32.000000
-29,1,59,1625193209.0,32.000000
-29,1,59,1625193209.0,32.000000
-29,1,59,1625193209.0,32.000000
-29,1,59,1625193209.0,32.000000
-29,1,59,1625193209.0,32.000000
-29,2,59,1625193209.0,32.000000
-29,1,59,1625193209.0,32.000000
-29,1,59,1625193209.0,32.000000
-29,1,59,1625193209.0,32.000000
-28,1,59,1625193209.0,32.000000
-29,1,59,1625193209.0,32.000000
-29,1,59,1625193209.0,32.000000
-29,1,59,1625193209.0,32.000000
-29,1,59,1625193209.0,32.000000
-29,1,59,1625193209.0,32.000000
-29,1,59,1625193209.0,32.000000
-29,1,59,1625193209.0,32.000000
-29,1,59,1625193209.0,32.000000
-29,1,59,1625193209.0,32.000000
-29,1,59,1625193209.0,32.000000
-29,1,59,1625193209.0,32.000000
-29,2,59,1625193209.0,32.000000
-29,1,59,1625193209.0,32.000000
-29,1,59,1625193209.0,32.000000
-28,1,59,1625193209.0,32.000000
-29,1,59,1625193209.0,32.000000
-29,1,59,1625193209.0,32.000000
-29,1,59,1625193209.0,32.000000
-29,1,59,1625193209.0,32.000000
-29,1,59,1625193209.0,32.000000
-29,1,59,1625193209.0,32.000000
-29,1,59,1625193209.0,32.000000
-29,1,59,1625193209.0,32.000000
-29,1,59,1625193209.0,32.000000
-29,2,59,1625193209.0,32.000000
-29,1,59,1625193209.0,32.000000
-29,1,59,1625193209.0,32.000000
-29,1,59,1625193209.0,32.000000
-29,1,59,1625193209.0,32.000000
-29,1,59,1625193209.0,32.000000
-29,2,59,1625193209.0,32.000000
-29,1,59,1625193209.0,32.000000
-29,1,59,1625193209.0,32.000000
-29,1,59,1625193209.0,32.000000
-29,1,59,1625193209.0,32.000000
-29,1,59,1625193209.0,32.000000
-29,1,59,1625193209.0,32.000000
-29,1,59,1625193209.0,32.000000
-29,1,59,1625193209.0,32.000000
-29,1,59,1625193209.0,32.000000
-29,1,59,1625193209.0,32.000000
-29,1,59,1625193209.0,32.000000
-29,1,59,1625193209.0,32.000000
-29,1,59,1625193209.0,32.000000
-29,1,59,1625193209.0,32.000000
-29,1,59,1625193209.0,32.000000
-29,1,59,1625193209.0,32.000000
-29,1,59,1625193209.0,32.000000
-30,1,59,1625193209.0,32.000000
-29,1,59,1625193209.0,32.000000
-29,1,59,1625193209.0,32.000000
-29,1,59,1625193209.0,32.000000
-29,1,59,1625193209.0,32.000000
-29,1,59,1625193209.0,32.000000
-29,1,59,1625193209.0,32.000000
-29,1,59,1625193209.0,32.000000
-29,1,59,1625193209.0,32.000000
-29,1,59,1625193209.0,32.000000
-30,2,58,1625193209.0,32.000000
-29,1,58,1625193209.0,32.000000
-29,1,59,1625193209.0,32.000000
-29,2,59,1625193209.0,32.000000
-29,1,59,1625193209.0,32.000000
-29,2,59,1625193209.0,32.000000
-29,2,59,1625193209.0,32.000000
-29,2,59,1625193209.0,32.000000
-29,2,59,1625193209.0,32.000000
-29,2,59,1625193209.0,32.000000
-29,2,59,1625193209.0,32.000000
-29,2,59,1625193209.0,32.000000
-29,2,59,1625193209.0,32.000000
-29,2,59,1625193209.0,32.000000
-29,2,59,1625193209.0,32.000000
-29,2,59,1625193209.0,32.000000
-28,2,59,1625193209.0,32.000000
-29,2,59,1625193209.0,32.000000
-29,2,59,1625193209.0,32.000000
-29,2,59,1625193209.0,32.000000
-29,2,59,1625193209.0,32.000000
-28,2,59,1625193209.0,32.000000
-29,1,59,1625193209.0,32.000000
-28,1,59,1625193209.0,32.000000
-28,1,59,1625193209.0,32.000000
-29,1,59,1625193209.0,32.000000
-29,1,59,1625193209.0,32.000000
-28,1,59,1625193209.0,32.000000
-28,1,59,1625193209.0,32.000000
-28,1,59,1625193209.0,32.000000
-28,1,59,1625193209.0,32.000000
-28,1,59,1625193209.0,32.000000
-27,1,59,1625193209.0,32.000000
-28,1,59,1625193209.0,32.000000
-28,1,59,1625193209.0,32.000000
-28,1,59,1625193209.0,32.000000
-28,1,59,1625193209.0,32.000000
-28,1,59,1625193209.0,32.000000
-28,1,59,1625193209.0,32.000000
-28,1,59,1625193209.0,32.000000
-27,1,59,1625193209.0,32.000000
-27,1,60,1625193209.0,32.000000
-28,1,59,1625193209.0,32.000000
-27,1,59,1625193209.0,32.000000
-27,1,59,1625193209.0,32.000000
-28,1,59,1625193209.0,32.000000
-28,1,60,1625193209.0,32.000000
-28,1,59,1625193209.0,32.000000
-27,1,60,1625193209.0,32.000000
-27,1,59,1625193209.0,32.000000
-28,1,60,1625193209.0,32.000000
-28,1,59,1625193209.0,32.000000
-27,1,60,1625193209.0,32.000000
-28,1,59,1625193209.0,32.000000
-28,1,59,1625193209.0,32.000000
-27,1,59,1625193209.0,32.000000
-27,1,59,1625193209.0,32.000000
-27,1,59,1625193209.0,32.000000
-27,1,59,1625193209.0,32.000000
-27,1,59,1625193209.0,32.000000
-28,1,59,1625193209.0,32.000000
-28,1,59,1625193209.0,32.000000
-28,1,59,1625193209.0,32.000000
-27,1,59,1625193209.0,32.000000
-27,1,59,1625193209.0,32.000000
-27,1,60,1625193209.0,32.000000
-27,1,60,1625193209.0,32.000000
-28,1,60,1625193209.0,32.000000
-27,1,60,1625193209.0,32.000000
-27,1,59,1625193209.0,32.000000
-27,1,60,1625193209.0,32.000000
-27,1,59,1625193209.0,32.000000
-27,1,59,1625193209.0,32.000000
-27,1,60,1625193209.0,32.000000
-28,1,59,1625193209.0,32.000000
-27,1,59,1625193209.0,32.000000
-27,1,60,1625193209.0,32.000000
-27,1,59,1625193209.0,32.000000
-28,1,59,1625193209.0,32.000000
-27,1,59,1625193209.0,32.000000
-29,1,60,1625193209.0,32.000000
-28,1,59,1625193209.0,32.000000
-26,1,59,1625193209.0,32.000000
-28,1,58,1625193209.0,32.000000
-28,1,60,1625193209.0,32.000000
-27,1,60,1625193209.0,32.000000
-27,1,60,1625193209.0,32.000000
-27,1,60,1625193209.0,32.000000
-27,1,59,1625193209.0,32.000000
-28,1,59,1625193209.0,32.000000
-28,1,59,1625193209.0,32.000000
-27,1,60,1625193209.0,32.000000
-27,1,59,1625193209.0,32.000000
-28,1,59,1625193209.0,32.000000
-28,1,60,1625193209.0,32.000000
-27,1,59,1625193209.0,32.000000
-27,1,59,1625193209.0,32.000000
-28,1,59,1625193209.0,32.000000
-27,1,60,1625193209.0,32.000000
-27,1,60,1625193209.0,32.000000
-27,1,59,1625193209.0,32.000000
-27,1,59,1625193209.0,32.000000
-28,1,59,1625193209.0,32.000000
-27,1,59,1625193209.0,32.000000
-27,1,60,1625193209.0,32.000000
-27,1,59,1625193209.0,32.000000
-27,1,60,1625193209.0,32.000000
-27,0,59,1625193209.0,32.000000
-27,1,60,1625193209.0,32.000000
-28,1,59,1625193209.0,32.000000
-27,1,59,1625193209.0,32.000000
-27,1,60,1625193209.0,32.000000
-28,1,61,1625193209.0,32.000000
-27,0,59,1625193209.0,32.000000
-27,2,60,1625193209.0,32.000000
-27,1,59,1625193209.0,32.000000
-27,1,60,1625193209.0,32.000000
-27,0,59,1625193209.0,32.000000
-27,1,59,1625193209.0,32.000000
-27,2,60,1625193209.0,32.000000
-27,1,59,1625193209.0,32.000000
-26,1,60,1625193209.0,32.000000
-28,1,59,1625193209.0,32.000000
-28,1,59,1625193209.0,32.000000
-27,1,60,1625193209.0,32.000000
-27,1,60,1625193209.0,32.000000
-27,1,59,1625193209.0,32.000000
-27,1,59,1625193209.0,32.000000
-27,1,59,1625193209.0,32.000000
-27,1,60,1625193209.0,32.000000
-27,1,60,1625193209.0,32.000000
-27,1,59,1625193209.0,32.000000
-28,1,59,1625193209.0,32.000000
-27,1,60,1625193209.0,32.000000
-26,1,60,1625193209.0,32.000000
-27,1,60,1625193209.0,32.000000
-28,1,59,1625193209.0,32.000000
-27,1,60,1625193209.0,32.000000
-26,1,60,1625193209.0,32.000000
-28,1,59,1625193209.0,32.000000
-28,1,59,1625193209.0,32.000000
-27,1,60,1625193209.0,32.000000
-27,1,59,1625193209.0,32.000000
-28,1,59,1625193209.0,32.000000
-28,1,59,1625193209.0,32.000000
-28,1,59,1625193209.0,32.000000
-27,1,60,1625193209.0,32.000000
-28,1,59,1625193209.0,32.000000
-28,1,59,1625193209.0,32.000000
-28,1,59,1625193209.0,32.000000
-27,1,60,1625193209.0,32.000000
-27,1,59,1625193209.0,32.000000
-28,1,59,1625193209.0,32.000000
-28,1,59,1625193209.0,32.000000
-27,1,59,1625193209.0,32.000000
-27,1,59,1625193209.0,32.000000
-28,1,60,1625193209.0,32.000000
-27,1,59,1625193209.0,32.000000
-28,1,59,1625193209.0,32.000000
-28,1,60,1625193209.0,32.000000
-27,1,59,1625193209.0,32.000000
-27,1,60,1625193209.0,32.000000
-27,1,60,1625193209.0,32.000000
-28,1,60,1625193209.0,32.000000
-27,1,59,1625193209.0,32.000000
-27,1,59,1625193209.0,32.000000
-28,1,59,1625193209.0,32.000000
-28,1,59,1625193209.0,32.000000
-27,1,60,1625193209.0,32.000000
-27,1,59,1625193209.0,32.000000
-27,1,59,1625193209.0,32.000000
-27,1,60,1625193209.0,32.000000
-27,1,61,1625193209.0,32.000000
-27,1,60,1625193209.0,32.000000
-28,1,59,1625193209.0,32.000000
-27,1,59,1625193209.0,32.000000
-27,1,60,1625193209.0,32.000000
-27,1,59,1625193209.0,32.000000
-27,1,60,1625193209.0,32.000000
-27,1,60,1625193209.0,32.000000
-27,1,60,1625193209.0,32.000000
-27,1,60,1625193209.0,32.000000
-27,1,59,1625193209.0,32.000000
-27,1,60,1625193209.0,32.000000
-27,1,59,1625193209.0,32.000000
-27,1,59,1625193209.0,32.000000
-27,1,59,1625193209.0,32.000000
-27,1,59,1625193209.0,32.000000
-27,1,60,1625193209.0,32.000000
-27,1,60,1625193209.0,32.000000
-27,1,60,1625193209.0,32.000000
-27,1,60,1625193209.0,32.000000
-27,1,60,1625193209.0,32.000000
-27,1,60,1625193209.0,32.000000
-26,1,60,1625193209.0,32.000000
-26,1,60,1625193209.0,32.000000
-27,1,59,1625193209.0,32.000000
-27,1,60,1625193209.0,32.000000
-27,1,60,1625193209.0,32.000000
-27,1,60,1625193209.0,32.000000
-27,1,60,1625193209.0,32.000000
-27,1,59,1625193209.0,32.000000
-27,1,59,1625193209.0,32.000000
-27,1,60,1625193209.0,32.000000
-27,1,60,1625193209.0,32.000000
-27,1,60,1625193209.0,32.000000
-27,1,60,1625193209.0,32.000000
-26,1,59,1625193209.0,32.000000
-27,1,59,1625193209.0,32.000000
-27,1,59,1625193209.0,32.000000
-26,1,60,1625193209.0,32.000000
-27,1,59,1625193209.0,32.000000
-27,1,60,1625193209.0,32.000000
-27,1,60,1625193209.0,32.000000
-27,1,60,1625193209.0,32.000000
-27,1,60,1625193209.0,32.000000
-27,1,59,1625193209.0,32.000000
-27,1,60,1625193209.0,32.000000
-27,1,60,1625193209.0,32.000000
-27,1,60,1625193209.0,32.000000
-27,1,60,1625193209.0,32.000000
-27,1,60,1625193209.0,32.000000
-27,1,60,1625193209.0,32.000000
-26,1,60,1625193209.0,32.000000
-27,1,60,1625193209.0,32.000000
-27,1,60,1625193209.0,32.000000
-27,1,60,1625193209.0,32.000000
-27,1,60,1625193209.0,32.000000
-27,1,60,1625193209.0,32.000000
-27,1,59,1625193209.0,32.000000
-27,1,60,1625193209.0,32.000000
-27,1,59,1625193209.0,32.000000
-27,1,60,1625193209.0,32.000000
-27,1,60,1625193209.0,32.000000
-27,1,59,1625193209.0,32.000000
-27,1,59,1625193209.0,32.000000
-27,1,59,1625193209.0,32.000000
-26,1,60,1625193209.0,32.000000
-27,1,60,1625193209.0,32.000000
-27,1,60,1625193209.0,32.000000
-27,1,59,1625193209.0,32.000000
-26,1,60,1625193209.0,32.000000
-27,1,60,1625193209.0,32.000000
-27,1,59,1625193209.0,32.000000
-27,1,60,1625193209.0,32.000000
-27,1,59,1625193209.0,32.000000
-27,1,60,1625193209.0,32.000000
-27,1,60,1625193209.0,32.000000
-27,1,60,1625193209.0,32.000000
-27,1,59,1625193209.0,32.000000
-26,1,59,1625193209.0,32.000000
-27,2,61,1625193209.0,32.000000
-28,-1,59,1625193209.0,32.000000
-29,1,59,1625193209.0,32.000000
-26,1,58,1625193209.0,32.000000
-27,2,61,1625193209.0,32.000000
-28,1,58,1625193209.0,32.000000
-30,0,59,1625193209.0,32.000000
-29,0,59,1625193209.0,32.000000
-28,1,60,1625193209.0,32.000000
-26,2,60,1625193209.0,32.000000
-27,2,60,1625193209.0,32.000000
-28,1,60,1625193209.0,32.000000
-25,0,60,1625193209.0,32.000000
-26,1,60,1625193209.0,32.000000
-26,1,59,1625193209.0,32.000000
-26,1,60,1625193209.0,32.000000
-28,0,59,1625193209.0,32.000000
-29,1,59,1625193209.0,32.000000
-28,2,59,1625193209.0,32.000000
-30,2,59,1625193209.0,32.000000
-30,1,59,1625193209.0,32.000000
-28,1,59,1625193209.0,32.000000
-28,1,59,1625193209.0,32.000000
-28,1,59,1625193209.0,32.000000
-27,0,59,1625193209.0,32.000000
-27,0,59,1625193209.0,32.000000
-28,1,60,1625193209.0,32.000000
-27,1,59,1625193209.0,32.000000
-27,1,59,1625193209.0,32.000000
-28,1,59,1625193209.0,32.000000
-28,1,59,1625193209.0,32.000000
-29,1,59,1625193209.0,32.000000
-29,1,59,1625193209.0,32.000000
-29,1,59,1625193209.0,32.000000
-27,1,60,1625193209.0,32.000000
-27,1,59,1625193209.0,32.000000
-28,2,59,1625193209.0,32.000000
-28,2,60,1625193209.0,32.000000
-27,1,59,1625193209.0,32.000000
-28,0,59,1625193209.0,32.000000
-27,0,60,1625193209.0,32.000000
-26,1,60,1625193209.0,32.000000
-26,1,59,1625193209.0,32.000000
-28,2,60,1625193209.0,32.000000
-28,2,59,1625193209.0,32.000000
-29,1,59,1625193209.0,32.000000
-28,1,59,1625193209.0,32.000000
-27,1,60,1625193209.0,32.000000
-28,1,59,1625193209.0,32.000000
-28,1,60,1625193209.0,32.000000
-27,1,59,1625193209.0,32.000000
-28,1,60,1625193209.0,32.000000
-28,1,60,1625193209.0,32.000000
-26,2,60,1625193209.0,32.000000
-29,1,59,1625193209.0,32.000000
-29,1,59,1625193209.0,32.000000
-27,1,60,1625193209.0,32.000000
-28,1,59,1625193209.0,32.000000
-28,1,59,1625193209.0,32.000000
-28,1,59,1625193209.0,32.000000
-28,1,59,1625193209.0,32.000000
-29,1,59,1625193209.0,32.000000
-28,1,59,1625193209.0,32.000000
-28,2,59,1625193209.0,32.000000
-29,1,59,1625193209.0,32.000000
-27,1,60,1625193209.0,32.000000
-28,1,59,1625193209.0,32.000000
-29,1,59,1625193209.0,32.000000
-28,1,59,1625193209.0,32.000000
-27,2,59,1625193209.0,32.000000
-29,1,58,1625193209.0,32.000000
-28,1,60,1625193209.0,32.000000
-27,1,59,1625193209.0,32.000000
-28,2,59,1625193209.0,32.000000
-28,1,59,1625193209.0,32.000000
-28,1,60,1625193209.0,32.000000
-28,1,59,1625193209.0,32.000000
-29,1,59,1625193209.0,32.000000
-28,1,59,1625193209.0,32.000000
-27,1,59,1625193209.0,32.000000
-28,1,59,1625193209.0,32.000000
-28,1,59,1625193209.0,32.000000
-27,1,59,1625193209.0,32.000000
-29,1,60,1625193209.0,32.000000
-28,1,59,1625193209.0,32.000000
-28,1,59,1625193209.0,32.000000
-29,1,59,1625193209.0,32.000000
-28,1,59,1625193209.0,32.000000
-28,1,59,1625193209.0,32.000000
-28,1,59,1625193209.0,32.000000
-28,1,59,1625193209.0,32.000000
-28,2,59,1625193209.0,32.000000
-29,1,59,1625193209.0,32.000000
-27,1,60,1625193209.0,32.000000
-27,1,60,1625193209.0,32.000000
-28,1,59,1625193209.0,32.000000
-28,1,59,1625193209.0,32.000000
-28,1,59,1625193209.0,32.000000
-28,1,59,1625193209.0,32.000000
-28,1,59,1625193209.0,32.000000
-29,1,59,1625193209.0,32.000000
-28,1,59,1625193209.0,32.000000
-28,1,59,1625193209.0,32.000000
-28,1,60,1625193209.0,32.000000
-28,1,59,1625193209.0,32.000000
-29,1,59,1625193209.0,32.000000
-28,1,59,1625193209.0,32.000000
-28,1,60,1625193209.0,32.000000
-29,1,59,1625193209.0,32.000000
-28,1,59,1625193209.0,32.000000
-28,1,59,1625193209.0,32.000000
-28,1,59,1625193209.0,32.000000
-28,1,59,1625193209.0,32.000000
-28,1,59,1625193209.0,32.000000
-28,2,59,1625193209.0,32.000000
-28,1,60,1625193209.0,32.000000
-29,2,60,1625193209.0,32.000000
-27,1,59,1625193209.0,32.000000
-29,1,59,1625193209.0,32.000000
-28,1,59,1625193209.0,32.000000
-28,1,59,1625193209.0,32.000000
-28,1,59,1625193209.0,32.000000
-29,1,59,1625193209.0,32.000000
-28,1,59,1625193209.0,32.000000
-28,1,59,1625193209.0,32.000000
-28,1,59,1625193209.0,32.000000
-28,1,59,1625193209.0,32.000000
-28,1,59,1625193209.0,32.000000
-28,1,59,1625193209.0,32.000000
-28,1,59,1625193209.0,32.000000
-28,1,59,1625193209.0,32.000000
-28,1,59,1625193209.0,32.000000
-28,1,59,1625193209.0,32.000000
-28,1,59,1625193209.0,32.000000
-28,1,59,1625193209.0,32.000000
-28,1,59,1625193209.0,32.000000
-28,1,59,1625193209.0,32.000000
-28,1,59,1625193209.0,32.000000
-28,1,59,1625193209.0,32.000000
-28,1,59,1625193209.0,32.000000
-28,1,59,1625193209.0,32.000000
-28,1,59,1625193209.0,32.000000
-28,1,59,1625193209.0,32.000000
-28,1,59,1625193209.0,32.000000
-28,1,59,1625193209.0,32.000000
-28,1,60,1625193209.0,32.000000
-28,1,60,1625193209.0,32.000000
-28,1,59,1625193209.0,32.000000
-28,1,59,1625193209.0,32.000000
-28,1,59,1625193209.0,32.000000
-28,1,59,1625193209.0,32.000000
-28,1,59,1625193209.0,32.000000
-28,1,59,1625193209.0,32.000000
-28,1,59,1625193209.0,32.000000
-28,1,59,1625193209.0,32.000000
-28,1,60,1625193209.0,32.000000
-28,1,59,1625193209.0,32.000000
-28,1,59,1625193209.0,32.000000
-28,1,59,1625193209.0,32.000000
-27,1,59,1625193209.0,32.000000
-29,1,59,1625193209.0,32.000000
-28,1,59,1625193209.0,32.000000
-27,1,59,1625193209.0,32.000000
-28,1,59,1625193209.0,32.000000
-28,1,59,1625193209.0,32.000000
-28,1,59,1625193209.0,32.000000
-28,1,59,1625193209.0,32.000000
-28,1,60,1625193209.0,32.000000
-27,1,59,1625193209.0,32.000000
-28,2,60,1625193209.0,32.000000
-28,1,59,1625193209.0,32.000000
-27,1,60,1625193209.0,32.000000
-28,1,59,1625193209.0,32.000000
-28,1,60,1625193209.0,32.000000
-27,1,59,1625193209.0,32.000000
-28,1,59,1625193209.0,32.000000
-28,1,59,1625193209.0,32.000000
-28,1,59,1625193209.0,32.000000
-28,1,59,1625193209.0,32.000000
-28,1,60,1625193209.0,32.000000
-27,1,59,1625193209.0,32.000000
-27,1,60,1625193209.0,32.000000
-28,1,59,1625193209.0,32.000000
-28,1,59,1625193209.0,32.000000
-27,1,60,1625193209.0,32.000000
-27,1,59,1625193209.0,32.000000
-28,1,59,1625193209.0,32.000000
-27,1,60,1625193209.0,32.000000
-27,1,60,1625193209.0,32.000000
-27,1,59,1625193209.0,32.000000
-27,1,60,1625193209.0,32.000000
-27,1,59,1625193209.0,32.000000
-27,1,59,1625193209.0,32.000000
-27,1,59,1625193209.0,32.000000
-27,1,60,1625193209.0,32.000000
-27,1,60,1625193209.0,32.000000
-27,1,59,1625193209.0,32.000000
-28,1,60,1625193209.0,32.000000
-27,1,59,1625193209.0,32.000000
-27,1,60,1625193209.0,32.000000
-27,1,60,1625193209.0,32.000000
-27,1,59,1625193209.0,32.000000
-27,1,59,1625193209.0,32.000000
-27,1,59,1625193209.0,32.000000
-27,1,60,1625193209.0,32.000000
-27,1,59,1625193209.0,32.000000
-27,1,59,1625193209.0,32.000000
-28,1,60,1625193209.0,32.000000
-27,1,59,1625193209.0,32.000000
-27,1,60,1625193209.0,32.000000
-28,1,59,1625193209.0,32.000000
-26,1,60,1625193209.0,32.000000
-27,1,59,1625193209.0,32.000000
-28,1,59,1625193209.0,32.000000
-27,1,59,1625193209.0,32.000000
-27,1,59,1625193209.0,32.000000
-28,1,60,1625193209.0,32.000000
-27,1,60,1625193209.0,32.000000
-27,1,60,1625193209.0,32.000000
-28,1,59,1625193209.0,32.000000
-27,1,59,1625193209.0,32.000000
-27,2,60,1625193209.0,32.000000
-27,1,59,1625193209.0,32.000000
-27,1,60,1625193209.0,32.000000
-28,1,59,1625193209.0,32.000000
-27,1,59,1625193209.0,32.000000
-27,1,60,1625193209.0,32.000000
-27,1,60,1625193209.0,32.000000
-27,2,60,1625193209.0,32.000000
-27,2,59,1625193209.0,32.000000
-27,1,59,1625193209.0,32.000000
-27,1,59,1625193209.0,32.000000
-27,1,60,1625193209.0,32.000000
-27,1,59,1625193209.0,32.000000
-28,2,59,1625193209.0,32.000000
-28,1,59,1625193209.0,32.000000
-27,1,60,1625193209.0,32.000000
-28,1,59,1625193209.0,32.000000
-28,1,59,1625193209.0,32.000000
-27,1,60,1625193209.0,32.000000
-27,1,59,1625193209.0,32.000000
-28,1,59,1625193209.0,32.000000
-27,1,59,1625193209.0,32.000000
-28,1,59,1625193209.0,32.000000
-27,1,60,1625193209.0,32.000000
-27,1,60,1625193209.0,32.000000
-28,1,59,1625193209.0,32.000000
-28,1,59,1625193209.0,32.000000
-27,1,59,1625193209.0,32.000000
-27,1,60,1625193209.0,32.000000
-27,2,60,1625193209.0,32.000000
-28,1,60,1625193209.0,32.000000
-28,2,61,1625193209.0,32.000000
-33,4,65,1625193209.0,32.000000
-47,5,77,1625193209.0,32.000000
-39,8,85,1625193209.0,32.000000
-30,7,82,1625193209.0,32.000000
-33,2,76,1625193209.0,32.000000
-24,4,72,1625193209.0,32.000000
-30,0,67,1625193209.0,32.000000
-28,-1,66,1625193209.0,32.000000
-14,-3,62,1625193209.0,32.000000
-10,-5,63,1625193209.0,32.000000
-9,-10,58,1625193209.0,32.000000
-7,-15,52,1625193209.0,32.000000
-5,-18,50,1625193209.0,32.000000
-4,-23,49,1625193209.0,32.000000
-2,-25,46,1625193209.0,32.000000
-5,-24,42,1625193209.0,32.000000
-7,-32,38,1625193209.0,32.000000
-9,-31,36,1625193209.0,32.000000
-20,-32,33,1625193209.0,32.000000
-26,-36,29,1625193209.0,32.000000
-25,-38,24,1625193209.0,32.000000
-24,-42,23,1625193209.0,32.000000
-28,-41,15,1625193209.0,32.000000
-32,-47,10,1625193209.0,32.000000
-33,-46,10,1625193209.0,32.000000
-49,-40,8,1625193209.0,32.000000
-50,-39,10,1625193209.0,32.000000
-64,-28,10,1625193209.0,32.000000
-62,-24,10,1625193209.0,32.000000
-66,-19,18,1625193209.0,32.000000
-81,-9,20,1625193209.0,32.000000
-83,-13,23,1625193209.0,32.000000
-74,-13,35,1625193209.0,32.000000
-64,-15,37,1625193209.0,32.000000
-60,-14,41,1625193209.0,32.000000
-53,-9,39,1625193209.0,32.000000
-53,-6,40,1625193209.0,32.000000
-50,-4,40,1625193209.0,32.000000
-54,-5,50,1625193209.0,32.000000
-61,-7,50,1625193209.0,32.000000
-53,-5,53,1625193209.0,32.000000
-49,-4,54,1625193209.0,32.000000
-49,-5,47,1625193209.0,32.000000
-40,-6,43,1625193209.0,32.000000
-39,-8,41,1625193209.0,32.000000
-48,-9,46,1625193209.0,32.000000
-48,-7,47,1625193209.0,32.000000
-46,-7,44,1625193209.0,32.000000
-50,-6,44,1625193209.0,32.000000
-51,-6,43,1625193209.0,32.000000
-46,-3,45,1625193209.0,32.000000
-53,-1,41,1625193209.0,32.000000
-60,-1,40,1625193209.0,32.000000
-45,0,48,1625193209.0,32.000000
-46,-2,48,1625193209.0,32.000000
-49,-3,44,1625193209.0,32.000000
-48,-2,43,1625193209.0,32.000000
-54,-1,39,1625193209.0,32.000000
-55,0,40,1625193209.0,32.000000
-53,-1,40,1625193209.0,32.000000
-55,-1,38,1625193209.0,32.000000
-54,-1,38,1625193209.0,32.000000
-53,-1,39,1625193209.0,32.000000
-53,-1,39,1625193209.0,32.000000
-53,0,40,1625193209.0,32.000000
-54,-1,40,1625193209.0,32.000000
-54,-1,39,1625193209.0,32.000000
-53,-1,39,1625193209.0,32.000000
-53,-1,39,1625193209.0,32.000000
-54,-1,39,1625193209.0,32.000000
-54,-1,38,1625193209.0,32.000000
-55,-1,37,1625193209.0,32.000000
-55,-1,37,1625193209.0,32.000000
-54,-1,38,1625193209.0,32.000000
-54,-1,38,1625193209.0,32.000000
-54,-1,38,1625193209.0,32.000000
-54,-1,38,1625193209.0,32.000000
-55,-1,38,1625193209.0,32.000000
-55,-1,38,1625193209.0,32.000000
-55,-1,38,1625193209.0,32.000000
-54,-1,38,1625193209.0,32.000000
-55,-1,38,1625193209.0,32.000000
-54,-1,38,1625193209.0,32.000000
-55,-1,38,1625193209.0,32.000000
-54,-1,38,1625193209.0,32.000000
-54,-1,38,1625193209.0,32.000000
-55,-1,38,1625193209.0,32.000000
-55,-1,38,1625193209.0,32.000000
-54,-1,38,1625193209.0,32.000000
-55,-1,38,1625193209.0,32.000000
-55,-1,37,1625193209.0,32.000000
-55,-1,38,1625193209.0,32.000000
-55,-1,37,1625193209.0,32.000000
-55,-1,37,1625193209.0,32.000000
-55,-1,37,1625193209.0,32.000000
-54,-1,38,1625193209.0,32.000000
-55,-1,38,1625193209.0,32.000000
-55,-1,38,1625193209.0,32.000000
-55,-1,37,1625193209.0,32.000000
-55,-2,37,1625193209.0,32.000000
-55,-2,37,1625193209.0,32.000000
-55,-1,37,1625193209.0,32.000000
-55,-1,37,1625193209.0,32.000000
-55,-1,37,1625193209.0,32.000000
-55,-1,37,1625193209.0,32.000000
-55,-1,38,1625193209.0,32.000000
-55,-1,38,1625193209.0,32.000000
-55,-1,38,1625193209.0,32.000000
-55,-2,37,1625193209.0,32.000000
-55,-2,37,1625193209.0,32.000000
-55,-1,37,1625193209.0,32.000000
-55,-2,37,1625193209.0,32.000000
-55,-1,37,1625193209.0,32.000000
-55,-1,37,1625193209.0,32.000000
-55,-1,37,1625193209.0,32.000000
-55,-1,37,1625193209.0,32.000000
-55,-1,37,1625193209.0,32.000000
-55,-2,37,1625193209.0,32.000000
-55,-2,37,1625193209.0,32.000000
-55,-1,38,1625193209.0,32.000000
-55,-1,37,1625193209.0,32.000000
-55,-1,37,1625193209.0,32.000000
-55,-1,37,1625193209.0,32.000000
-55,-1,37,1625193209.0,32.000000
-55,-1,37,1625193209.0,32.000000
-55,-1,37,1625193209.0,32.000000
-55,-1,37,1625193209.0,32.000000
-55,-1,37,1625193209.0,32.000000
-55,-2,37,1625193209.0,32.000000
-55,-2,37,1625193209.0,32.000000
-55,-1,37,1625193209.0,32.000000
-55,-1,37,1625193209.0,32.000000
-55,-1,37,1625193209.0,32.000000
-55,-1,37,1625193209.0,32.000000
-55,-1,37,1625193209.0,32.000000
-55,-1,37,1625193209.0,32.000000
-55,-1,37,1625193209.0,32.000000
-55,-1,37,1625193209.0,32.000000
-55,-1,37,1625193209.0,32.000000
-55,-1,37,1625193209.0,32.000000
-55,-2,37,1625193209.0,32.000000
-55,-1,37,1625193209.0,32.000000
-55,-1,37,1625193209.0,32.000000
-55,-1,37,1625193209.0,32.000000
-55,-1,37,1625193209.0,32.000000
-55,-1,37,1625193209.0,32.000000
-55,-1,37,1625193209.0,32.000000
-55,-1,37,1625193209.0,32.000000
-55,-1,37,1625193209.0,32.000000
-55,-1,37,1625193209.0,32.000000
-55,-1,37,1625193209.0,32.000000
-55,-1,37,1625193209.0,32.000000
-55,-1,37,1625193209.0,32.000000
-55,-1,37,1625193209.0,32.000000
-55,-1,37,1625193209.0,32.000000
-55,-1,37,1625193209.0,32.000000
-55,-1,37,1625193209.0,32.000000
-55,-1,37,1625193209.0,32.000000
-55,-1,37,1625193209.0,32.000000
-55,-1,37,1625193209.0,32.000000
-55,-1,37,1625193209.0,32.000000
-55,-1,37,1625193209.0,32.000000
-55,-1,37,1625193209.0,32.000000
-55,-1,37,1625193209.0,32.000000
-55,-1,37,1625193209.0,32.000000
-55,-1,37,1625193209.0,32.000000
-55,-1,37,1625193209.0,32.000000
-55,-1,37,1625193209.0,32.000000
-55,-1,37,1625193209.0,32.000000
-55,-1,37,1625193209.0,32.000000
-55,-1,37,1625193209.0,32.000000
-55,-2,37,1625193209.0,32.000000
-55,-2,37,1625193209.0,32.000000
-55,-1,37,1625193209.0,32.000000
-55,-1,37,1625193209.0,32.000000
-55,-1,37,1625193209.0,32.000000
-55,-2,37,1625193209.0,32.000000
-55,-1,37,1625193209.0,32.000000
-55,-1,37,1625193209.0,32.000000
-55,-1,37,1625193209.0,32.000000
-55,-2,37,1625193209.0,32.000000
-55,-1,37,1625193209.0,32.000000
-55,-1,37,1625193209.0,32.000000
-55,-1,37,1625193209.0,32.000000
-55,-1,37,1625193209.0,32.000000
-55,-1,37,1625193209.0,32.000000
-54,-1,37,1625193209.0,32.000000
-55,-1,37,1625193209.0,32.000000
-55,-1,37,1625193209.0,32.000000
-55,-1,37,1625193209.0,32.000000
-55,-1,37,1625193209.0,32.000000
-55,-1,37,1625193209.0,32.000000
-55,-1,37,1625193209.0,32.000000
-55,-1,37,1625193209.0,32.000000
-55,-1,37,1625193209.0,32.000000
-55,-1,37,1625193209.0,32.000000
-55,-1,37,1625193209.0,32.000000
-55,-1,37,1625193209.0,32.000000
-55,-1,37,1625193209.0,32.000000
-55,-1,37,1625193209.0,32.000000
-55,-1,37,1625193209.0,32.000000
-55,-1,37,1625193209.0,32.000000
-55,-1,37,1625193209.0,32.000000
-55,-1,37,1625193209.0,32.000000
-55,-1,37,1625193209.0,32.000000
-55,-1,37,1625193209.0,32.000000
-55,-1,37,1625193209.0,32.000000
-55,-1,37,1625193209.0,32.000000
-55,-1,37,1625193209.0,32.000000
-55,-1,37,1625193209.0,32.000000
-55,-1,37,1625193209.0,32.000000
-55,-1,37,1625193209.0,32.000000
-55,-1,37,1625193209.0,32.000000
-55,-1,37,1625193209.0,32.000000
-55,-1,37,1625193209.0,32.000000
-55,-1,37,1625193209.0,32.000000
-55,-1,37,1625193209.0,32.000000
-55,-1,37,1625193209.0,32.000000
-55,-1,37,1625193209.0,32.000000
-55,-1,37,1625193209.0,32.000000
-55,-1,37,1625193209.0,32.000000
-55,-1,37,1625193209.0,32.000000
-55,-1,37,1625193209.0,32.000000
-55,-1,37,1625193209.0,32.000000
-55,-1,37,1625193209.0,32.000000
-55,-1,37,1625193209.0,32.000000
-55,-1,37,1625193209.0,32.000000
-55,-1,37,1625193209.0,32.000000
-55,-1,37,1625193209.0,32.000000
-55,-1,37,1625193209.0,32.000000
-55,-1,37,1625193209.0,32.000000
-55,-1,37,1625193209.0,32.000000
-55,-1,37,1625193209.0,32.000000
-55,-1,37,1625193209.0,32.000000
-55,-1,37,1625193209.0,32.000000
-55,-1,37,1625193209.0,32.000000
-55,-1,37,1625193209.0,32.000000
-55,-1,37,1625193209.0,32.000000
-55,-1,37,1625193209.0,32.000000
-55,-1,37,1625193209.0,32.000000
-55,-1,37,1625193209.0,32.000000
-55,-1,37,1625193209.0,32.000000
-55,-1,37,1625193209.0,32.000000
-55,-1,37,1625193209.0,32.000000
-55,-1,37,1625193209.0,32.000000
-55,-1,38,1625193209.0,32.000000
-55,-1,37,1625193209.0,32.000000
-55,-1,37,1625193209.0,32.000000
-55,-1,37,1625193209.0,32.000000
-55,-1,37,1625193209.0,32.000000
-55,-1,37,1625193209.0,32.000000
-55,-1,37,1625193209.0,32.000000
-55,-1,37,1625193209.0,32.000000
-55,-1,37,1625193209.0,32.000000
-55,-1,37,1625193209.0,32.000000
-55,-1,37,1625193209.0,32.000000
-55,-1,37,1625193209.0,32.000000
-55,-1,37,1625193209.0,32.000000
-55,-1,37,1625193209.0,32.000000
-55,-1,37,1625193209.0,32.000000
-55,-1,37,1625193209.0,32.000000
-55,-1,37,1625193209.0,32.000000
-55,-2,37,1625193209.0,32.000000
-55,-1,37,1625193209.0,32.000000
-55,-1,37,1625193209.0,32.000000
-55,-1,37,1625193209.0,32.000000
-55,-1,37,1625193209.0,32.000000
-55,-1,37,1625193209.0,32.000000
-55,-2,37,1625193209.0,32.000000
-55,-1,37,1625193209.0,32.000000
-55,-2,37,1625193209.0,32.000000
-55,-1,37,1625193209.0,32.000000
-55,-1,37,1625193209.0,32.000000
-55,-1,38,1625193209.0,32.000000
-55,-1,37,1625193209.0,32.000000
-55,-1,37,1625193209.0,32.000000
-55,-1,37,1625193209.0,32.000000
-55,-1,37,1625193209.0,32.000000
-55,-1,37,1625193209.0,32.000000
-55,-1,37,1625193209.0,32.000000
-55,-1,37,1625193209.0,32.000000
-55,-1,37,1625193209.0,32.000000
-55,-1,37,1625193209.0,32.000000
-55,-1,37,1625193209.0,32.000000
-55,-1,37,1625193209.0,32.000000
-55,-1,37,1625193209.0,32.000000
-55,-2,37,1625193209.0,32.000000
-55,-2,37,1625193209.0,32.000000
-55,-1,37,1625193209.0,32.000000
-55,-1,37,1625193209.0,32.000000
-55,-1,37,1625193209.0,32.000000
-55,-1,37,1625193209.0,32.000000
-55,-2,37,1625193209.0,32.000000
-55,-2,37,1625193209.0,32.000000
-55,-2,37,1625193209.0,32.000000
-55,-1,37,1625193209.0,32.000000
-55,-1,37,1625193209.0,32.000000
-55,-1,37,1625193209.0,32.000000
-55,-1,37,1625193209.0,32.000000
-55,-1,37,1625193209.0,32.000000
-55,-1,37,1625193209.0,32.000000
-55,-1,37,1625193209.0,32.000000
-55,-1,37,1625193209.0,32.000000
-55,-1,37,1625193209.0,32.000000
-55,-1,37,1625193209.0,32.000000
-55,-2,37,1625193209.0,32.000000
-55,-2,37,1625193209.0,32.000000
-55,-1,37,1625193209.0,32.000000
-55,-1,37,1625193209.0,32.000000
-55,-1,37,1625193209.0,32.000000
-55,-1,37,1625193209.0,32.000000
-55,-2,37,1625193209.0,32.000000
-55,-1,37,1625193209.0,32.000000
-55,-1,37,1625193209.0,32.000000
-54,-2,37,1625193209.0,32.000000
-55,-2,37,1625193209.0,32.000000
-56,-2,37,1625193209.0,32.000000
-59,0,38,1625193209.0,32.000000
-60,0,38,1625193209.0,32.000000
-60,1,42,1625193209.0,32.000000
-61,3,43,1625193209.0,32.000000
-63,1,43,1625193209.0,32.000000
-59,0,44,1625193209.0,32.000000
-58,0,41,1625193209.0,32.000000
-61,-8,28,1625193209.0,32.000000
-63,-13,25,1625193209.0,32.000000
-63,-19,22,1625193209.0,32.000000
-58,-24,12,1625193209.0,32.000000
-52,-24,12,1625193209.0,32.000000
-52,-24,18,1625193209.0,32.000000
-53,-27,23,1625193209.0,32.000000
-50,-27,24,1625193209.0,32.000000
-41,-26,32,1625193209.0,32.000000
-41,-23,39,1625193209.0,32.000000
-38,-19,45,1625193209.0,32.000000
-35,-21,45,1625193209.0,32.000000
-26,-16,56,1625193209.0,32.000000
-23,-11,61,1625193209.0,32.000000
-23,-10,66,1625193209.0,32.000000
-13,-11,64,1625193209.0,32.000000
-12,-12,65,1625193209.0,32.000000
-21,-9,63,1625193209.0,32.000000
-27,-6,61,1625193209.0,32.000000
-27,-6,59,1625193209.0,32.000000
-24,-3,60,1625193209.0,32.000000
-22,-2,61,1625193209.0,32.000000
-26,0,61,1625193209.0,32.000000
-22,1,66,1625193209.0,32.000000
-25,0,63,1625193209.0,32.000000
-22,-4,64,1625193209.0,32.000000
-21,-4,63,1625193209.0,32.000000
-23,-3,60,1625193209.0,32.000000
-20,-1,59,1625193209.0,32.000000
-18,1,60,1625193209.0,32.000000
-20,4,60,1625193209.0,32.000000
-21,7,59,1625193209.0,32.000000
-15,7,65,1625193209.0,32.000000
-20,10,66,1625193209.0,32.000000
-19,9,67,1625193209.0,32.000000
-19,7,66,1625193209.0,32.000000
-21,7,66,1625193209.0,32.000000
-23,4,62,1625193209.0,32.000000
-20,5,63,1625193209.0,32.000000
-21,5,62,1625193209.0,32.000000
-22,4,61,1625193209.0,32.000000
-22,4,61,1625193209.0,32.000000
-24,4,57,1625193209.0,32.000000
-23,2,59,1625193209.0,32.000000
-23,3,60,1625193209.0,32.000000
-23,1,61,1625193209.0,32.000000
-21,1,62,1625193209.0,32.000000
-22,4,61,1625193209.0,32.000000
-26,7,61,1625193209.0,32.000000
-35,12,61,1625193209.0,32.000000
-25,16,54,1625193209.0,32.000000
-19,13,53,1625193209.0,32.000000
-19,1,55,1625193209.0,32.000000
-19,0,58,1625193209.0,32.000000
-13,-4,64,1625193209.0,32.000000
-22,-2,64,1625193209.0,32.000000
-24,-1,66,1625193209.0,32.000000
-24,-1,66,1625193209.0,32.000000
-25,-1,66,1625193209.0,32.000000
-25,0,62,1625193209.0,32.000000
-23,1,61,1625193209.0,32.000000
-23,2,60,1625193209.0,32.000000
-29,-1,61,1625193209.0,32.000000
-22,2,74,1625193209.0,32.000000
-34,5,57,1625193209.0,32.000000
-28,15,61,1625193209.0,32.000000
-29,13,62,1625193209.0,32.000000
-27,9,61,1625193209.0,32.000000
-16,5,60,1625193209.0,32.000000
-13,-4,65,1625193209.0,32.000000
9,-11,58,1625193209.0,32.000000
6,-10,58,1625193209.0,32.000000
-11,-9,51,1625193209.0,32.000000
-10,-9,59,1625193209.0,32.000000
-7,-9,71,1625193209.0,32.000000
-17,-13,70,1625193209.0,32.000000
-14,-16,68,1625193209.0,32.000000
-13,-11,64,1625193209.0,32.000000
-15,-10,58,1625193209.0,32.000000
-18,-13,59,1625193209.0,32.000000
-28,-12,59,1625193209.0,32.000000
-28,-11,59,1625193209.0,32.000000
-25,-8,60,1625193209.0,32.000000
-25,-8,61,1625193209.0,32.000000
-24,-8,62,1625193209.0,32.000000
-26,-6,62,1625193209.0,32.000000
-24,-5,63,1625193209.0,32.000000
-24,-6,61,1625193209.0,32.000000
-25,-6,59,1625193209.0,32.000000
-24,-8,59,1625193209.0,32.000000
-24,-8,58,1625193209.0,32.000000
-25,-8,58,1625193209.0,32.000000
-26,-8,59,1625193209.0,32.000000
-26,-8,59,1625193209.0,32.000000
-24,-8,61,1625193209.0,32.000000
-25,-8,62,1625193209.0,32.000000
-22,-8,64,1625193209.0,32.000000
-26,-9,63,1625193209.0,32.000000
-27,-10,63,1625193209.0,32.000000
-22,-12,59,1625193209.0,32.000000
-18,-10,55,1625193209.0,32.000000
-25,-6,56,1625193209.0,32.000000
-27,-6,60,1625193209.0,32.000000
-27,-5,59,1625193209.0,32.000000
-24,-3,59,1625193209.0,32.000000
-31,-1,61,1625193209.0,32.000000
-30,-1,60,1625193209.0,32.000000
-32,-2,58,1625193209.0,32.000000
-30,-2,60,1625193209.0,32.000000
-29,-2,59,1625193209.0,32.000000
-29,0,60,1625193209.0,32.000000
-33,1,57,1625193209.0,32.000000
-28,2,56,1625193209.0,32.000000
-33,2,58,1625193209.0,32.000000
-33,3,57,1625193209.0,32.000000
-31,1,55,1625193209.0,32.000000
-16,1,60,1625193209.0,32.000000
-38,6,64,1625193209.0,32.000000
-37,4,57,1625193209.0,32.000000
-28,4,58,1625193209.0,32.000000
-29,4,55,1625193209.0,32.000000
-31,3,56,1625193209.0,32.000000
-28,2,58,1625193209.0,32.000000
-28,-2,56,1625193209.0,32.000000
-24,-3,59,1625193209.0,32.000000
-23,-2,60,1625193209.0,32.000000
-29,0,59,1625193209.0,32.000000
-27,0,61,1625193209.0,32.000000
-29,1,61,1625193209.0,32.000000
-29,1,60,1625193209.0,32.000000
-28,2,62,1625193209.0,32.000000
-35,3,59,1625193209.0,32.000000
-35,2,63,1625193209.0,32.000000
-25,3,66,1625193209.0,32.000000
-19,-1,64,1625193209.0,32.000000
-16,-1,63,1625193209.0,32.000000
-17,4,61,1625193209.0,32.000000
-19,3,61,1625193209.0,32.000000
-24,1,58,1625193209.0,32.000000
-21,0,59,1625193209.0,32.000000
-20,0,60,1625193209.0,32.000000
-24,0,60,1625193209.0,32.000000
-22,1,61,1625193209.0,32.000000
-25,2,61,1625193209.0,32.000000
-20,3,63,1625193209.0,32.000000
-21,3,61,1625193209.0,32.000000
-22,2,60,1625193209.0,32.000000
-20,0,62,1625193209.0,32.000000
-14,1,66,1625193209.0,32.000000
-14,-4,67,1625193209.0,32.000000
-14,-4,67,1625193209.0,32.000000
-9,-7,67,1625193209.0,32.000000
-8,-10,64,1625193209.0,32.000000
-6,-10,62,1625193209.0,32.000000
-9,-13,60,1625193209.0,32.000000
-10,-15,58,1625193209.0,32.000000
-9,-13,54,1625193209.0,32.000000
-10,-15,55,1625193209.0,32.000000
-17,-17,54,1625193209.0,32.000000
-22,-16,55,1625193209.0,32.000000
-27,-16,58,1625193209.0,32.000000
-37,-15,59,1625193209.0,32.000000
-36,-17,58,1625193209.0,32.000000
-30,-14,58,1625193209.0,32.000000
-32,-13,58,1625193209.0,32.000000
-35,-11,58,1625193209.0,32.000000
-33,-11,58,1625193209.0,32.000000
-33,-11,58,1625193209.0,32.000000
-29,-11,59,1625193209.0,32.000000
-27,-10,59,1625193209.0,32.000000
-25,-10,60,1625193209.0,32.000000
-24,-9,60,1625193209.0,32.000000
-23,-10,59,1625193209.0,32.000000
-26,-9,60,1625193209.0,32.000000
-25,-10,59,1625193209.0,32.000000
-24,-10,60,1625193209.0,32.000000
-24,-11,59,1625193209.0,32.000000
-26,-11,58,1625193209.0,32.000000
-25,-10,59,1625193209.0,32.000000
-26,-10,60,1625193209.0,32.000000
-28,-10,59,1625193209.0,32.000000
-27,-10,59,1625193209.0,32.000000
-26,-9,59,1625193209.0,32.000000
-27,-10,59,1625193209.0,32.000000
-27,-10,59,1625193209.0,32.000000
-27,-10,59,1625193209.0,32.000000
-26,-10,59,1625193209.0,32.000000
-26,-10,59,1625193209.0,32.000000
-27,-10,59,1625193209.0,32.000000
-26,-10,59,1625193209.0,32.000000
-27,-10,59,1625193209.0,32.000000
-27,-10,59,1625193209.0,32.000000
-27,-10,58,1625193209.0,32.000000
-28,-10,59,1625193209.0,32.000000
-27,-10,59,1625193209.0,32.000000
-27,-10,59,1625193209.0,32.000000
-27,-10,59,1625193209.0,32.000000
-27,-10,59,1625193209.0,32.000000
-26,-10,59,1625193209.0,32.000000
-27,-11,58,1625193209.0,32.000000
-27,-10,59,1625193209.0,32.000000
-29,-8,65,1625193209.0,32.000000
-30,-8,68,1625193209.0,32.000000
-43,-4,82,1625193209.0,32.000000
-54,-2,82,1625193209.0,32.000000
-74,-4,74,1625193209.0,32.000000
-78,-7,63,1625193209.0,32.000000
-76,-18,43,1625193209.0,32.000000
-64,-29,25,1625193209.0,32.000000
-59,-35,20,1625193209.0,32.000000
-46,-34,24,1625193209.0,32.000000
-32,-34,30,1625193209.0,32.000000
2,-34,35,1625193209.0,32.000000
4,-34,36,1625193209.0,32.000000
13,-34,42,1625193209.0,32.000000
16,-35,44,1625193209.0,32.000000
8,-34,40,1625193209.0,32.000000
2,-38,34,1625193209.0,32.000000
-6,-39,34,1625193209.0,32.000000
-9,-40,35,1625193209.0,32.000000
-9,-43,36,1625193209.0,32.000000
-9,-44,39,1625193209.0,32.000000
-13,-45,40,1625193209.0,32.000000
-12,-45,42,1625193209.0,32.000000
-14,-46,44,1625193209.0,32.000000
-18,-47,40,1625193209.0,32.000000
-19,-45,39,1625193209.0,32.000000
-18,-48,41,1625193209.0,32.000000
-19,-46,42,1625193209.0,32.000000
-16,-47,41,1625193209.0,32.000000
-14,-47,41,1625193209.0,32.000000
-11,-46,42,1625193209.0,32.000000
-15,-46,40,1625193209.0,32.000000
-16,-46,37,1625193209.0,32.000000
-15,-46,38,1625193209.0,32.000000
-21,-45,40,1625193209.0,32.000000
-20,-43,43,1625193209.0,32.000000
-6,-39,56,1625193209.0,32.000000
0,-34,52,1625193209.0,32.000000
2,-33,46,1625193209.0,32.000000
-3,-34,36,1625193209.0,32.000000
-6,-36,30,1625193209.0,32.000000
-9,-41,18,1625193209.0,32.000000
-4,-44,18,1625193209.0,32.000000
1,-46,11,1625193209.0,32.000000
12,-49,29,1625193209.0,32.000000
11,-46,34,1625193209.0,32.000000
-8,-24,51,1625193209.0,32.000000
-25,-21,67,1625193209.0,32.000000
-41,-17,73,1625193209.0,32.000000
-27,-6,71,1625193209.0,32.000000
-37,-7,75,1625193209.0,32.000000
-47,0,89,1625193209.0,32.000000
-45,-3,79,1625193209.0,32.000000
-35,-6,69,1625193209.0,32.000000
-26,-3,70,1625193209.0,32.000000
-24,-2,68,1625193209.0,32.000000
-27,-2,64,1625193209.0,32.000000
-22,-2,64,1625193209.0,32.000000
-20,0,61,1625193209.0,32.000000
-24,0,54,1625193209.0,32.000000
-21,-4,58,1625193209.0,32.000000
-8,1,59,1625193209.0,32.000000
-5,14,77,1625193209.0,32.000000
-27,11,72,1625193209.0,32.000000
-17,9,66,1625193209.0,32.000000
-17,6,65,1625193209.0,32.000000
-17,-2,62,1625193209.0,32.000000
-14,-1,61,1625193209.0,32.000000
-17,0,60,1625193209.0,32.000000
-19,0,61,1625193209.0,32.000000
-20,3,59,1625193209.0,32.000000
-19,1,62,1625193209.0,32.000000
-19,0,63,1625193209.0,32.000000
-17,-1,62,1625193209.0,32.000000
-21,-10,62,1625193209.0,32.000000
-22,-10,62,1625193209.0,32.000000
-20,-17,65,1625193209.0,32.000000
-25,-17,64,1625193209.0,32.000000
-24,-16,58,1625193209.0,32.000000
-32,-14,52,1625193209.0,32.000000
-39,-14,46,1625193209.0,32.000000
-35,-14,47,1625193209.0,32.000000
-39,-10,46,1625193209.0,32.000000
-47,-13,40,1625193209.0,32.000000
-49,-14,43,1625193209.0,32.000000
-42,-16,43,1625193209.0,32.000000
-35,-14,51,1625193209.0,32.000000
-36,-15,57,1625193209.0,32.000000
-43,-15,52,1625193209.0,32.000000
-48,-12,43,1625193209.0,32.000000
-50,-12,38,1625193209.0,32.000000
-58,-10,27,1625193209.0,32.000000
-63,-9,25,1625193209.0,32.000000
-67,-6,23,1625193209.0,32.000000
-63,-6,25,1625193209.0,32.000000
-64,-5,30,1625193209.0,32.000000
-61,-4,31,1625193209.0,32.000000
-64,-2,33,1625193209.0,32.000000
-61,-3,30,1625193209.0,32.000000
-62,-2,30,1625193209.0,32.000000
-62,-1,30,1625193209.0,32.000000
-60,-2,29,1625193209.0,32.000000
-59,-2,29,1625193209.0,32.000000
-60,-3,30,1625193209.0,32.000000
-59,-4,30,1625193209.0,32.000000
-60,-6,29,1625193209.0,32.000000
-58,-6,30,1625193209.0,32.000000
-58,-5,30,1625193209.0,32.000000
-58,-5,30,1625193209.0,32.000000
-59,-3,31,1625193209.0,32.000000
-60,-2,30,1625193209.0,32.000000
-61,-3,28,1625193209.0,32.000000
-60,-4,27,1625193209.0,32.000000
-61,-5,27,1625193209.0,32.000000
-60,-5,27,1625193209.0,32.000000
-60,-6,28,1625193209.0,32.000000
-59,-4,29,1625193209.0,32.000000
-61,-4,30,1625193209.0,32.000000
-65,-1,28,1625193209.0,32.000000
-68,-2,29,1625193209.0,32.000000
-65,0,36,1625193209.0,32.000000
-35,-12,40,1625193209.0,32.000000
-34,-10,45,1625193209.0,32.000000
-52,-10,48,1625193209.0,32.000000
-46,-9,49,1625193209.0,32.000000
-45,-8,49,1625193209.0,32.000000
-45,-11,45,1625193209.0,32.000000
-40,-12,43,1625193209.0,32.000000
-38,-12,41,1625193209.0,32.000000
-48,-10,43,1625193209.0,32.000000
-45,-7,46,1625193209.0,32.000000
-43,-7,40,1625193209.0,32.000000
-49,-8,38,1625193209.0,32.000000
-53,-6,41,1625193209.0,32.000000
-55,-5,41,1625193209.0,32.000000
-50,-6,43,1625193209.0,32.000000
-41,-7,44,1625193209.0,32.000000
-64,-2,48,1625193209.0,32.000000
-46,3,49,1625193209.0,32.000000
-42,3,47,1625193209.0,32.000000
-60,2,41,1625193209.0,32.000000
-55,-1,41,1625193209.0,32.000000
-58,0,38,1625193209.0,32.000000
-52,-2,37,1625193209.0,32.000000
-54,1,35,1625193209.0,32.000000
-56,0,36,1625193209.0,32.000000
-57,0,36,1625193209.0,32.000000
-57,0,35,1625193209.0,32.000000
-55,-2,35,1625193209.0,32.000000
-55,-2,36,1625193209.0,32.000000
-55,-2,37,1625193209.0,32.000000
-54,-2,37,1625193209.0,32.000000
-52,-3,36,1625193209.0,32.000000
-58,-1,36,1625193209.0,32.000000
-59,0,36,1625193209.0,32.000000
-55,-1,36,1625193209.0,32.000000
-56,-1,36,1625193209.0,32.000000
-55,0,39,1625193209.0,32.000000
-56,-1,37,1625193209.0,32.000000
-55,-2,38,1625193209.0,32.000000
-54,-2,37,1625193209.0,32.000000
-53,-1,39,1625193209.0,32.000000
-53,0,40,1625193209.0,32.000000
-55,-1,37,1625193209.0,32.000000
-55,-1,37,1625193209.0,32.000000
-55,-2,37,1625193209.0,32.000000
-55,-2,36,1625193209.0,32.000000
-54,-2,38,1625193209.0,32.000000
-56,-1,37,1625193209.0,32.000000
-54,-2,38,1625193209.0,32.000000
-54,-2,37,1625193209.0,32.000000
-55,-1,37,1625193209.0,32.000000
-54,-2,38,1625193209.0,32.000000
-54,-2,38,1625193209.0,32.000000
-54,-2,37,1625193209.0,32.000000
-54,-2,38,1625193209.0,32.000000
-54,-2,38,1625193209.0,32.000000
-54,-2,38,1625193209.0,32.000000
-54,-2,38,1625193209.0,32.000000
-55,-2,38,1625193209.0,32.000000
-55,-2,38,1625193209.0,32.000000
-54,-2,38,1625193209.0,32.000000
-54,-2,38,1625193209.0,32.000000
-54,-2,39,1625193209.0,32.000000
-54,-2,38,1625193209.0,32.000000
-53,-2,38,1625193209.0,32.000000
-54,-2,38,1625193209.0,32.000000
-53,-2,38,1625193209.0,32.000000
-54,-2,39,1625193209.0,32.000000
-56,-2,37,1625193209.0,32.000000
-54,-2,38,1625193209.0,32.000000
-54,-2,38,1625193209.0,32.000000
-55,-2,38,1625193209.0,32.000000
-55,-2,38,1625193209.0,32.000000
-54,-2,38,1625193209.0,32.000000
-55,-2,38,1625193209.0,32.000000
-54,-2,38,1625193209.0,32.000000
-55,-2,37,1625193209.0,32.000000
-55,-2,37,1625193209.0,32.000000
-54,-2,37,1625193209.0,32.000000
-54,-2,38,1625193209.0,32.000000
-55,-2,38,1625193209.0,32.000000
-55,-2,37,1625193209.0,32.000000
-55,-2,38,1625193209.0,32.000000
-55,-2,38,1625193209.0,32.000000
-55,-2,38,1625193209.0,32.000000
-55,-2,37,1625193209.0,32.000000
-55,-2,38,1625193209.0,32.000000
-55,-2,38,1625193209.0,32.000000
-54,-2,38,1625193209.0,32.000000
-55,-2,37,1625193209.0,32.000000
-55,-2,37,1625193209.0,32.000000
-55,-2,37,1625193209.0,32.000000
-55,-2,38,1625193209.0,32.000000
-54,-2,38,1625193209.0,32.000000
-55,-2,38,1625193209.0,32.000000
-55,-2,37,1625193209.0,32.000000
-55,-2,38,1625193209.0,32.000000
-54,-2,38,1625193209.0,32.000000
-55,-3,37,1625193209.0,32.000000
-55,-2,37,1625193209.0,32.000000
-55,-2,38,1625193209.0,32.000000
-55,-2,37,1625193209.0,32.000000
-55,-2,37,1625193209.0,32.000000
-55,-2,38,1625193209.0,32.000000
-54,-2,38,1625193209.0,32.000000
-54,-2,38,1625193209.0,32.000000
-55,-2,38,1625193209.0,32.000000
-55,-2,38,1625193209.0,32.000000
-55,-2,38,1625193209.0,32.000000
-55,-2,38,1625193209.0,32.000000
-55,-2,38,1625193209.0,32.000000
-54,-2,37,1625193209.0,32.000000
-55,-2,37,1625193209.0,32.000000
-54,-2,37,1625193209.0,32.000000
-55,-3,37,1625193209.0,32.000000
-55,-2,38,1625193209.0,32.000000
-54,-2,38,1625193209.0,32.000000
-55,-2,38,1625193209.0,32.000000
-55,-2,38,1625193209.0,32.000000
-55,-2,37,1625193209.0,32.000000
-54,-2,38,1625193209.0,32.000000
-55,-3,38,1625193209.0,32.000000
-55,-2,38,1625193209.0,32.000000
-55,-3,37,1625193209.0,32.000000
-55,-2,37,1625193209.0,32.000000
-54,-2,38,1625193209.0,32.000000
-55,-2,38,1625193209.0,32.000000
-54,-2,37,1625193209.0,32.000000
-55,-3,38,1625193209.0,32.000000
-55,-3,38,1625193209.0,32.000000
-54,-2,37,1625193209.0,32.000000
-55,-2,38,1625193209.0,32.000000
-54,-2,37,1625193209.0,32.000000
-54,-2,38,1625193209.0,32.000000
-55,-2,38,1625193209.0,32.000000
-55,-3,37,1625193209.0,32.000000
-55,-3,37,1625193209.0,32.000000
-54,-2,38,1625193209.0,32.000000
-55,-2,38,1625193209.0,32.000000
-55,-3,37,1625193209.0,32.000000
-55,-3,37,1625193209.0,32.000000
-55,-3,37,1625193209.0,32.000000
-55,-2,38,1625193209.0,32.000000
-54,-2,38,1625193209.0,32.000000
-54,-3,38,1625193209.0,32.000000
-55,-3,38,1625193209.0,32.000000
-55,-2,38,1625193209.0,32.000000
-55,-2,38,1625193209.0,32.000000
-54,-2,38,1625193209.0,32.000000
-55,-3,38,1625193209.0,32.000000
-54,-3,38,1625193209.0,32.000000
-54,-3,37,1625193209.0,32.000000
-55,-3,37,1625193209.0,32.000000
-55,-3,37,1625193209.0,32.000000
-55,-3,37,1625193209.0,32.000000
-55,-2,38,1625193209.0,32.000000
-55,-2,37,1625193209.0,32.000000
-54,-2,37,1625193209.0,32.000000
-55,-3,38,1625193209.0,32.000000
-55,-3,37,1625193209.0,32.000000
-55,-3,37,1625193209.0,32.000000
-55,-3,38,1625193209.0,32.000000
-54,-3,38,1625193209.0,32.000000
-54,-2,38,1625193209.0,32.000000
-54,-2,38,1625193209.0,32.000000
-54,-2,38,1625193209.0,32.000000
-54,-2,38,1625193209.0,32.000000
-55,-3,38,1625193209.0,32.000000
-55,-3,38,1625193209.0,32.000000
-54,-3,38,1625193209.0,32.000000
-55,-3,38,1625193209.0,32.000000
-55,-3,38,1625193209.0,32.000000
-55,-3,37,1625193209.0,32.000000
-55,-3,38,1625193209.0,32.000000
-54,-3,38,1625193209.0,32.000000
-54,-3,37,1625193209.0,32.000000
-55,-3,38,1625193209.0,32.000000
-54,-3,38,1625193209.0,32.000000
-54,-3,37,1625193209.0,32.000000
-55,-3,37,1625193209.0,32.000000
-55,-3,37,1625193209.0,32.000000
-55,-3,38,1625193209.0,32.000000
-55,-3,38,1625193209.0,32.000000
-54,-3,38,1625193209.0,32.000000
-55,-3,38,1625193209.0,32.000000
-55,-3,37,1625193209.0,32.000000
-54,-3,37,1625193209.0,32.000000
-55,-3,38,1625193209.0,32.000000
-54,-3,38,1625193209.0,32.000000
-54,-3,37,1625193209.0,32.000000
-55,-3,37,1625193209.0,32.000000
-54,-3,38,1625193209.0,32.000000
-55,-3,37,1625193209.0,32.000000
