ACC_X,ACC_Y,ACC_Z,start_time_unix,sampling_rate
-43,2,46,1625193209.0,32.000000
-43,2,46,1625193209.0,32.000000
-43,2,47,1625193209.0,32.000000
-43,2,46,1625193209.0,32.000000
-43,2,46,1625193209.0,32.000000
-43,2,46,1625193209.0,32.000000
-43,2,47,1625193209.0,32.000000
-43,2,46,1625193209.0,32.000000
-43,2,47,1625193209.0,32.000000
-43,2,47,1625193209.0,32.000000
-43,2,47,1625193209.0,32.000000
-43,2,46,1625193209.0,32.000000
-43,2,46,1625193209.0,32.000000
-43,2,47,1625193209.0,32.000000
-43,2,47,1625193209.0,32.000000
-43,2,46,1625193209.0,32.000000
-43,3,46,1625193209.0,32.000000
-43,3,46,1625193209.0,32.000000
-43,2,47,1625193209.0,32.000000
-43,2,46,1625193209.0,32.000000
-43,2,46,1625193209.0,32.000000
-43,2,46,1625193209.0,32.000000
-43,2,46,1625193209.0,32.000000
-43,3,46,1625193209.0,32.000000
-43,3,46,1625193209.0,32.000000
-43,2,46,1625193209.0,32.000000
-44,2,46,1625193209.0,32.000000
-44,1,46,1625193209.0,32.000000
-48,3,44,1625193209.0,32.000000
-50,4,43,1625193209.0,32.000000
-63,2,38,1625193209.0,32.000000
-76,9,42,1625193209.0,32.000000
-42,6,64,1625193209.0,32.000000
-48,9,60,1625193209.0,32.000000
-45,15,49,1625193209.0,32.000000
-43,19,47,1625193209.0,32.000000
-40,19,51,1625193209.0,32.000000
-38,16,49,1625193209.0,32.000000
-31,17,51,1625193209.0,32.000000
-20,12,59,1625193209.0,32.000000
-20,11,60,1625193209.0,32.000000
-15,9,57,1625193209.0,32.000000
-9,6,55,1625193209.0,32.000000
-9,3,56,1625193209.0,32.000000
-8,1,61,1625193209.0,32.000000
-8,-2,62,1625193209.0,32.000000
1,-5,62,1625193209.0,32.000000
5,-8,63,1625193209.0,32.000000
6,-10,62,1625193209.0,32.000000
12,-11,57,1625193209.0,32.000000
6,-12,56,1625193209.0,32.000000
5,-12,56,1625193209.0,32.000000
8,-8,58,1625193209.0,32.000000
6,-9,58,1625193209.0,32.000000
4,-10,58,1625193209.0,32.000000
0,-9,60,1625193209.0,32.000000
0,-9,62,1625193209.0,32.000000
3,-7,64,1625193209.0,32.000000
3,-7,65,1625193209.0,32.000000
-1,-6,65,1625193209.0,32.000000
-1,-6,66,1625193209.0,32.000000
0,-4,66,1625193209.0,32.000000
1,-5,67,1625193209.0,32.000000
0,-5,66,1625193209.0,32.000000
1,-6,65,1625193209.0,32.000000
-1,-6,65,1625193209.0,32.000000
1,-6,64,1625193209.0,32.000000
2,-8,62,1625193209.0,32.000000
-2,-5,61,1625193209.0,32.000000
-1,-5,61,1625193209.0,32.000000
-2,-4,62,1625193209.0,32.000000
-4,-3,62,1625193209.0,32.000000
-5,-2,61,1625193209.0,32.000000
-9,-3,61,1625193209.0,32.000000
-8,-3,62,1625193209.0,32.000000
-8,-2,64,1625193209.0,32.000000
-6,-1,64,1625193209.0,32.000000
-5,-2,63,1625193209.0,32.000000
-7,0,64,1625193209.0,32.000000
-6,-1,63,1625193209.0,32.000000
-6,-2,61,1625193209.0,32.000000
-5,-2,59,1625193209.0,32.000000
-5,-2,60,1625193209.0,32.000000
-4,-3,62,1625193209.0,32.000000
-3,-4,63,1625193209.0,32.000000
-4,-5,64,1625193209.0,32.000000
-4,-5,65,1625193209.0,32.000000
-5,-5,65,1625193209.0,32.000000
-5,-7,66,1625193209.0,32.000000
-3,-7,68,1625193209.0,32.000000
-3,-10,69,1625193209.0,32.000000
-5,-9,72,1625193209.0,32.000000
-6,-10,76,1625193209.0,32.000000
-1,-6,83,1625193209.0,32.000000
3,-2,86,1625193209.0,32.000000
4,-1,85,1625193209.0,32.000000
2,2,77,1625193209.0,32.000000
2,4,74,1625193209.0,32.000000
1,6,67,1625193209.0,32.000000
0,7,58,1625193209.0,32.000000
-2,8,54,1625193209.0,32.000000
-4,9,47,1625193209.0,32.000000
-4,9,45,1625193209.0,32.000000
-2,9,43,1625193209.0,32.000000
2,9,40,1625193209.0,32.000000
0,8,37,1625193209.0,32.000000
10,8,38,1625193209.0,32.000000
14,11,39,1625193209.0,32.000000
16,17,39,1625193209.0,32.000000
11,15,37,1625193209.0,32.000000
10,20,37,1625193209.0,32.000000
6,25,38,1625193209.0,32.000000
6,26,43,1625193209.0,32.000000
6,32,45,1625193209.0,32.000000
-8,24,47,1625193209.0,32.000000
-18,25,46,1625193209.0,32.000000
-32,26,50,1625193209.0,32.000000
-28,28,72,1625193209.0,32.000000
-25,30,73,1625193209.0,32.000000
-28,29,68,1625193209.0,32.000000
-32,31,62,1625193209.0,32.000000
-34,30,61,1625193209.0,32.000000
-35,31,57,1625193209.0,32.000000
-34,28,56,1625193209.0,32.000000
-40,23,51,1625193209.0,32.000000
-44,23,44,1625193209.0,32.000000
-37,22,47,1625193209.0,32.000000
-40,16,64,1625193209.0,32.000000
-44,13,70,1625193209.0,32.000000
-39,13,67,1625193209.0,32.000000
-30,11,60,1625193209.0,32.000000
-30,8,57,1625193209.0,32.000000
-29,8,51,1625193209.0,32.000000
-29,7,49,1625193209.0,32.000000
-34,7,47,1625193209.0,32.000000
-39,9,44,1625193209.0,32.000000
-43,8,47,1625193209.0,32.000000
-48,7,61,1625193209.0,32.000000
-51,2,48,1625193209.0,32.000000
-46,1,47,1625193209.0,32.000000
-42,4,42,1625193209.0,32.000000
-43,4,41,1625193209.0,32.000000
-49,1,45,1625193209.0,32.000000
-44,2,47,1625193209.0,32.000000
-42,2,47,1625193209.0,32.000000
-41,2,47,1625193209.0,32.000000
-41,2,47,1625193209.0,32.000000
-41,2,48,1625193209.0,32.000000
-42,2,48,1625193209.0,32.000000
-41,3,48,1625193209.0,32.000000
-42,2,47,1625193209.0,32.000000
-43,2,47,1625193209.0,32.000000
-43,2,47,1625193209.0,32.000000
-44,3,46,1625193209.0,32.000000
-45,3,47,1625193209.0,32.000000
-41,3,47,1625193209.0,32.000000
-42,3,47,1625193209.0,32.000000
-44,2,46,1625193209.0,32.000000
-37,3,49,1625193209.0,32.000000
-38,2,50,1625193209.0,32.000000
-44,1,46,1625193209.0,32.000000
-43,2,46,1625193209.0,32.000000
-43,2,46,1625193209.0,32.000000
-44,2,45,1625193209.0,32.000000
-44,3,45,1625193209.0,32.000000
-44,2,46,1625193209.0,32.000000
-45,3,43,1625193209.0,32.000000
-46,3,43,1625193209.0,32.000000
-45,4,43,1625193209.0,32.000000
-48,3,42,1625193209.0,32.000000
-47,3,43,1625193209.0,32.000000
-46,3,43,1625193209.0,32.000000
-46,3,44,1625193209.0,32.000000
-49,4,40,1625193209.0,32.000000
-44,3,45,1625193209.0,32.000000
-49,2,44,1625193209.0,32.000000
-43,3,44,1625193209.0,32.000000
-45,3,42,1625193209.0,32.000000
-45,3,42,1625193209.0,32.000000
-46,4,42,1625193209.0,32.000000
-48,4,43,1625193209.0,32.000000
-48,2,45,1625193209.0,32.000000
-44,2,45,1625193209.0,32.000000
-44,2,44,1625193209.0,32.000000
-44,4,42,1625193209.0,32.000000
-48,2,44,1625193209.0,32.000000
-48,3,43,1625193209.0,32.000000
-45,4,43,1625193209.0,32.000000
-45,4,42,1625193209.0,32.000000
-45,3,43,1625193209.0,32.000000
-46,3,45,1625193209.0,32.000000
-46,2,44,1625193209.0,32.000000
-45,2,44,1625193209.0,32.000000
-45,2,43,1625193209.0,32.000000
-45,4,42,1625193209.0,32.000000
-48,1,45,1625193209.0,32.000000
-47,2,44,1625193209.0,32.000000
-47,3,41,1625193209.0,32.000000
-47,3,42,1625193209.0,32.000000
-45,2,46,1625193209.0,32.000000
-44,2,44,1625193209.0,32.000000
-44,3,44,1625193209.0,32.000000
-45,3,42,1625193209.0,32.000000
-48,1,45,1625193209.0,32.000000
-47,3,42,1625193209.0,32.000000
-46,2,43,1625193209.0,32.000000
-46,2,43,1625193209.0,32.000000
-45,2,43,1625193209.0,32.000000
-45,3,43,1625193209.0,32.000000
-46,3,43,1625193209.0,32.000000
-45,1,46,1625193209.0,32.000000
-46,3,42,1625193209.0,32.000000
-47,2,42,1625193209.0,32.000000
-45,2,44,1625193209.0,32.000000
-45,2,44,1625193209.0,32.000000
-44,3,44,1625193209.0,32.000000
-45,3,43,1625193209.0,32.000000
-45,4,43,1625193209.0,32.000000
-47,1,45,1625193209.0,32.000000
-46,2,42,1625193209.0,32.000000
-45,2,45,1625193209.0,32.000000
-45,3,44,1625193209.0,32.000000
-44,3,43,1625193209.0,32.000000
-44,3,44,1625193209.0,32.000000
-47,3,46,1625193209.0,32.000000
-47,0,46,1625193209.0,32.000000
-44,3,42,1625193209.0,32.000000
-44,3,42,1625193209.0,32.000000
-47,2,43,1625193209.0,32.000000
-47,2,43,1625193209.0,32.000000
-47,3,42,1625193209.0,32.000000
-46,3,43,1625193209.0,32.000000
-46,3,44,1625193209.0,32.000000
-45,3,44,1625193209.0,32.000000
-45,2,45,1625193209.0,32.000000
-44,2,44,1625193209.0,32.000000
-46,3,43,1625193209.0,32.000000
-46,3,43,1625193209.0,32.000000
-46,3,43,1625193209.0,32.000000
-47,3,43,1625193209.0,32.000000
-46,1,45,1625193209.0,32.000000
-44,1,45,1625193209.0,32.000000
-43,2,45,1625193209.0,32.000000
-45,3,43,1625193209.0,32.000000
-44,2,44,1625193209.0,32.000000
-45,2,44,1625193209.0,32.000000
-44,1,47,1625193209.0,32.000000
-45,4,42,1625193209.0,32.000000
-46,3,42,1625193209.0,32.000000
-48,2,43,1625193209.0,32.000000
-47,2,44,1625193209.0,32.000000
-44,2,45,1625193209.0,32.000000
-44,2,44,1625193209.0,32.000000
-45,2,45,1625193209.0,32.000000
-46,2,43,1625193209.0,32.000000
-46,2,43,1625193209.0,32.000000
-46,3,43,1625193209.0,32.000000
-46,3,43,1625193209.0,32.000000
-46,3,43,1625193209.0,32.000000
-45,2,44,1625193209.0,32.000000
-45,2,44,1625193209.0,32.000000
-45,2,43,1625193209.0,32.000000
-46,2,43,1625193209.0,32.000000
-47,2,43,1625193209.0,32.000000
-46,3,43,1625193209.0,32.000000
-44,3,43,1625193209.0,32.000000
-44,2,44,1625193209.0,32.000000
-46,2,45,1625193209.0,32.000000
-47,3,44,1625193209.0,32.000000
-46,3,42,1625193209.0,32.000000
-46,2,44,1625193209.0,32.000000
-45,2,45,1625193209.0,32.000000
-44,3,44,1625193209.0,32.000000
-45,2,43,1625193209.0,32.000000
-47,2,43,1625193209.0,32.000000
-46,2,43,1625193209.0,32.000000
-45,3,44,1625193209.0,32.000000
-45,2,45,1625193209.0,32.000000
-45,2,44,1625193209.0,32.000000
-45,2,44,1625193209.0,32.000000
-46,2,43,1625193209.0,32.000000
-46,2,44,1625193209.0,32.000000
-46,3,43,1625193209.0,32.000000
-45,2,44,1625193209.0,32.000000
-45,2,44,1625193209.0,32.000000
-45,2,45,1625193209.0,32.000000
-45,2,44,1625193209.0,32.000000
-46,2,43,1625193209.0,32.000000
-47,2,43,1625193209.0,32.000000
-46,3,44,1625193209.0,32.000000
-44,2,44,1625193209.0,32.000000
-45,2,44,1625193209.0,32.000000
-46,2,43,1625193209.0,32.000000
-47,3,43,1625193209.0,32.000000
-46,3,43,1625193209.0,32.000000
-45,2,44,1625193209.0,32.000000
-46,2,43,1625193209.0,32.000000
-46,2,43,1625193209.0,32.000000
-46,2,43,1625193209.0,32.000000
-46,2,43,1625193209.0,32.000000
-46,3,44,1625193209.0,32.000000
-46,3,43,1625193209.0,32.000000
-45,3,43,1625193209.0,32.000000
-46,3,43,1625193209.0,32.000000
-45,2,44,1625193209.0,32.000000
-45,3,43,1625193209.0,32.000000
-46,3,43,1625193209.0,32.000000
-46,3,43,1625193209.0,32.000000
-46,3,43,1625193209.0,32.000000
-46,3,44,1625193209.0,32.000000
-46,3,43,1625193209.0,32.000000
-45,3,43,1625193209.0,32.000000
-45,3,44,1625193209.0,32.000000
-46,3,43,1625193209.0,32.000000
-46,3,43,1625193209.0,32.000000
-46,3,43,1625193209.0,32.000000
-46,3,43,1625193209.0,32.000000
-46,3,43,1625193209.0,32.000000
-46,3,44,1625193209.0,32.000000
-45,3,43,1625193209.0,32.000000
-46,3,44,1625193209.0,32.000000
-46,3,43,1625193209.0,32.000000
-46,3,44,1625193209.0,32.000000
-45,3,43,1625193209.0,32.000000
-45,3,44,1625193209.0,32.000000
-45,3,44,1625193209.0,32.000000
-46,3,43,1625193209.0,32.000000
-46,3,44,1625193209.0,32.000000
-46,3,43,1625193209.0,32.000000
-45,3,44,1625193209.0,32.000000
-45,3,43,1625193209.0,32.000000
-45,3,44,1625193209.0,32.000000
-45,3,44,1625193209.0,32.000000
-45,3,44,1625193209.0,32.000000
-45,3,43,1625193209.0,32.000000
-46,3,44,1625193209.0,32.000000
-46,3,44,1625193209.0,32.000000
-45,3,43,1625193209.0,32.000000
-46,3,43,1625193209.0,32.000000
-45,3,44,1625193209.0,32.000000
-45,3,43,1625193209.0,32.000000
-46,3,43,1625193209.0,32.000000
-46,3,43,1625193209.0,32.000000
-45,3,44,1625193209.0,32.000000
-45,3,43,1625193209.0,32.000000
-45,3,43,1625193209.0,32.000000
-46,3,44,1625193209.0,32.000000
-46,3,44,1625193209.0,32.000000
-45,3,43,1625193209.0,32.000000
-45,3,43,1625193209.0,32.000000
-46,3,44,1625193209.0,32.000000
-46,3,44,1625193209.0,32.000000
-46,3,44,1625193209.0,32.000000
-45,3,44,1625193209.0,32.000000
-45,3,44,1625193209.0,32.000000
-46,3,43,1625193209.0,32.000000
-46,3,44,1625193209.0,32.000000
-45,3,43,1625193209.0,32.000000
-46,3,44,1625193209.0,32.000000
-46,3,44,1625193209.0,32.000000
-45,3,44,1625193209.0,32.000000
-45,3,44,1625193209.0,32.000000
-45,3,44,1625193209.0,32.000000
-46,3,43,1625193209.0,32.000000
-46,3,43,1625193209.0,32.000000
-46,3,44,1625193209.0,32.000000
-45,3,44,1625193209.0,32.000000
-45,3,44,1625193209.0,32.000000
-46,3,44,1625193209.0,32.000000
-46,3,43,1625193209.0,32.000000
-46,3,43,1625193209.0,32.000000
-45,3,43,1625193209.0,32.000000
-45,3,43,1625193209.0,32.000000
-46,3,44,1625193209.0,32.000000
-45,3,43,1625193209.0,32.000000
-45,3,44,1625193209.0,32.000000
-46,3,44,1625193209.0,32.000000
-45,3,43,1625193209.0,32.000000
-46,3,43,1625193209.0,32.000000
-45,3,44,1625193209.0,32.000000
-45,3,44,1625193209.0,32.000000
-46,3,44,1625193209.0,32.000000
-45,3,43,1625193209.0,32.000000
-45,3,44,1625193209.0,32.000000
-45,3,44,1625193209.0,32.000000
-46,3,44,1625193209.0,32.000000
-46,3,44,1625193209.0,32.000000
-46,3,43,1625193209.0,32.000000
-46,3,43,1625193209.0,32.000000
-45,3,43,1625193209.0,32.000000
-46,3,44,1625193209.0,32.000000
-46,3,43,1625193209.0,32.000000
-46,3,44,1625193209.0,32.000000
-45,3,44,1625193209.0,32.000000
-45,3,44,1625193209.0,32.000000
-45,3,44,1625193209.0,32.000000
-45,3,44,1625193209.0,32.000000
-46,3,44,1625193209.0,32.000000
-46,3,43,1625193209.0,32.000000
-45,3,44,1625193209.0,32.000000
-45,3,43,1625193209.0,32.000000
-45,3,43,1625193209.0,32.000000
-45,3,44,1625193209.0,32.000000
-45,3,44,1625193209.0,32.000000
-45,4,43,1625193209.0,32.000000
-46,3,44,1625193209.0,32.000000
-46,3,44,1625193209.0,32.000000
-45,3,44,1625193209.0,32.000000
-46,3,44,1625193209.0,32.000000
-45,3,44,1625193209.0,32.000000
-46,3,44,1625193209.0,32.000000
-46,3,43,1625193209.0,32.000000
-45,3,43,1625193209.0,32.000000
-46,3,43,1625193209.0,32.000000
-46,3,44,1625193209.0,32.000000
-45,3,43,1625193209.0,32.000000
-45,3,44,1625193209.0,32.000000
-46,3,44,1625193209.0,32.000000
-45,3,44,1625193209.0,32.000000
-45,3,44,1625193209.0,32.000000
-45,3,44,1625193209.0,32.000000
-45,3,44,1625193209.0,32.000000
-46,3,44,1625193209.0,32.000000
-45,3,43,1625193209.0,32.000000
-46,3,44,1625193209.0,32.000000
-45,3,44,1625193209.0,32.000000
-45,3,44,1625193209.0,32.000000
-46,3,44,1625193209.0,32.000000
-45,3,43,1625193209.0,32.000000
-45,3,44,1625193209.0,32.000000
-45,3,44,1625193209.0,32.000000
-45,3,44,1625193209.0,32.000000
-45,3,44,1625193209.0,32.000000
-46,3,44,1625193209.0,32.000000
-45,3,44,1625193209.0,32.000000
-45,3,44,1625193209.0,32.000000
-46,3,44,1625193209.0,32.000000
-45,3,44,1625193209.0,32.000000
-45,3,44,1625193209.0,32.000000
-45,3,44,1625193209.0,32.000000
-45,3,44,1625193209.0,32.000000
-44,2,44,1625193209.0,32.000000
-47,3,46,1625193209.0,32.000000
-44,3,43,1625193209.0,32.000000
-47,2,44,1625193209.0,32.000000
-46,2,45,1625193209.0,32.000000
-44,3,44,1625193209.0,32.000000
-45,3,44,1625193209.0,32.000000
-46,3,44,1625193209.0,32.000000
-45,3,44,1625193209.0,32.000000
-45,3,44,1625193209.0,32.000000
-45,3,44,1625193209.0,32.000000
-45,3,44,1625193209.0,32.000000
-45,3,44,1625193209.0,32.000000
-45,3,44,1625193209.0,32.000000
-45,3,44,1625193209.0,32.000000
-45,3,44,1625193209.0,32.000000
-46,3,44,1625193209.0,32.000000
-45,3,44,1625193209.0,32.000000
-45,3,44,1625193209.0,32.000000
-45,3,44,1625193209.0,32.000000
-45,3,44,1625193209.0,32.000000
-46,3,44,1625193209.0,32.000000
-45,3,44,1625193209.0,32.000000
-45,3,44,1625193209.0,32.000000
-45,3,44,1625193209.0,32.000000
-45,3,44,1625193209.0,32.000000
-45,3,44,1625193209.0,32.000000
-45,3,44,1625193209.0,32.000000
-45,3,44,1625193209.0,32.000000
-45,3,43,1625193209.0,32.000000
-45,3,44,1625193209.0,32.000000
-45,3,44,1625193209.0,32.000000
-45,3,44,1625193209.0,32.000000
-45,3,44,1625193209.0,32.000000
-45,3,44,1625193209.0,32.000000
-45,3,44,1625193209.0,32.000000
-45,3,44,1625193209.0,32.000000
-45,3,44,1625193209.0,32.000000
-45,3,44,1625193209.0,32.000000
-45,3,44,1625193209.0,32.000000
-45,3,44,1625193209.0,32.000000
-45,3,44,1625193209.0,32.000000
-45,3,44,1625193209.0,32.000000
-46,3,44,1625193209.0,32.000000
-45,3,44,1625193209.0,32.000000
-45,3,44,1625193209.0,32.000000
-45,3,44,1625193209.0,32.000000
-45,3,44,1625193209.0,32.000000
-45,3,44,1625193209.0,32.000000
-45,3,44,1625193209.0,32.000000
-45,3,44,1625193209.0,32.000000
-45,3,44,1625193209.0,32.000000
-46,3,44,1625193209.0,32.000000
-45,3,44,1625193209.0,32.000000
-45,3,44,1625193209.0,32.000000
-45,3,44,1625193209.0,32.000000
-45,3,44,1625193209.0,32.000000
-45,3,44,1625193209.0,32.000000
-45,3,44,1625193209.0,32.000000
-45,3,44,1625193209.0,32.000000
-45,3,44,1625193209.0,32.000000
-45,3,44,1625193209.0,32.000000
-45,3,44,1625193209.0,32.000000
-45,3,44,1625193209.0,32.000000
-45,3,44,1625193209.0,32.000000
-45,3,44,1625193209.0,32.000000
-45,3,44,1625193209.0,32.000000
-45,3,44,1625193209.0,32.000000
-45,3,44,1625193209.0,32.000000
-45,3,44,1625193209.0,32.000000
-46,3,44,1625193209.0,32.000000
-45,3,44,1625193209.0,32.000000
-45,3,43,1625193209.0,32.000000
-45,3,44,1625193209.0,32.000000
-45,3,44,1625193209.0,32.000000
-45,3,44,1625193209.0,32.000000
-45,3,44,1625193209.0,32.000000
-45,3,44,1625193209.0,32.000000
-46,3,43,1625193209.0,32.000000
-45,3,44,1625193209.0,32.000000
-45,3,44,1625193209.0,32.000000
-45,3,44,1625193209.0,32.000000
-45,3,44,1625193209.0,32.000000
-45,3,44,1625193209.0,32.000000
-45,3,44,1625193209.0,32.000000
-46,3,44,1625193209.0,32.000000
-45,3,44,1625193209.0,32.000000
-45,3,44,1625193209.0,32.000000
-46,3,44,1625193209.0,32.000000
-45,3,44,1625193209.0,32.000000
-45,3,44,1625193209.0,32.000000
-46,3,44,1625193209.0,32.000000
-45,3,44,1625193209.0,32.000000
-45,3,44,1625193209.0,32.000000
-45,3,44,1625193209.0,32.000000
-45,3,44,1625193209.0,32.000000
-45,3,44,1625193209.0,32.000000
-46,3,44,1625193209.0,32.000000
-45,3,44,1625193209.0,32.000000
-45,3,44,1625193209.0,32.000000
-46,3,44,1625193209.0,32.000000
-45,3,44,1625193209.0,32.000000
-45,3,44,1625193209.0,32.000000
-45,3,44,1625193209.0,32.000000
-45,3,44,1625193209.0,32.000000
-46,3,43,1625193209.0,32.000000
-45,3,44,1625193209.0,32.000000
-45,3,44,1625193209.0,32.000000
-46,3,44,1625193209.0,32.000000
-45,3,44,1625193209.0,32.000000
-45,3,44,1625193209.0,32.000000
-45,3,44,1625193209.0,32.000000
-45,3,44,1625193209.0,32.000000
-46,3,44,1625193209.0,32.000000
-45,3,44,1625193209.0,32.000000
-45,3,44,1625193209.0,32.000000
-45,3,44,1625193209.0,32.000000
-45,3,43,1625193209.0,32.000000
-45,3,43,1625193209.0,32.000000
-45,3,44,1625193209.0,32.000000
-45,3,44,1625193209.0,32.000000
-45,3,44,1625193209.0,32.000000
-45,3,44,1625193209.0,32.000000
-45,3,44,1625193209.0,32.000000
-45,3,44,1625193209.0,32.000000
-45,3,44,1625193209.0,32.000000
-45,3,44,1625193209.0,32.000000
-45,3,44,1625193209.0,32.000000
-45,3,44,1625193209.0,32.000000
-45,3,44,1625193209.0,32.000000
-45,3,44,1625193209.0,32.000000
-45,3,44,1625193209.0,32.000000
-45,3,44,1625193209.0,32.000000
-46,3,44,1625193209.0,32.000000
-45,3,44,1625193209.0,32.000000
-45,3,44,1625193209.0,32.000000
-45,3,44,1625193209.0,32.000000
-45,3,44,1625193209.0,32.000000
-45,3,44,1625193209.0,32.000000
-45,3,44,1625193209.0,32.000000
-45,3,44,1625193209.0,32.000000
-45,3,44,1625193209.0,32.000000
-45,3,44,1625193209.0,32.000000
-45,3,44,1625193209.0,32.000000
-45,3,44,1625193209.0,32.000000
-45,3,44,1625193209.0,32.000000
-45,3,44,1625193209.0,32.000000
-45,3,44,1625193209.0,32.000000
-45,3,44,1625193209.0,32.000000
-45,3,44,1625193209.0,32.000000
-45,3,44,1625193209.0,32.000000
-46,3,44,1625193209.0,32.000000
-45,3,44,1625193209.0,32.000000
-45,3,44,1625193209.0,32.000000
-45,3,44,1625193209.0,32.000000
-45,3,44,1625193209.0,32.000000
-45,3,44,1625193209.0,32.000000
-45,3,44,1625193209.0,32.000000
-45,3,44,1625193209.0,32.000000
-45,3,44,1625193209.0,32.000000
-46,3,44,1625193209.0,32.000000
-45,3,44,1625193209.0,32.000000
-45,3,44,1625193209.0,32.000000
-45,3,44,1625193209.0,32.000000
-44,3,44,1625193209.0,32.000000
-46,4,43,1625193209.0,32.000000
-46,3,43,1625193209.0,32.000000
-46,3,44,1625193209.0,32.000000
-45,3,44,1625193209.0,32.000000
-44,3,45,1625193209.0,32.000000
-44,3,45,1625193209.0,32.000000
-45,3,44,1625193209.0,32.000000
-45,3,44,1625193209.0,32.000000
-46,3,43,1625193209.0,32.000000
-46,3,43,1625193209.0,32.000000
-46,3,43,1625193209.0,32.000000
-46,3,43,1625193209.0,32.000000
-46,3,44,1625193209.0,32.000000
-45,3,44,1625193209.0,32.000000
-45,3,44,1625193209.0,32.000000
-45,3,43,1625193209.0,32.000000
-46,3,44,1625193209.0,32.000000
-45,3,44,1625193209.0,32.000000
-45,3,44,1625193209.0,32.000000
-45,3,44,1625193209.0,32.000000
-45,3,44,1625193209.0,32.000000
-45,3,44,1625193209.0,32.000000
-46,3,44,1625193209.0,32.000000
-46,3,43,1625193209.0,32.000000
-48,3,44,1625193209.0,32.000000
-50,1,40,1625193209.0,32.000000
-60,1,41,1625193209.0,32.000000
-58,0,49,1625193209.0,32.000000
-56,-1,50,1625193209.0,32.000000
-55,3,48,1625193209.0,32.000000
-56,5,45,1625193209.0,32.000000
-55,8,41,1625193209.0,32.000000
-54,11,39,1625193209.0,32.000000
-54,10,38,1625193209.0,32.000000
-50,19,41,1625193209.0,32.000000
-51,20,42,1625193209.0,32.000000
-48,22,43,1625193209.0,32.000000
-42,24,49,1625193209.0,32.000000
-35,24,48,1625193209.0,32.000000
-27,27,49,1625193209.0,32.000000
-25,27,48,1625193209.0,32.000000
-21,29,47,1625193209.0,32.000000
-13,30,44,1625193209.0,32.000000
-17,32,45,1625193209.0,32.000000
-14,33,46,1625193209.0,32.000000
-11,34,43,1625193209.0,32.000000
-11,32,45,1625193209.0,32.000000
-11,32,46,1625193209.0,32.000000
-15,35,43,1625193209.0,32.000000
-22,35,40,1625193209.0,32.000000
-21,37,41,1625193209.0,32.000000
-22,37,42,1625193209.0,32.000000
-22,41,41,1625193209.0,32.000000
-22,42,40,1625193209.0,32.000000
-19,43,39,1625193209.0,32.000000
-18,45,40,1625193209.0,32.000000
-26,42,40,1625193209.0,32.000000
-27,42,41,1625193209.0,32.000000
-30,43,39,1625193209.0,32.000000
-30,44,39,1625193209.0,32.000000
-34,47,40,1625193209.0,32.000000
-30,48,39,1625193209.0,32.000000
-29,47,38,1625193209.0,32.000000
-25,45,41,1625193209.0,32.000000
-23,45,38,1625193209.0,32.000000
-23,44,38,1625193209.0,32.000000
-24,43,39,1625193209.0,32.000000
-27,42,37,1625193209.0,32.000000
-23,42,37,1625193209.0,32.000000
-20,40,40,1625193209.0,32.000000
-19,41,42,1625193209.0,32.000000
-21,42,39,1625193209.0,32.000000
-26,43,37,1625193209.0,32.000000
-22,45,40,1625193209.0,32.000000
-24,46,38,1625193209.0,32.000000
-25,45,38,1625193209.0,32.000000
-24,45,39,1625193209.0,32.000000
-26,45,39,1625193209.0,32.000000
-26,44,41,1625193209.0,32.000000
-28,44,40,1625193209.0,32.000000
-26,46,39,1625193209.0,32.000000
-26,45,39,1625193209.0,32.000000
-24,46,40,1625193209.0,32.000000
-24,45,40,1625193209.0,32.000000
-25,42,40,1625193209.0,32.000000
-25,42,40,1625193209.0,32.000000
-22,41,40,1625193209.0,32.000000
-24,43,37,1625193209.0,32.000000
-22,43,40,1625193209.0,32.000000
-18,41,42,1625193209.0,32.000000
-16,40,42,1625193209.0,32.000000
-17,42,39,1625193209.0,32.000000
-23,40,43,1625193209.0,32.000000
-24,40,41,1625193209.0,32.000000
-27,36,41,1625193209.0,32.000000
-26,35,44,1625193209.0,32.000000
-26,35,51,1625193209.0,32.000000
-25,36,53,1625193209.0,32.000000
-17,35,53,1625193209.0,32.000000
-8,37,46,1625193209.0,32.000000
-6,32,55,1625193209.0,32.000000
-7,31,55,1625193209.0,32.000000
-13,32,49,1625193209.0,32.000000
-14,30,49,1625193209.0,32.000000
-15,27,55,1625193209.0,32.000000
-19,28,51,1625193209.0,32.000000
-21,27,49,1625193209.0,32.000000
-16,25,56,1625193209.0,32.000000
-18,25,54,1625193209.0,32.000000
-32,21,46,1625193209.0,32.000000
-31,19,49,1625193209.0,32.000000
-35,17,46,1625193209.0,32.000000
-51,13,41,1625193209.0,32.000000
-53,12,39,1625193209.0,32.000000
-56,12,36,1625193209.0,32.000000
-53,14,36,1625193209.0,32.000000
-51,15,36,1625193209.0,32.000000
-51,16,35,1625193209.0,32.000000
-52,16,39,1625193209.0,32.000000
-51,16,44,1625193209.0,32.000000
-54,17,49,1625193209.0,32.000000
-51,17,51,1625193209.0,32.000000
-47,12,55,1625193209.0,32.000000
-44,8,53,1625193209.0,32.000000
-41,9,52,1625193209.0,32.000000
-36,8,52,1625193209.0,32.000000
-34,9,49,1625193209.0,32.000000
-35,8,49,1625193209.0,32.000000
-35,9,51,1625193209.0,32.000000
-34,8,52,1625193209.0,32.000000
-35,8,52,1625193209.0,32.000000
-36,8,51,1625193209.0,32.000000
-37,8,51,1625193209.0,32.000000
-39,8,50,1625193209.0,32.000000
-40,8,49,1625193209.0,32.000000
-41,8,49,1625193209.0,32.000000
-42,8,48,1625193209.0,32.000000
-43,7,48,1625193209.0,32.000000
-42,8,46,1625193209.0,32.000000
-42,7,47,1625193209.0,32.000000
-41,8,48,1625193209.0,32.000000
-42,7,47,1625193209.0,32.000000
-42,7,48,1625193209.0,32.000000
-40,7,49,1625193209.0,32.000000
-38,6,50,1625193209.0,32.000000
-37,6,50,1625193209.0,32.000000
-38,7,49,1625193209.0,32.000000
-37,7,49,1625193209.0,32.000000
-37,8,49,1625193209.0,32.000000
-38,8,48,1625193209.0,32.000000
-39,8,47,1625193209.0,32.000000
-40,8,47,1625193209.0,32.000000
-41,9,47,1625193209.0,32.000000
-42,9,46,1625193209.0,32.000000
-42,8,47,1625193209.0,32.000000
-43,8,47,1625193209.0,32.000000
-43,8,47,1625193209.0,32.000000
-42,8,47,1625193209.0,32.000000
-43,8,46,1625193209.0,32.000000
-43,8,45,1625193209.0,32.000000
-43,7,45,1625193209.0,32.000000
-44,7,46,1625193209.0,32.000000
-44,6,46,1625193209.0,32.000000
-44,6,45,1625193209.0,32.000000
-45,6,45,1625193209.0,32.000000
-45,6,44,1625193209.0,32.000000
-45,7,44,1625193209.0,32.000000
-45,7,43,1625193209.0,32.000000
-46,7,43,1625193209.0,32.000000
-46,8,43,1625193209.0,32.000000
-46,8,42,1625193209.0,32.000000
-46,8,42,1625193209.0,32.000000
-47,9,41,1625193209.0,32.000000
-47,9,41,1625193209.0,32.000000
-48,9,40,1625193209.0,32.000000
-48,9,39,1625193209.0,32.000000
-48,8,39,1625193209.0,32.000000
-49,8,39,1625193209.0,32.000000
-50,9,39,1625193209.0,32.000000
-49,8,39,1625193209.0,32.000000
-49,9,40,1625193209.0,32.000000
-50,9,39,1625193209.0,32.000000
-51,8,40,1625193209.0,32.000000
-48,8,40,1625193209.0,32.000000
-48,9,40,1625193209.0,32.000000
-48,9,41,1625193209.0,32.000000
-48,9,40,1625193209.0,32.000000
-48,9,40,1625193209.0,32.000000
-47,9,41,1625193209.0,32.000000
-47,9,41,1625193209.0,32.000000
-47,9,42,1625193209.0,32.000000
-47,9,42,1625193209.0,32.000000
-46,9,43,1625193209.0,32.000000
-45,9,43,1625193209.0,32.000000
-45,10,44,1625193209.0,32.000000
-44,11,44,1625193209.0,32.000000
-43,12,44,1625193209.0,32.000000
-42,12,45,1625193209.0,32.000000
-42,12,44,1625193209.0,32.000000
-43,12,44,1625193209.0,32.000000
-43,12,43,1625193209.0,32.000000
-44,13,43,1625193209.0,32.000000
-44,13,43,1625193209.0,32.000000
-44,12,43,1625193209.0,32.000000
-44,12,43,1625193209.0,32.000000
-44,13,43,1625193209.0,32.000000
-44,13,43,1625193209.0,32.000000
-44,13,43,1625193209.0,32.000000
-44,14,43,1625193209.0,32.000000
-44,14,42,1625193209.0,32.000000
-45,13,42,1625193209.0,32.000000
-45,13,42,1625193209.0,32.000000
-45,12,42,1625193209.0,32.000000
-46,12,43,1625193209.0,32.000000
-45,11,43,1625193209.0,32.000000
-44,11,43,1625193209.0,32.000000
-43,11,45,1625193209.0,32.000000
-42,12,45,1625193209.0,32.000000
-41,12,45,1625193209.0,32.000000
-42,12,46,1625193209.0,32.000000
-42,10,46,1625193209.0,32.000000
-43,9,46,1625193209.0,32.000000
-43,9,47,1625193209.0,32.000000
-42,8,46,1625193209.0,32.000000
-43,8,47,1625193209.0,32.000000
-43,9,48,1625193209.0,32.000000
-42,9,48,1625193209.0,32.000000
-42,10,47,1625193209.0,32.000000
-41,10,47,1625193209.0,32.000000
-42,9,46,1625193209.0,32.000000
-42,8,45,1625193209.0,32.000000
-44,10,45,1625193209.0,32.000000
-45,11,44,1625193209.0,32.000000
-45,12,43,1625193209.0,32.000000
-46,13,41,1625193209.0,32.000000
-45,13,41,1625193209.0,32.000000
-45,12,40,1625193209.0,32.000000
-45,11,40,1625193209.0,32.000000
-47,10,40,1625193209.0,32.000000
-49,10,38,1625193209.0,32.000000
-50,10,37,1625193209.0,32.000000
-49,10,37,1625193209.0,32.000000
-50,10,37,1625193209.0,32.000000
-50,10,38,1625193209.0,32.000000
-52,9,39,1625193209.0,32.000000
-51,9,40,1625193209.0,32.000000
-50,9,40,1625193209.0,32.000000
-48,9,39,1625193209.0,32.000000
-48,9,39,1625193209.0,32.000000
-49,9,39,1625193209.0,32.000000
-48,10,39,1625193209.0,32.000000
-48,9,39,1625193209.0,32.000000
-48,9,39,1625193209.0,32.000000
-49,10,39,1625193209.0,32.000000
-49,9,39,1625193209.0,32.000000
-49,9,39,1625193209.0,32.000000
-49,9,39,1625193209.0,32.000000
-49,9,39,1625193209.0,32.000000
-49,9,39,1625193209.0,32.000000
-49,9,39,1625193209.0,32.000000
-49,9,39,1625193209.0,32.000000
-49,9,39,1625193209.0,32.000000
-49,9,39,1625193209.0,32.000000
-48,9,39,1625193209.0,32.000000
-49,9,39,1625193209.0,32.000000
-48,9,39,1625193209.0,32.000000
-49,9,39,1625193209.0,32.000000
-49,9,39,1625193209.0,32.000000
-48,9,39,1625193209.0,32.000000
-49,9,39,1625193209.0,32.000000
-49,9,39,1625193209.0,32.000000
-49,9,39,1625193209.0,32.000000
-49,9,39,1625193209.0,32.000000
-49,9,39,1625193209.0,32.000000
-49,9,39,1625193209.0,32.000000
-49,9,39,1625193209.0,32.000000
-49,9,39,1625193209.0,32.000000
-49,9,39,1625193209.0,32.000000
-49,9,39,1625193209.0,32.000000
-49,9,39,1625193209.0,32.000000
-49,8,39,1625193209.0,32.000000
-48,9,39,1625193209.0,32.000000
-49,9,39,1625193209.0,32.000000
-48,9,39,1625193209.0,32.000000
-48,9,39,1625193209.0,32.000000
-49,9,39,1625193209.0,32.000000
-49,8,39,1625193209.0,32.000000
-49,9,39,1625193209.0,32.000000
-49,9,39,1625193209.0,32.000000
-48,9,39,1625193209.0,32.000000
-49,9,39,1625193209.0,32.000000
-49,9,39,1625193209.0,32.000000
-49,9,39,1625193209.0,32.000000
-49,9,39,1625193209.0,32.000000
-49,9,39,1625193209.0,32.000000
-49,9,39,1625193209.0,32.000000
-49,9,39,1625193209.0,32.000000
-49,9,39,1625193209.0,32.000000
-48,9,39,1625193209.0,32.000000
-49,8,39,1625193209.0,32.000000
-48,8,39,1625193209.0,32.000000
-49,8,39,1625193209.0,32.000000
-48,8,39,1625193209.0,32.000000
-48,8,39,1625193209.0,32.000000
-49,9,40,1625193209.0,32.000000
-49,8,39,1625193209.0,32.000000
-49,8,39,1625193209.0,32.000000
-49,8,39,1625193209.0,32.000000
-48,9,39,1625193209.0,32.000000
-49,8,40,1625193209.0,32.000000
-49,8,40,1625193209.0,32.000000
-48,8,39,1625193209.0,32.000000
-49,8,39,1625193209.0,32.000000
-49,8,39,1625193209.0,32.000000
-48,8,39,1625193209.0,32.000000
-49,8,39,1625193209.0,32.000000
-48,8,39,1625193209.0,32.000000
-49,8,40,1625193209.0,32.000000
-49,8,40,1625193209.0,32.000000
-48,8,39,1625193209.0,32.000000
-48,8,40,1625193209.0,32.000000
-49,8,39,1625193209.0,32.000000
-49,8,40,1625193209.0,32.000000
-48,8,39,1625193209.0,32.000000
-49,8,39,1625193209.0,32.000000
-48,8,40,1625193209.0,32.000000
-49,8,39,1625193209.0,32.000000
-49,8,40,1625193209.0,32.000000
-49,8,39,1625193209.0,32.000000
-48,8,39,1625193209.0,32.000000
-49,8,39,1625193209.0,32.000000
-49,8,39,1625193209.0,32.000000
-49,8,39,1625193209.0,32.000000
-48,8,39,1625193209.0,32.000000
-48,8,40,1625193209.0,32.000000
-49,8,40,1625193209.0,32.000000
-49,8,39,1625193209.0,32.000000
-48,8,39,1625193209.0,32.000000
-49,8,39,1625193209.0,32.000000
-49,8,39,1625193209.0,32.000000
-49,8,40,1625193209.0,32.000000
-49,8,40,1625193209.0,32.000000
-49,8,39,1625193209.0,32.000000
-48,8,39,1625193209.0,32.000000
-49,8,39,1625193209.0,32.000000
-48,8,39,1625193209.0,32.000000
-49,8,40,1625193209.0,32.000000
-49,8,39,1625193209.0,32.000000
-48,8,39,1625193209.0,32.000000
-49,8,40,1625193209.0,32.000000
-49,8,39,1625193209.0,32.000000
-48,8,39,1625193209.0,32.000000
-48,8,39,1625193209.0,32.000000
-49,8,39,1625193209.0,32.000000
-49,8,39,1625193209.0,32.000000
-49,8,39,1625193209.0,32.000000
-48,8,39,1625193209.0,32.000000
-48,8,39,1625193209.0,32.000000
-48,8,39,1625193209.0,32.000000
-49,8,39,1625193209.0,32.000000
-49,8,39,1625193209.0,32.000000
-49,8,39,1625193209.0,32.000000
-49,8,40,1625193209.0,32.000000
-48,8,39,1625193209.0,32.000000
-48,8,39,1625193209.0,32.000000
-49,8,39,1625193209.0,32.000000
-49,8,39,1625193209.0,32.000000
-49,8,39,1625193209.0,32.000000
-48,8,40,1625193209.0,32.000000
-49,8,39,1625193209.0,32.000000
-49,8,39,1625193209.0,32.000000
-48,8,40,1625193209.0,32.000000
-49,8,40,1625193209.0,32.000000
-48,8,39,1625193209.0,32.000000
-48,8,39,1625193209.0,32.000000
-49,8,39,1625193209.0,32.000000
-48,8,40,1625193209.0,32.000000
-49,8,39,1625193209.0,32.000000
-49,8,39,1625193209.0,32.000000
-48,8,39,1625193209.0,32.000000
-48,8,40,1625193209.0,32.000000
-48,8,40,1625193209.0,32.000000
-48,8,39,1625193209.0,32.000000
-49,8,39,1625193209.0,32.000000
-49,8,39,1625193209.0,32.000000
-48,8,39,1625193209.0,32.000000
-49,8,39,1625193209.0,32.000000
-48,8,39,1625193209.0,32.000000
-49,9,39,1625193209.0,32.000000
-49,8,39,1625193209.0,32.000000
-49,8,39,1625193209.0,32.000000
-48,8,40,1625193209.0,32.000000
-48,8,40,1625193209.0,32.000000
-49,8,40,1625193209.0,32.000000
-48,8,40,1625193209.0,32.000000
-48,8,39,1625193209.0,32.000000
-49,8,39,1625193209.0,32.000000
-49,9,39,1625193209.0,32.000000
-48,8,40,1625193209.0,32.000000
-48,8,39,1625193209.0,32.000000
-48,8,39,1625193209.0,32.000000
-49,8,40,1625193209.0,32.000000
-48,8,39,1625193209.0,32.000000
-48,8,39,1625193209.0,32.000000
-48,8,39,1625193209.0,32.000000
-49,8,39,1625193209.0,32.000000
-48,8,39,1625193209.0,32.000000
-48,8,40,1625193209.0,32.000000
-48,8,40,1625193209.0,32.000000
-48,8,40,1625193209.0,32.000000
-48,8,40,1625193209.0,32.000000
-48,8,39,1625193209.0,32.000000
-49,8,40,1625193209.0,32.000000
-48,8,39,1625193209.0,32.000000
-49,8,39,1625193209.0,32.000000
-49,8,39,1625193209.0,32.000000
-48,8,39,1625193209.0,32.000000
-49,8,39,1625193209.0,32.000000
-48,8,40,1625193209.0,32.000000
-49,8,40,1625193209.0,32.000000
-49,8,39,1625193209.0,32.000000
-49,8,39,1625193209.0,32.000000
-48,8,40,1625193209.0,32.000000
-48,8,39,1625193209.0,32.000000
-49,8,39,1625193209.0,32.000000
-48,8,39,1625193209.0,32.000000
-48,8,39,1625193209.0,32.000000
-49,8,39,1625193209.0,32.000000
-49,8,40,1625193209.0,32.000000
-48,8,40,1625193209.0,32.000000
-49,8,40,1625193209.0,32.000000
-48,8,39,1625193209.0,32.000000
-48,8,39,1625193209.0,32.000000
-49,8,40,1625193209.0,32.000000
-49,8,40,1625193209.0,32.000000
-49,8,39,1625193209.0,32.000000
-49,8,39,1625193209.0,32.000000
-49,8,39,1625193209.0,32.000000
-49,8,40,1625193209.0,32.000000
-48,8,40,1625193209.0,32.000000
-48,8,39,1625193209.0,32.000000
-49,8,39,1625193209.0,32.000000
-48,8,40,1625193209.0,32.000000
-49,8,40,1625193209.0,32.000000
-48,7,40,1625193209.0,32.000000
-48,8,39,1625193209.0,32.000000
-49,8,39,1625193209.0,32.000000
-49,8,39,1625193209.0,32.000000
-49,8,40,1625193209.0,32.000000
-49,8,39,1625193209.0,32.000000
-49,8,40,1625193209.0,32.000000
-48,8,40,1625193209.0,32.000000
-49,8,40,1625193209.0,32.000000
-49,8,39,1625193209.0,32.000000
-48,8,39,1625193209.0,32.000000
-48,7,40,1625193209.0,32.000000
-49,9,39,1625193209.0,32.000000
-48,8,39,1625193209.0,32.000000
-48,8,39,1625193209.0,32.000000
-49,8,39,1625193209.0,32.000000
-49,8,40,1625193209.0,32.000000
-48,8,40,1625193209.0,32.000000
-49,8,40,1625193209.0,32.000000
-49,8,39,1625193209.0,32.000000
-48,8,39,1625193209.0,32.000000
-49,8,39,1625193209.0,32.000000
-48,8,39,1625193209.0,32.000000
-48,8,39,1625193209.0,32.000000
-49,8,40,1625193209.0,32.000000
-48,8,39,1625193209.0,32.000000
-49,8,39,1625193209.0,32.000000
-48,8,39,1625193209.0,32.000000
-48,8,39,1625193209.0,32.000000
-48,8,39,1625193209.0,32.000000
-49,8,40,1625193209.0,32.000000
-48,8,39,1625193209.0,32.000000
-49,8,39,1625193209.0,32.000000
-48,8,39,1625193209.0,32.000000
-48,8,39,1625193209.0,32.000000
-49,8,39,1625193209.0,32.000000
-49,8,40,1625193209.0,32.000000
-49,8,40,1625193209.0,32.000000
-48,8,39,1625193209.0,32.000000
-49,8,40,1625193209.0,32.000000
-48,8,40,1625193209.0,32.000000
-49,8,40,1625193209.0,32.000000
-48,8,39,1625193209.0,32.000000
-48,8,39,1625193209.0,32.000000
-49,9,40,1625193209.0,32.000000
-48,8,39,1625193209.0,32.000000
-49,9,39,1625193209.0,32.000000
-49,8,40,1625193209.0,32.000000
-49,9,39,1625193209.0,32.000000
-49,8,39,1625193209.0,32.000000
-49,8,40,1625193209.0,32.000000
-49,8,39,1625193209.0,32.000000
-49,9,40,1625193209.0,32.000000
-49,9,40,1625193209.0,32.000000
-48,9,40,1625193209.0,32.000000
-48,8,39,1625193209.0,32.000000
-48,8,39,1625193209.0,32.000000
-49,9,39,1625193209.0,32.000000
-49,9,39,1625193209.0,32.000000
-49,9,39,1625193209.0,32.000000
-48,8,39,1625193209.0,32.000000
-48,8,39,1625193209.0,32.000000
-49,8,39,1625193209.0,32.000000
-49,9,40,1625193209.0,32.000000
-49,9,39,1625193209.0,32.000000
-48,8,39,1625193209.0,32.000000
-49,9,39,1625193209.0,32.000000
-48,8,39,1625193209.0,32.000000
-49,9,39,1625193209.0,32.000000
-49,8,39,1625193209.0,32.000000
-49,8,39,1625193209.0,32.000000
-48,8,39,1625193209.0,32.000000
-49,8,40,1625193209.0,32.000000
-48,8,39,1625193209.0,32.000000
-48,9,39,1625193209.0,32.000000
-48,9,39,1625193209.0,32.000000
-49,9,39,1625193209.0,32.000000
-49,9,39,1625193209.0,32.000000
-49,8,39,1625193209.0,32.000000
-49,8,39,1625193209.0,32.000000
-49,8,39,1625193209.0,32.000000
-48,8,39,1625193209.0,32.000000
-48,8,39,1625193209.0,32.000000
-48,9,39,1625193209.0,32.000000
-49,9,39,1625193209.0,32.000000
-48,9,39,1625193209.0,32.000000
-49,9,39,1625193209.0,32.000000
-49,9,39,1625193209.0,32.000000
-49,8,39,1625193209.0,32.000000
-48,9,39,1625193209.0,32.000000
-49,9,39,1625193209.0,32.000000
-49,9,39,1625193209.0,32.000000
-49,9,39,1625193209.0,32.000000
-49,9,39,1625193209.0,32.000000
-49,8,39,1625193209.0,32.000000
-48,8,39,1625193209.0,32.000000
-49,9,39,1625193209.0,32.000000
-49,9,40,1625193209.0,32.000000
-48,8,39,1625193209.0,32.000000
-49,8,38,1625193209.0,32.000000
-49,9,39,1625193209.0,32.000000
-48,9,39,1625193209.0,32.000000
-48,8,39,1625193209.0,32.000000
-48,8,39,1625193209.0,32.000000
-49,9,39,1625193209.0,32.000000
-49,9,39,1625193209.0,32.000000
-48,9,39,1625193209.0,32.000000
-48,8,39,1625193209.0,32.000000
-49,9,39,1625193209.0,32.000000
-49,9,39,1625193209.0,32.000000
-48,9,39,1625193209.0,32.000000
-49,9,39,1625193209.0,32.000000
-48,9,39,1625193209.0,32.000000
-48,8,39,1625193209.0,32.000000
-49,9,39,1625193209.0,32.000000
-49,8,39,1625193209.0,32.000000
-49,9,39,1625193209.0,32.000000
-48,8,39,1625193209.0,32.000000
-49,9,39,1625193209.0,32.000000
-48,8,39,1625193209.0,32.000000
-49,8,39,1625193209.0,32.000000
-49,9,39,1625193209.0,32.000000
-49,9,39,1625193209.0,32.000000
-48,8,39,1625193209.0,32.000000
-48,8,40,1625193209.0,32.000000
-49,8,40,1625193209.0,32.000000
-49,8,39,1625193209.0,32.000000
-48,8,39,1625193209.0,32.000000
-49,8,39,1625193209.0,32.000000
-49,8,39,1625193209.0,32.000000
-49,8,40,1625193209.0,32.000000
-48,8,39,1625193209.0,32.000000
-48,8,39,1625193209.0,32.000000
-48,8,39,1625193209.0,32.000000
-48,8,39,1625193209.0,32.000000
-49,8,39,1625193209.0,32.000000
-49,8,39,1625193209.0,32.000000
-48,8,39,1625193209.0,32.000000
-48,8,39,1625193209.0,32.000000
-49,8,39,1625193209.0,32.000000
-49,8,39,1625193209.0,32.000000
-48,8,39,1625193209.0,32.000000
-48,8,40,1625193209.0,32.000000
-49,8,39,1625193209.0,32.000000
-49,8,40,1625193209.0,32.000000
-49,8,39,1625193209.0,32.000000
-49,8,39,1625193209.0,32.000000
-49,8,40,1625193209.0,32.000000
-48,8,40,1625193209.0,32.000000
-49,8,39,1625193209.0,32.000000
-49,8,40,1625193209.0,32.000000
-49,8,39,1625193209.0,32.000000
-48,8,39,1625193209.0,32.000000
-49,8,39,1625193209.0,32.000000
-49,8,39,1625193209.0,32.000000
-49,8,40,1625193209.0,32.000000
-49,8,40,1625193209.0,32.000000
-49,8,39,1625193209.0,32.000000
-49,8,40,1625193209.0,32.000000
-49,8,40,1625193209.0,32.000000
-49,8,39,1625193209.0,32.000000
-48,8,40,1625193209.0,32.000000
-48,8,40,1625193209.0,32.000000
-49,8,39,1625193209.0,32.000000
-49,8,39,1625193209.0,32.000000
-49,8,39,1625193209.0,32.000000
-49,8,39,1625193209.0,32.000000
-49,8,39,1625193209.0,32.000000
-48,8,39,1625193209.0,32.000000
-48,8,40,1625193209.0,32.000000
-48,8,39,1625193209.0,32.000000
-49,8,39,1625193209.0,32.000000
-48,8,39,1625193209.0,32.000000
-49,8,39,1625193209.0,32.000000
-50,8,40,1625193209.0,32.000000
-48,8,40,1625193209.0,32.000000
-48,8,39,1625193209.0,32.000000
-49,8,39,1625193209.0,32.000000
-49,8,39,1625193209.0,32.000000
-49,8,40,1625193209.0,32.000000
-48,8,40,1625193209.0,32.000000
-48,8,39,1625193209.0,32.000000
-48,8,39,1625193209.0,32.000000
-48,8,39,1625193209.0,32.000000
-49,8,40,1625193209.0,32.000000
-49,8,39,1625193209.0,32.000000
-48,8,39,1625193209.0,32.000000
-49,8,39,1625193209.0,32.000000
-48,8,39,1625193209.0,32.000000
-49,8,39,1625193209.0,32.000000
-49,8,40,1625193209.0,32.000000
-48,8,39,1625193209.0,32.000000
-48,8,39,1625193209.0,32.000000
-49,8,39,1625193209.0,32.000000
-49,8,40,1625193209.0,32.000000
-49,8,40,1625193209.0,32.000000
-49,9,39,1625193209.0,32.000000
-48,8,39,1625193209.0,32.000000
-48,8,39,1625193209.0,32.000000
-49,8,39,1625193209.0,32.000000
-49,8,40,1625193209.0,32.000000
-49,8,39,1625193209.0,32.000000
-48,8,39,1625193209.0,32.000000
-48,8,39,1625193209.0,32.000000
-49,8,40,1625193209.0,32.000000
-49,9,40,1625193209.0,32.000000
-49,8,39,1625193209.0,32.000000
-48,8,39,1625193209.0,32.000000
-48,8,39,1625193209.0,32.000000
-48,8,39,1625193209.0,32.000000
-49,8,39,1625193209.0,32.000000
-49,8,39,1625193209.0,32.000000
-48,8,39,1625193209.0,32.000000
-48,9,39,1625193209.0,32.000000
-49,9,39,1625193209.0,32.000000
-48,8,39,1625193209.0,32.000000
-48,9,39,1625193209.0,32.000000
-49,9,39,1625193209.0,32.000000
-49,9,40,1625193209.0,32.000000
-49,8,39,1625193209.0,32.000000
-48,8,39,1625193209.0,32.000000
-49,9,39,1625193209.0,32.000000
-49,9,39,1625193209.0,32.000000
-48,8,39,1625193209.0,32.000000
-48,9,39,1625193209.0,32.000000
-49,9,39,1625193209.0,32.000000
-48,9,39,1625193209.0,32.000000
-48,8,39,1625193209.0,32.000000
-49,9,39,1625193209.0,32.000000
-48,9,39,1625193209.0,32.000000
-49,9,39,1625193209.0,32.000000
-48,8,39,1625193209.0,32.000000
-49,9,39,1625193209.0,32.000000
-49,9,39,1625193209.0,32.000000
-49,9,39,1625193209.0,32.000000
-49,9,39,1625193209.0,32.000000
-49,9,39,1625193209.0,32.000000
-49,9,40,1625193209.0,32.000000
-49,9,39,1625193209.0,32.000000
-48,9,40,1625193209.0,32.000000
-49,9,39,1625193209.0,32.000000
-49,9,39,1625193209.0,32.000000
-49,8,39,1625193209.0,32.000000
-48,8,39,1625193209.0,32.000000
-48,9,39,1625193209.0,32.000000
-48,9,39,1625193209.0,32.000000
-49,9,39,1625193209.0,32.000000
-49,9,40,1625193209.0,32.000000
-49,9,39,1625193209.0,32.000000
-48,8,39,1625193209.0,32.000000
-48,9,39,1625193209.0,32.000000
-48,9,39,1625193209.0,32.000000
-49,9,39,1625193209.0,32.000000
-48,9,39,1625193209.0,32.000000
-49,8,39,1625193209.0,32.000000
-49,9,39,1625193209.0,32.000000
-48,9,39,1625193209.0,32.000000
-49,9,40,1625193209.0,32.000000
-49,9,40,1625193209.0,32.000000
-48,8,40,1625193209.0,32.000000
-48,8,39,1625193209.0,32.000000
-48,8,40,1625193209.0,32.000000
-49,8,40,1625193209.0,32.000000
-48,8,39,1625193209.0,32.000000
-49,8,39,1625193209.0,32.000000
-48,8,39,1625193209.0,32.000000
-48,8,39,1625193209.0,32.000000
-49,8,40,1625193209.0,32.000000
-48,8,40,1625193209.0,32.000000
-49,8,39,1625193209.0,32.000000
-48,8,39,1625193209.0,32.000000
-48,8,39,1625193209.0,32.000000
-49,8,39,1625193209.0,32.000000
-49,8,39,1625193209.0,32.000000
-48,8,39,1625193209.0,32.000000
-49,8,39,1625193209.0,32.000000
-49,8,40,1625193209.0,32.000000
-48,8,39,1625193209.0,32.000000
-48,8,40,1625193209.0,32.000000
-49,8,40,1625193209.0,32.000000
-48,8,39,1625193209.0,32.000000
-49,8,39,1625193209.0,32.000000
-49,8,39,1625193209.0,32.000000
-48,8,39,1625193209.0,32.000000
-48,8,39,1625193209.0,32.000000
-49,8,39,1625193209.0,32.000000
-48,8,39,1625193209.0,32.000000
-49,8,39,1625193209.0,32.000000
-49,8,39,1625193209.0,32.000000
-49,8,39,1625193209.0,32.000000
-48,8,39,1625193209.0,32.000000
-49,8,40,1625193209.0,32.000000
-49,8,39,1625193209.0,32.000000
-48,8,39,1625193209.0,32.000000
-48,8,40,1625193209.0,32.000000
-49,8,40,1625193209.0,32.000000
-49,8,40,1625193209.0,32.000000
-48,8,40,1625193209.0,32.000000
-49,8,40,1625193209.0,32.000000
-48,8,40,1625193209.0,32.000000
-48,8,39,1625193209.0,32.000000
-49,8,39,1625193209.0,32.000000
-49,8,39,1625193209.0,32.000000
-49,8,39,1625193209.0,32.000000
-48,8,39,1625193209.0,32.000000
-49,8,39,1625193209.0,32.000000
-48,8,40,1625193209.0,32.000000
-48,8,40,1625193209.0,32.000000
-48,8,40,1625193209.0,32.000000
-48,8,39,1625193209.0,32.000000
-49,8,39,1625193209.0,32.000000
-49,8,40,1625193209.0,32.000000
-49,8,39,1625193209.0,32.000000
-48,8,39,1625193209.0,32.000000
-49,8,39,1625193209.0,32.000000
-49,8,40,1625193209.0,32.000000
-48,7,39,1625193209.0,32.000000
-48,8,40,1625193209.0,32.000000
-49,8,39,1625193209.0,32.000000
-49,8,39,1625193209.0,32.000000
-49,8,40,1625193209.0,32.000000
-49,8,40,1625193209.0,32.000000
-48,7,39,1625193209.0,32.000000
-48,7,39,1625193209.0,32.000000
-49,8,40,1625193209.0,32.000000
-48,8,39,1625193209.0,32.000000
-48,8,39,1625193209.0,32.000000
-49,8,39,1625193209.0,32.000000
-49,8,39,1625193209.0,32.000000
-48,8,39,1625193209.0,32.000000
-48,8,39,1625193209.0,32.000000
-48,8,40,1625193209.0,32.000000
-48,8,40,1625193209.0,32.000000
-48,8,40,1625193209.0,32.000000
-48,8,40,1625193209.0,32.000000
-48,8,39,1625193209.0,32.000000
-48,8,39,1625193209.0,32.000000
-49,8,40,1625193209.0,32.000000
-49,8,39,1625193209.0,32.000000
-48,8,40,1625193209.0,32.000000
-49,8,39,1625193209.0,32.000000
-48,8,39,1625193209.0,32.000000
-49,8,40,1625193209.0,32.000000
-48,7,39,1625193209.0,32.000000
-50,8,40,1625193209.0,32.000000
-48,7,39,1625193209.0,32.000000
-48,9,39,1625193209.0,32.000000
-49,8,40,1625193209.0,32.000000
-49,8,40,1625193209.0,32.000000
-49,8,39,1625193209.0,32.000000
-49,8,39,1625193209.0,32.000000
-49,8,39,1625193209.0,32.000000
-48,8,39,1625193209.0,32.000000
-48,8,39,1625193209.0,32.000000
-48,8,39,1625193209.0,32.000000
-49,8,39,1625193209.0,32.000000
-48,8,39,1625193209.0,32.000000
-48,8,39,1625193209.0,32.000000
-48,8,39,1625193209.0,32.000000
-49,8,40,1625193209.0,32.000000
-48,8,39,1625193209.0,32.000000
-48,8,40,1625193209.0,32.000000
-49,8,40,1625193209.0,32.000000
-48,8,39,1625193209.0,32.000000
-48,8,39,1625193209.0,32.000000
-49,9,39,1625193209.0,32.000000
-49,9,39,1625193209.0,32.000000
-48,8,39,1625193209.0,32.000000
-49,8,39,1625193209.0,32.000000
-49,8,39,1625193209.0,32.000000
-49,8,40,1625193209.0,32.000000
-48,8,39,1625193209.0,32.000000
-48,9,39,1625193209.0,32.000000
-49,9,39,1625193209.0,32.000000
-49,9,39,1625193209.0,32.000000
-49,9,39,1625193209.0,32.000000
-48,9,39,1625193209.0,32.000000
-49,9,39,1625193209.0,32.000000
-49,9,40,1625193209.0,32.000000
-49,8,39,1625193209.0,32.000000
-49,8,39,1625193209.0,32.000000
-48,8,39,1625193209.0,32.000000
-49,9,39,1625193209.0,32.000000
-49,9,39,1625193209.0,32.000000
-48,8,39,1625193209.0,32.000000
-48,8,39,1625193209.0,32.000000
-48,8,40,1625193209.0,32.000000
-48,8,40,1625193209.0,32.000000
-49,9,40,1625193209.0,32.000000
-48,8,39,1625193209.0,32.000000
-48,8,39,1625193209.0,32.000000
-48,8,39,1625193209.0,32.000000
-49,9,40,1625193209.0,32.000000
-49,9,39,1625193209.0,32.000000
-48,8,39,1625193209.0,32.000000
-49,8,39,1625193209.0,32.000000
-49,8,39,1625193209.0,32.000000
-48,8,39,1625193209.0,32.000000
-48,8,39,1625193209.0,32.000000
-49,8,40,1625193209.0,32.000000
-48,8,40,1625193209.0,32.000000
-49,8,39,1625193209.0,32.000000
-48,8,39,1625193209.0,32.000000
-49,9,39,1625193209.0,32.000000
-48,9,39,1625193209.0,32.000000
-48,8,39,1625193209.0,32.000000
-48,8,39,1625193209.0,32.000000
-49,8,40,1625193209.0,32.000000
-48,9,39,1625193209.0,32.000000
-48,8,39,1625193209.0,32.000000
-48,9,39,1625193209.0,32.000000
-49,9,39,1625193209.0,32.000000
-49,9,39,1625193209.0,32.000000
-49,9,39,1625193209.0,32.000000
-48,8,39,1625193209.0,32.000000
-49,8,39,1625193209.0,32.000000
-49,8,39,1625193209.0,32.000000
-48,8,39,1625193209.0,32.000000
-48,8,40,1625193209.0,32.000000
-48,8,39,1625193209.0,32.000000
-48,8,40,1625193209.0,32.000000
-49,8,39,1625193209.0,32.000000
-48,9,39,1625193209.0,32.000000
-48,8,40,1625193209.0,32.000000
-49,8,39,1625193209.0,32.000000
-48,8,40,1625193209.0,32.000000
-48,8,40,1625193209.0,32.000000
-49,8,39,1625193209.0,32.000000
-49,8,39,1625193209.0,32.000000
-49,8,39,1625193209.0,32.000000
-49,8,39,1625193209.0,32.000000
-48,8,39,1625193209.0,32.000000
-48,8,39,1625193209.0,32.000000
-49,8,40,1625193209.0,32.000000
-48,8,40,1625193209.0,32.000000
-49,8,39,1625193209.0,32.000000
-48,8,39,1625193209.0,32.000000
-49,8,39,1625193209.0,32.000000
-48,8,39,1625193209.0,32.000000
-49,8,39,1625193209.0,32.000000
-49,8,40,1625193209.0,32.000000
-49,8,39,1625193209.0,32.000000
-48,8,39,1625193209.0,32.000000
-48,8,40,1625193209.0,32.000000
-49,8,39,1625193209.0,32.000000
-48,8,39,1625193209.0,32.000000
-48,8,39,1625193209.0,32.000000
-49,8,39,1625193209.0,32.000000
-49,8,40,1625193209.0,32.000000
-49,8,39,1625193209.0,32.000000
-48,8,39,1625193209.0,32.000000
-48,8,40,1625193209.0,32.000000
-49,8,40,1625193209.0,32.000000
-49,8,40,1625193209.0,32.000000
-49,8,39,1625193209.0,32.000000
-48,8,39,1625193209.0,32.000000
-49,8,39,1625193209.0,32.000000
-48,8,40,1625193209.0,32.000000
-49,8,39,1625193209.0,32.000000
-48,8,39,1625193209.0,32.000000
-49,8,39,1625193209.0,32.000000
-49,8,40,1625193209.0,32.000000
-49,8,40,1625193209.0,32.000000
-48,8,39,1625193209.0,32.000000
-48,8,39,1625193209.0,32.000000
-49,8,40,1625193209.0,32.000000
-49,8,39,1625193209.0,32.000000
-49,8,40,1625193209.0,32.000000
-48,8,39,1625193209.0,32.000000
-48,8,39,1625193209.0,32.000000
-49,8,39,1625193209.0,32.000000
-49,8,40,1625193209.0,32.000000
-48,8,39,1625193209.0,32.000000
-48,8,39,1625193209.0,32.000000
-49,8,40,1625193209.0,32.000000
-48,8,40,1625193209.0,32.000000
-48,8,39,1625193209.0,32.000000
-49,8,39,1625193209.0,32.000000
-49,8,40,1625193209.0,32.000000
-49,8,39,1625193209.0,32.000000
-48,8,39,1625193209.0,32.000000
-48,8,39,1625193209.0,32.000000
-48,8,39,1625193209.0,32.000000
-49,8,40,1625193209.0,32.000000
-48,8,40,1625193209.0,32.000000
-48,8,39,1625193209.0,32.000000
-49,8,39,1625193209.0,32.000000
-49,8,39,1625193209.0,32.000000
-49,8,40,1625193209.0,32.000000
-48,8,39,1625193209.0,32.000000
-48,8,39,1625193209.0,32.000000
-48,8,40,1625193209.0,32.000000
-49,9,40,1625193209.0,32.000000
-49,8,39,1625193209.0,32.000000
-48,8,39,1625193209.0,32.000000
-48,8,39,1625193209.0,32.000000
-49,8,39,1625193209.0,32.000000
-48,8,40,1625193209.0,32.000000
-49,8,39,1625193209.0,32.000000
-49,8,39,1625193209.0,32.000000
-48,9,39,1625193209.0,32.000000
-48,8,40,1625193209.0,32.000000
-48,8,40,1625193209.0,32.000000
-48,8,39,1625193209.0,32.000000
-49,8,39,1625193209.0,32.000000
-49,8,39,1625193209.0,32.000000
-49,9,39,1625193209.0,32.000000
-49,9,39,1625193209.0,32.000000
-48,8,40,1625193209.0,32.000000
-48,8,40,1625193209.0,32.000000
-48,8,40,1625193209.0,32.000000
-48,8,39,1625193209.0,32.000000
-48,8,39,1625193209.0,32.000000
-49,8,40,1625193209.0,32.000000
-49,9,40,1625193209.0,32.000000
-48,8,39,1625193209.0,32.000000
-48,8,39,1625193209.0,32.000000
-50,9,39,1625193209.0,32.000000
-48,8,40,1625193209.0,32.000000
-48,8,39,1625193209.0,32.000000
-49,8,39,1625193209.0,32.000000
-48,8,40,1625193209.0,32.000000
-48,8,39,1625193209.0,32.000000
-48,8,39,1625193209.0,32.000000
-49,9,39,1625193209.0,32.000000
-49,9,39,1625193209.0,32.000000
-48,8,39,1625193209.0,32.000000
-48,8,39,1625193209.0,32.000000
-48,8,39,1625193209.0,32.000000
-48,8,39,1625193209.0,32.000000
-48,8,39,1625193209.0,32.000000
-49,8,39,1625193209.0,32.000000
-49,8,39,1625193209.0,32.000000
-49,9,39,1625193209.0,32.000000
-48,9,39,1625193209.0,32.000000
-49,8,40,1625193209.0,32.000000
-48,8,39,1625193209.0,32.000000
-48,8,39,1625193209.0,32.000000
-48,8,39,1625193209.0,32.000000
-49,9,39,1625193209.0,32.000000
-48,8,39,1625193209.0,32.000000
-48,8,39,1625193209.0,32.000000
-49,9,39,1625193209.0,32.000000
-48,8,39,1625193209.0,32.000000
-49,8,39,1625193209.0,32.000000
-48,8,39,1625193209.0,32.000000
-49,8,40,1625193209.0,32.000000
-48,8,40,1625193209.0,32.000000
-49,8,39,1625193209.0,32.000000
-48,8,39,1625193209.0,32.000000
-49,8,39,1625193209.0,32.000000
-48,8,39,1625193209.0,32.000000
-49,8,40,1625193209.0,32.000000
-49,8,40,1625193209.0,32.000000
-49,8,39,1625193209.0,32.000000
-48,8,39,1625193209.0,32.000000
-49,8,39,1625193209.0,32.000000
-49,8,39,1625193209.0,32.000000
-48,8,39,1625193209.0,32.000000
-48,8,39,1625193209.0,32.000000
-49,8,39,1625193209.0,32.000000
-48,8,40,1625193209.0,32.000000
-48,8,40,1625193209.0,32.000000
-48,8,40,1625193209.0,32.000000
-49,8,40,1625193209.0,32.000000
-48,8,40,1625193209.0,32.000000
-48,8,39,1625193209.0,32.000000
-48,8,39,1625193209.0,32.000000
-49,8,39,1625193209.0,32.000000
-48,7,39,1625193209.0,32.000000
-49,8,40,1625193209.0,32.000000
-48,8,39,1625193209.0,32.000000
-48,8,39,1625193209.0,32.000000
-48,8,39,1625193209.0,32.000000
-49,9,39,1625193209.0,32.000000
-49,9,39,1625193209.0,32.000000
-49,9,39,1625193209.0,32.000000
-49,8,39,1625193209.0,32.000000
-49,8,39,1625193209.0,32.000000
-49,9,39,1625193209.0,32.000000
-48,9,39,1625193209.0,32.000000
-48,8,39,1625193209.0,32.000000
-49,8,39,1625193209.0,32.000000
-49,8,39,1625193209.0,32.000000
-49,9,39,1625193209.0,32.000000
-49,8,40,1625193209.0,32.000000
-48,8,40,1625193209.0,32.000000
-48,8,39,1625193209.0,32.000000
-48,8,39,1625193209.0,32.000000
-49,8,40,1625193209.0,32.000000
-48,8,39,1625193209.0,32.000000
-49,8,39,1625193209.0,32.000000
-49,8,39,1625193209.0,32.000000
-49,8,39,1625193209.0,32.000000
-48,8,39,1625193209.0,32.000000
-49,9,39,1625193209.0,32.000000
-48,8,39,1625193209.0,32.000000
-49,8,40,1625193209.0,32.000000
-49,8,39,1625193209.0,32.000000
-48,9,40,1625193209.0,32.000000
-49,8,39,1625193209.0,32.000000
-49,8,39,1625193209.0,32.000000
-48,9,39,1625193209.0,32.000000
-49,8,39,1625193209.0,32.000000
-49,9,39,1625193209.0,32.000000
-49,8,39,1625193209.0,32.000000
-49,8,40,1625193209.0,32.000000
-48,8,39,1625193209.0,32.000000
-49,8,39,1625193209.0,32.000000
-48,9,40,1625193209.0,32.000000
-48,8,39,1625193209.0,32.000000
-48,8,40,1625193209.0,32.000000
-49,8,39,1625193209.0,32.000000
-49,8,39,1625193209.0,32.000000
-49,8,39,1625193209.0,32.000000
-49,8,39,1625193209.0,32.000000
-48,8,39,1625193209.0,32.000000
-48,8,39,1625193209.0,32.000000
-48,8,39,1625193209.0,32.000000
-49,8,39,1625193209.0,32.000000
-49,8,40,1625193209.0,32.000000
-49,9,39,1625193209.0,32.000000
-48,8,39,1625193209.0,32.000000
-48,8,39,1625193209.0,32.000000
-49,9,39,1625193209.0,32.000000
-49,8,40,1625193209.0,32.000000
-49,8,39,1625193209.0,32.000000
-48,8,39,1625193209.0,32.000000
-49,8,39,1625193209.0,32.000000
-48,8,39,1625193209.0,32.000000
-49,8,39,1625193209.0,32.000000
-49,8,39,1625193209.0,32.000000
-48,8,39,1625193209.0,32.000000
-48,9,39,1625193209.0,32.000000
-48,9,39,1625193209.0,32.000000
-48,8,39,1625193209.0,32.000000
-49,8,39,1625193209.0,32.000000
-48,8,39,1625193209.0,32.000000
-49,8,39,1625193209.0,32.000000
-48,8,39,1625193209.0,32.000000
-48,8,39,1625193209.0,32.000000
-49,8,39,1625193209.0,32.000000
-49,9,39,1625193209.0,32.000000
-49,8,39,1625193209.0,32.000000
-49,8,39,1625193209.0,32.000000
-49,8,39,1625193209.0,32.000000
-48,8,39,1625193209.0,32.000000
-48,8,39,1625193209.0,32.000000
-49,8,39,1625193209.0,32.000000
-49,8,40,1625193209.0,32.000000
-49,8,39,1625193209.0,32.000000
-48,9,39,1625193209.0,32.000000
-48,9,39,1625193209.0,32.000000
-48,9,39,1625193209.0,32.000000
-48,8,39,1625193209.0,32.000000
-49,8,39,1625193209.0,32.000000
-49,9,39,1625193209.0,32.000000
-49,8,39,1625193209.0,32.000000
-49,8,39,1625193209.0,32.000000
-49,8,39,1625193209.0,32.000000
-48,9,39,1625193209.0,32.000000
-48,9,39,1625193209.0,32.000000
-48,8,39,1625193209.0,32.000000
-49,8,39,1625193209.0,32.000000
-48,8,39,1625193209.0,32.000000
-49,8,39,1625193209.0,32.000000
-49,8,39,1625193209.0,32.000000
-49,9,39,1625193209.0,32.000000
-49,9,39,1625193209.0,32.000000
-48,9,39,1625193209.0,32.000000
-49,9,39,1625193209.0,32.000000
-48,8,40,1625193209.0,32.000000
-49,9,40,1625193209.0,32.000000
-48,8,39,1625193209.0,32.000000
-48,8,39,1625193209.0,32.000000
-49,9,39,1625193209.0,32.000000
-48,9,39,1625193209.0,32.000000
-49,8,39,1625193209.0,32.000000
-49,9,39,1625193209.0,32.000000
-49,9,40,1625193209.0,32.000000
-48,9,39,1625193209.0,32.000000
-48,8,39,1625193209.0,32.000000
-49,9,39,1625193209.0,32.000000
-48,8,39,1625193209.0,32.000000
-49,9,40,1625193209.0,32.000000
-48,8,39,1625193209.0,32.000000
-48,9,39,1625193209.0,32.000000
-49,8,39,1625193209.0,32.000000
-48,9,39,1625193209.0,32.000000
-48,8,39,1625193209.0,32.000000
-48,8,39,1625193209.0,32.000000
-49,8,40,1625193209.0,32.000000
-49,8,39,1625193209.0,32.000000
-49,8,39,1625193209.0,32.000000
-49,9,39,1625193209.0,32.000000
-48,8,39,1625193209.0,32.000000
-48,8,39,1625193209.0,32.000000
-48,8,40,1625193209.0,32.000000
-49,8,39,1625193209.0,32.000000
-49,9,39,1625193209.0,32.000000
-48,8,39,1625193209.0,32.000000
-49,8,39,1625193209.0,32.000000
-49,8,40,1625193209.0,32.000000
-48,8,39,1625193209.0,32.000000
-48,8,39,1625193209.0,32.000000
-49,8,39,1625193209.0,32.000000
-48,8,39,1625193209.0,32.000000
-49,8,39,1625193209.0,32.000000
-49,8,39,1625193209.0,32.000000
-48,8,39,1625193209.0,32.000000
-49,8,40,1625193209.0,32.000000
-49,8,39,1625193209.0,32.000000
-49,8,39,1625193209.0,32.000000
-48,8,39,1625193209.0,32.000000
-48,8,40,1625193209.0,32.000000
-48,8,40,1625193209.0,32.000000
-48,8,39,1625193209.0,32.000000
-49,8,40,1625193209.0,32.000000
-48,8,39,1625193209.0,32.000000
-49,8,40,1625193209.0,32.000000
-48,8,39,1625193209.0,32.000000
-48,8,39,1625193209.0,32.000000
-49,8,39,1625193209.0,32.000000
-49,8,39,1625193209.0,32.000000
-48,8,39,1625193209.0,32.000000
-48,8,39,1625193209.0,32.000000
-48,8,39,1625193209.0,32.000000
-49,8,39,1625193209.0,32.000000
-49,8,40,1625193209.0,32.000000
-48,8,39,1625193209.0,32.000000
-48,8,39,1625193209.0,32.000000
-48,8,39,1625193209.0,32.000000
-48,8,39,1625193209.0,32.000000
-49,8,40,1625193209.0,32.000000
-48,8,39,1625193209.0,32.000000
-48,8,39,1625193209.0,32.000000
-49,8,40,1625193209.0,32.000000
-48,8,39,1625193209.0,32.000000
-49,8,40,1625193209.0,32.000000
-48,8,39,1625193209.0,32.000000
-48,8,39,1625193209.0,32.000000
-48,8,39,1625193209.0,32.000000
-49,8,39,1625193209.0,32.000000
-49,8,40,1625193209.0,32.000000
-48,8,40,1625193209.0,32.000000
-49,8,39,1625193209.0,32.000000
-49,8,39,1625193209.0,32.000000
-48,8,39,1625193209.0,32.000000
-49,9,39,1625193209.0,32.000000
-49,9,39,1625193209.0,32.000000
-49,8,39,1625193209.0,32.000000
-48,8,39,1625193209.0,32.000000
-49,8,39,1625193209.0,32.000000
-49,9,39,1625193209.0,32.000000
-48,8,39,1625193209.0,32.000000
-49,8,39,1625193209.0,32.000000
-48,8,39,1625193209.0,32.000000
-49,9,39,1625193209.0,32.000000
-48,8,39,1625193209.0,32.000000
-48,8,39,1625193209.0,32.000000
-49,9,39,1625193209.0,32.000000
-49,8,39,1625193209.0,32.000000
-49,8,39,1625193209.0,32.000000
-49,8,39,1625193209.0,32.000000
-49,9,39,1625193209.0,32.000000
-48,9,39,1625193209.0,32.000000
-48,8,40,1625193209.0,32.000000
-48,8,39,1625193209.0,32.000000
-49,9,39,1625193209.0,32.000000
-49,9,39,1625193209.0,32.000000
-49,8,39,1625193209.0,32.000000
-49,9,39,1625193209.0,32.000000
-48,9,39,1625193209.0,32.000000
-48,8,40,1625193209.0,32.000000
-48,8,39,1625193209.0,32.000000
-48,9,39,1625193209.0,32.000000
-49,9,39,1625193209.0,32.000000
-49,9,39,1625193209.0,32.000000
-49,8,39,1625193209.0,32.000000
-49,8,39,1625193209.0,32.000000
-49,8,39,1625193209.0,32.000000
-48,8,40,1625193209.0,32.000000
-49,9,40,1625193209.0,32.000000
-49,9,39,1625193209.0,32.000000
-48,8,39,1625193209.0,32.000000
-48,8,39,1625193209.0,32.000000
-48,9,39,1625193209.0,32.000000
-49,9,40,1625193209.0,32.000000
-49,8,39,1625193209.0,32.000000
-49,8,39,1625193209.0,32.000000
-49,9,39,1625193209.0,32.000000
-49,9,39,1625193209.0,32.000000
-48,8,39,1625193209.0,32.000000
-49,8,39,1625193209.0,32.000000
-48,8,39,1625193209.0,32.000000
-48,8,39,1625193209.0,32.000000
-48,8,39,1625193209.0,32.000000
-49,9,39,1625193209.0,32.000000
-49,9,39,1625193209.0,32.000000
-49,9,39,1625193209.0,32.000000
-49,8,39,1625193209.0,32.000000
-49,8,39,1625193209.0,32.000000
-49,8,40,1625193209.0,32.000000
-48,8,39,1625193209.0,32.000000
-48,9,39,1625193209.0,32.000000
-49,8,39,1625193209.0,32.000000
-49,8,39,1625193209.0,32.000000
-49,8,39,1625193209.0,32.000000
-48,8,39,1625193209.0,32.000000
-49,9,39,1625193209.0,32.000000
-48,8,40,1625193209.0,32.000000
-48,8,39,1625193209.0,32.000000
-48,8,39,1625193209.0,32.000000
-49,8,39,1625193209.0,32.000000
-49,8,39,1625193209.0,32.000000
-49,8,39,1625193209.0,32.000000
-49,8,39,1625193209.0,32.000000
-48,8,39,1625193209.0,32.000000
-48,8,39,1625193209.0,32.000000
-48,8,40,1625193209.0,32.000000
-49,8,39,1625193209.0,32.000000
-49,8,39,1625193209.0,32.000000
-49,8,40,1625193209.0,32.000000
-48,8,39,1625193209.0,32.000000
-49,8,39,1625193209.0,32.000000
-48,8,40,1625193209.0,32.000000
-48,8,39,1625193209.0,32.000000
-49,8,40,1625193209.0,32.000000
-49,8,39,1625193209.0,32.000000
-48,8,39,1625193209.0,32.000000
-48,8,39,1625193209.0,32.000000
-48,8,40,1625193209.0,32.000000
-49,8,40,1625193209.0,32.000000
-48,8,39,1625193209.0,32.000000
-49,8,39,1625193209.0,32.000000
-49,8,39,1625193209.0,32.000000
-48,8,39,1625193209.0,32.000000
-49,8,39,1625193209.0,32.000000
-49,8,40,1625193209.0,32.000000
-48,8,39,1625193209.0,32.000000
-49,8,39,1625193209.0,32.000000
-48,8,40,1625193209.0,32.000000
-49,8,40,1625193209.0,32.000000
-48,8,39,1625193209.0,32.000000
-49,8,39,1625193209.0,32.000000
-49,8,39,1625193209.0,32.000000
-49,8,39,1625193209.0,32.000000
-48,8,39,1625193209.0,32.000000
-49,8,39,1625193209.0,32.000000
-48,8,39,1625193209.0,32.000000
-48,8,39,1625193209.0,32.000000
-49,8,40,1625193209.0,32.000000
-49,8,39,1625193209.0,32.000000
-48,8,39,1625193209.0,32.000000
-48,8,39,1625193209.0,32.000000
-49,8,39,1625193209.0,32.000000
-49,8,39,1625193209.0,32.000000
-49,8,39,1625193209.0,32.000000
-49,8,39,1625193209.0,32.000000
-49,8,39,1625193209.0,32.000000
-48,8,39,1625193209.0,32.000000
-48,8,39,1625193209.0,32.000000
-48,8,39,1625193209.0,32.000000
-49,8,39,1625193209.0,32.000000
-49,8,39,1625193209.0,32.000000
-49,8,39,1625193209.0,32.000000
-49,8,39,1625193209.0,32.000000
-48,8,39,1625193209.0,32.000000
-48,8,39,1625193209.0,32.000000
-48,8,39,1625193209.0,32.000000
-49,8,39,1625193209.0,32.000000
-49,8,39,1625193209.0,32.000000
-48,8,39,1625193209.0,32.000000
-49,8,39,1625193209.0,32.000000
-48,8,39,1625193209.0,32.000000
-49,8,39,1625193209.0,32.000000
-49,9,39,1625193209.0,32.000000
-48,8,39,1625193209.0,32.000000
-49,9,40,1625193209.0,32.000000
-48,8,39,1625193209.0,32.000000
-49,9,39,1625193209.0,32.000000
-48,8,39,1625193209.0,32.000000
-49,9,39,1625193209.0,32.000000
-49,8,39,1625193209.0,32.000000
-49,9,39,1625193209.0,32.000000
-48,8,39,1625193209.0,32.000000
-49,8,39,1625193209.0,32.000000
-49,8,39,1625193209.0,32.000000
-49,9,39,1625193209.0,32.000000
-49,8,39,1625193209.0,32.000000
-49,9,39,1625193209.0,32.000000
-49,9,39,1625193209.0,32.000000
-49,9,39,1625193209.0,32.000000
-48,9,39,1625193209.0,32.000000
-48,9,39,1625193209.0,32.000000
-49,9,39,1625193209.0,32.000000
-49,8,39,1625193209.0,32.000000
-49,8,39,1625193209.0,32.000000
-49,8,39,1625193209.0,32.000000
-49,9,39,1625193209.0,32.000000
-49,9,39,1625193209.0,32.000000
-49,8,39,1625193209.0,32.000000
-49,8,39,1625193209.0,32.000000
-49,8,39,1625193209.0,32.000000
-48,9,39,1625193209.0,32.000000
-49,8,39,1625193209.0,32.000000
-49,9,39,1625193209.0,32.000000
-49,9,39,1625193209.0,32.000000
-49,8,39,1625193209.0,32.000000
-49,8,39,1625193209.0,32.000000
-49,8,39,1625193209.0,32.000000
-49,9,39,1625193209.0,32.000000
-48,8,39,1625193209.0,32.000000
-49,9,39,1625193209.0,32.000000
-48,9,39,1625193209.0,32.000000
-49,8,39,1625193209.0,32.000000
-49,8,40,1625193209.0,32.000000
-49,8,39,1625193209.0,32.000000
-49,9,39,1625193209.0,32.000000
-49,9,39,1625193209.0,32.000000
-48,9,39,1625193209.0,32.000000
-49,8,39,1625193209.0,32.000000
-49,8,39,1625193209.0,32.000000
-49,8,39,1625193209.0,32.000000
-48,8,39,1625193209.0,32.000000
-48,8,39,1625193209.0,32.000000
-49,9,39,1625193209.0,32.000000
-49,8,39,1625193209.0,32.000000
-49,8,39,1625193209.0,32.000000
-49,8,39,1625193209.0,32.000000
-49,8,39,1625193209.0,32.000000
-48,9,39,1625193209.0,32.000000
-48,9,39,1625193209.0,32.000000
-49,9,39,1625193209.0,32.000000
-49,9,39,1625193209.0,32.000000
-49,8,39,1625193209.0,32.000000
-49,9,39,1625193209.0,32.000000
-49,8,39,1625193209.0,32.000000
-48,8,39,1625193209.0,32.000000
-49,8,39,1625193209.0,32.000000
-49,9,39,1625193209.0,32.000000
-48,8,39,1625193209.0,32.000000
-49,8,39,1625193209.0,32.000000
-49,8,39,1625193209.0,32.000000
-49,8,40,1625193209.0,32.000000
-48,9,39,1625193209.0,32.000000
-49,8,39,1625193209.0,32.000000
-49,8,39,1625193209.0,32.000000
-49,8,39,1625193209.0,32.000000
-49,8,39,1625193209.0,32.000000
-49,8,39,1625193209.0,32.000000
-49,9,39,1625193209.0,32.000000
-48,9,39,1625193209.0,32.000000
-49,9,39,1625193209.0,32.000000
-49,9,39,1625193209.0,32.000000
-48,9,39,1625193209.0,32.000000
-49,9,39,1625193209.0,32.000000
-49,9,39,1625193209.0,32.000000
-49,8,39,1625193209.0,32.000000
-49,9,39,1625193209.0,32.000000
-48,8,39,1625193209.0,32.000000
-49,8,39,1625193209.0,32.000000
-49,8,39,1625193209.0,32.000000
-49,9,39,1625193209.0,32.000000
-48,9,39,1625193209.0,32.000000
-49,8,39,1625193209.0,32.000000
-49,8,40,1625193209.0,32.000000
-49,8,39,1625193209.0,32.000000
-49,8,39,1625193209.0,32.000000
-49,9,39,1625193209.0,32.000000
-49,9,39,1625193209.0,32.000000
-48,9,39,1625193209.0,32.000000
-49,9,39,1625193209.0,32.000000
-48,8,39,1625193209.0,32.000000
-49,8,40,1625193209.0,32.000000
-49,9,39,1625193209.0,32.000000
-49,9,39,1625193209.0,32.000000
-49,9,39,1625193209.0,32.000000
-49,8,39,1625193209.0,32.000000
-49,8,39,1625193209.0,32.000000
-49,8,39,1625193209.0,32.000000
-49,9,39,1625193209.0,32.000000
-48,9,39,1625193209.0,32.000000
-48,9,39,1625193209.0,32.000000
-49,9,39,1625193209.0,32.000000
-49,8,39,1625193209.0,32.000000
-48,8,39,1625193209.0,32.000000
-49,9,39,1625193209.0,32.000000
-49,9,39,1625193209.0,32.000000
-48,8,39,1625193209.0,32.000000
-49,8,39,1625193209.0,32.000000
-49,8,39,1625193209.0,32.000000
-49,9,39,1625193209.0,32.000000
-49,9,39,1625193209.0,32.000000
-48,9,39,1625193209.0,32.000000
-49,8,39,1625193209.0,32.000000
-49,9,39,1625193209.0,32.000000
-48,9,39,1625193209.0,32.000000
-49,8,39,1625193209.0,32.000000
-49,9,39,1625193209.0,32.000000
-49,8,39,1625193209.0,32.000000
-49,8,39,1625193209.0,32.000000
-49,9,39,1625193209.0,32.000000
-49,9,39,1625193209.0,32.000000
-48,8,39,1625193209.0,32.000000
-49,8,39,1625193209.0,32.000000
-49,8,39,1625193209.0,32.000000
-49,8,39,1625193209.0,32.000000
-49,8,39,1625193209.0,32.000000
-49,8,39,1625193209.0,32.000000
-48,8,40,1625193209.0,32.000000
-48,8,40,1625193209.0,32.000000
-49,8,39,1625193209.0,32.000000
-49,8,39,1625193209.0,32.000000
-49,8,39,1625193209.0,32.000000
-49,8,39,1625193209.0,32.000000
-49,8,39,1625193209.0,32.000000
-49,8,39,1625193209.0,32.000000
-49,8,39,1625193209.0,32.000000
-48,8,39,1625193209.0,32.000000
-49,8,39,1625193209.0,32.000000
-49,8,39,1625193209.0,32.000000
-49,8,39,1625193209.0,32.000000
-49,8,40,1625193209.0,32.000000
-49,8,39,1625193209.0,32.000000
-49,8,40,1625193209.0,32.000000
-48,8,39,1625193209.0,32.000000
-49,8,39,1625193209.0,32.000000
-49,8,39,1625193209.0,32.000000
-49,8,39,1625193209.0,32.000000
-49,8,39,1625193209.0,32.000000
-49,8,39,1625193209.0,32.000000
-48,9,39,1625193209.0,32.000000
-49,8,39,1625193209.0,32.000000
-49,8,39,1625193209.0,32.000000
-49,8,39,1625193209.0,32.000000
-49,8,39,1625193209.0,32.000000
-49,8,39,1625193209.0,32.000000
-48,8,39,1625193209.0,32.000000
-49,8,39,1625193209.0,32.000000
-49,8,39,1625193209.0,32.000000
-49,8,39,1625193209.0,32.000000
-49,9,39,1625193209.0,32.000000
-48,8,39,1625193209.0,32.000000
-48,8,39,1625193209.0,32.000000
-49,9,39,1625193209.0,32.000000
-48,8,39,1625193209.0,32.000000
-48,8,39,1625193209.0,32.000000
-49,8,39,1625193209.0,32.000000
-49,8,39,1625193209.0,32.000000
-49,8,39,1625193209.0,32.000000
-49,8,39,1625193209.0,32.000000
-49,9,39,1625193209.0,32.000000
-49,8,39,1625193209.0,32.000000
-49,9,39,1625193209.0,32.000000
-49,9,39,1625193209.0,32.000000
-49,8,39,1625193209.0,32.000000
-48,8,39,1625193209.0,32.000000
-49,8,39,1625193209.0,32.000000
-49,9,39,1625193209.0,32.000000
-48,8,39,1625193209.0,32.000000
-49,9,39,1625193209.0,32.000000
-49,9,39,1625193209.0,32.000000
-48,9,39,1625193209.0,32.000000
-49,9,39,1625193209.0,32.000000
-49,8,39,1625193209.0,32.000000
-48,8,39,1625193209.0,32.000000
-49,8,39,1625193209.0,32.000000
-49,9,40,1625193209.0,32.000000
-49,8,40,1625193209.0,32.000000
-48,8,39,1625193209.0,32.000000
-49,8,38,1625193209.0,32.000000
-49,9,39,1625193209.0,32.000000
-48,9,40,1625193209.0,32.000000
-49,8,40,1625193209.0,32.000000
-48,9,39,1625193209.0,32.000000
-48,9,39,1625193209.0,32.000000
-49,8,39,1625193209.0,32.000000
-49,8,39,1625193209.0,32.000000
-50,9,39,1625193209.0,32.000000
-49,9,39,1625193209.0,32.000000
-49,9,39,1625193209.0,32.000000
-50,9,39,1625193209.0,32.000000
-50,9,39,1625193209.0,32.000000
-48,9,39,1625193209.0,32.000000
-48,9,39,1625193209.0,32.000000
-48,9,39,1625193209.0,32.000000
-49,9,39,1625193209.0,32.000000
-49,9,39,1625193209.0,32.000000
-50,9,38,1625193209.0,32.000000
-49,9,39,1625193209.0,32.000000
-49,9,39,1625193209.0,32.000000
-48,9,39,1625193209.0,32.000000
-48,9,39,1625193209.0,32.000000
-48,9,39,1625193209.0,32.000000
-49,9,39,1625193209.0,32.000000
-49,9,39,1625193209.0,32.000000
-49,9,39,1625193209.0,32.000000
-49,8,38,1625193209.0,32.000000
-49,8,38,1625193209.0,32.000000
-49,9,39,1625193209.0,32.000000
-49,10,39,1625193209.0,32.000000
-48,9,40,1625193209.0,32.000000
-48,9,39,1625193209.0,32.000000
-49,8,39,1625193209.0,32.000000
-49,8,40,1625193209.0,32.000000
-49,9,39,1625193209.0,32.000000
-49,9,39,1625193209.0,32.000000
-48,10,39,1625193209.0,32.000000
-49,10,38,1625193209.0,32.000000
-49,10,39,1625193209.0,32.000000
-49,10,39,1625193209.0,32.000000
-49,10,38,1625193209.0,32.000000
-49,9,38,1625193209.0,32.000000
-49,8,38,1625193209.0,32.000000
-50,9,39,1625193209.0,32.000000
-49,9,39,1625193209.0,32.000000
-49,10,39,1625193209.0,32.000000
-48,10,39,1625193209.0,32.000000
-48,10,39,1625193209.0,32.000000
-49,9,39,1625193209.0,32.000000
-49,9,39,1625193209.0,32.000000
-50,8,38,1625193209.0,32.000000
-49,9,38,1625193209.0,32.000000
-49,9,38,1625193209.0,32.000000
-50,9,38,1625193209.0,32.000000
-50,9,38,1625193209.0,32.000000
-49,8,39,1625193209.0,32.000000
-49,8,39,1625193209.0,32.000000
-48,9,40,1625193209.0,32.000000
-48,8,40,1625193209.0,32.000000
-48,8,40,1625193209.0,32.000000
-48,8,40,1625193209.0,32.000000
-49,9,40,1625193209.0,32.000000
-48,9,40,1625193209.0,32.000000
-48,9,39,1625193209.0,32.000000
-50,9,39,1625193209.0,32.000000
-49,8,39,1625193209.0,32.000000
-49,9,40,1625193209.0,32.000000
-49,8,39,1625193209.0,32.000000
-49,10,39,1625193209.0,32.000000
-49,9,39,1625193209.0,32.000000
-49,8,39,1625193209.0,32.000000
-49,8,38,1625193209.0,32.000000
-49,9,39,1625193209.0,32.000000
-48,8,39,1625193209.0,32.000000
-49,8,39,1625193209.0,32.000000
-49,8,39,1625193209.0,32.000000
-49,8,39,1625193209.0,32.000000
-49,9,39,1625193209.0,32.000000
-49,9,39,1625193209.0,32.000000
-49,9,39,1625193209.0,32.000000
-48,9,39,1625193209.0,32.000000
-48,9,39,1625193209.0,32.000000
-49,9,39,1625193209.0,32.000000
-48,9,39,1625193209.0,32.000000
-49,9,39,1625193209.0,32.000000
-50,8,39,1625193209.0,32.000000
-50,8,39,1625193209.0,32.000000
-49,8,39,1625193209.0,32.000000
-49,9,40,1625193209.0,32.000000
-48,9,39,1625193209.0,32.000000
-48,9,39,1625193209.0,32.000000
-48,9,39,1625193209.0,32.000000
-49,9,39,1625193209.0,32.000000
-49,8,39,1625193209.0,32.000000
-49,8,39,1625193209.0,32.000000
-49,8,39,1625193209.0,32.000000
-48,8,39,1625193209.0,32.000000
-49,9,39,1625193209.0,32.000000
-49,8,39,1625193209.0,32.000000
-49,8,39,1625193209.0,32.000000
-49,8,39,1625193209.0,32.000000
-49,8,39,1625193209.0,32.000000
-49,8,39,1625193209.0,32.000000
-49,8,39,1625193209.0,32.000000
-48,8,39,1625193209.0,32.000000
-49,8,39,1625193209.0,32.000000
-49,8,39,1625193209.0,32.000000
-49,8,39,1625193209.0,32.000000
-49,8,39,1625193209.0,32.000000
-49,8,39,1625193209.0,32.000000
-49,8,39,1625193209.0,32.000000
-49,8,39,1625193209.0,32.000000
-48,8,39,1625193209.0,32.000000
-49,8,39,1625193209.0,32.000000
-49,8,39,1625193209.0,32.000000
-49,8,39,1625193209.0,32.000000
-49,8,39,1625193209.0,32.000000
-49,8,39,1625193209.0,32.000000
-49,8,39,1625193209.0,32.000000
-49,8,39,1625193209.0,32.000000
-49,8,39,1625193209.0,32.000000
-49,8,39,1625193209.0,32.000000
-49,8,39,1625193209.0,32.000000
-49,8,39,1625193209.0,32.000000
-49,8,39,1625193209.0,32.000000
-49,8,39,1625193209.0,32.000000
-49,8,39,1625193209.0,32.000000
-49,8,39,1625193209.0,32.000000
-49,8,39,1625193209.0,32.000000
-49,8,39,1625193209.0,32.000000
-49,8,39,1625193209.0,32.000000
-49,8,39,1625193209.0,32.000000
-49,8,39,1625193209.0,32.000000
-49,8,39,1625193209.0,32.000000
-48,8,39,1625193209.0,32.000000
-49,8,39,1625193209.0,32.000000
-49,8,39,1625193209.0,32.000000
-49,8,39,1625193209.0,32.000000
-49,8,39,1625193209.0,32.000000
-49,8,39,1625193209.0,32.000000
-49,8,39,1625193209.0,32.000000
-49,8,39,1625193209.0,32.000000
-49,8,39,1625193209.0,32.000000
-49,8,39,1625193209.0,32.000000
-49,8,39,1625193209.0,32.000000
-49,8,39,1625193209.0,32.000000
-49,8,39,1625193209.0,32.000000
-49,8,39,1625193209.0,32.000000
-48,8,39,1625193209.0,32.000000
-49,8,39,1625193209.0,32.000000
-49,8,39,1625193209.0,32.000000
-49,8,39,1625193209.0,32.000000
-49,8,39,1625193209.0,32.000000
-49,8,39,1625193209.0,32.000000
-49,8,39,1625193209.0,32.000000
-48,8,39,1625193209.0,32.000000
-48,8,39,1625193209.0,32.000000
-49,8,39,1625193209.0,32.000000
-49,8,39,1625193209.0,32.000000
-49,8,39,1625193209.0,32.000000
-49,8,39,1625193209.0,32.000000
-49,8,39,1625193209.0,32.000000
-49,8,39,1625193209.0,32.000000
-49,8,39,1625193209.0,32.000000
-49,8,39,1625193209.0,32.000000
-49,8,39,1625193209.0,32.000000
-49,8,39,1625193209.0,32.000000
-49,8,39,1625193209.0,32.000000
-49,8,40,1625193209.0,32.000000
-49,8,39,1625193209.0,32.000000
-49,8,39,1625193209.0,32.000000
-49,8,39,1625193209.0,32.000000
-49,8,39,1625193209.0,32.000000
-49,8,39,1625193209.0,32.000000
-49,8,39,1625193209.0,32.000000
-49,8,39,1625193209.0,32.000000
-49,8,39,1625193209.0,32.000000
-49,8,39,1625193209.0,32.000000
-49,8,39,1625193209.0,32.000000
-49,8,39,1625193209.0,32.000000
-49,8,39,1625193209.0,32.000000
-49,8,39,1625193209.0,32.000000
-49,8,40,1625193209.0,32.000000
-49,8,39,1625193209.0,32.000000
-49,8,39,1625193209.0,32.000000
-49,8,39,1625193209.0,32.000000
-49,8,39,1625193209.0,32.000000
-49,8,39,1625193209.0,32.000000
-48,8,39,1625193209.0,32.000000
-49,8,39,1625193209.0,32.000000
-48,8,39,1625193209.0,32.000000
-49,8,39,1625193209.0,32.000000
-49,8,39,1625193209.0,32.000000
-49,8,39,1625193209.0,32.000000
-49,8,39,1625193209.0,32.000000
-49,8,39,1625193209.0,32.000000
-49,8,39,1625193209.0,32.000000
-49,8,39,1625193209.0,32.000000
-49,8,39,1625193209.0,32.000000
-49,8,39,1625193209.0,32.000000
-49,8,39,1625193209.0,32.000000
-49,8,39,1625193209.0,32.000000
-49,8,39,1625193209.0,32.000000
-49,7,39,1625193209.0,32.000000
-49,8,39,1625193209.0,32.000000
-49,8,39,1625193209.0,32.000000
-49,8,39,1625193209.0,32.000000
-49,8,39,1625193209.0,32.000000
-49,8,39,1625193209.0,32.000000
-49,8,39,1625193209.0,32.000000
-49,8,39,1625193209.0,32.000000
-49,8,39,1625193209.0,32.000000
-49,7,39,1625193209.0,32.000000
-49,7,39,1625193209.0,32.000000
-49,8,39,1625193209.0,32.000000
-49,8,39,1625193209.0,32.000000
-49,8,39,1625193209.0,32.000000
-49,8,39,1625193209.0,32.000000
-49,8,39,1625193209.0,32.000000
-49,8,39,1625193209.0,32.000000
-49,8,39,1625193209.0,32.000000
-49,8,39,1625193209.0,32.000000
-49,7,39,1625193209.0,32.000000
-49,8,39,1625193209.0,32.000000
-49,8,39,1625193209.0,32.000000
-49,8,39,1625193209.0,32.000000
-49,7,39,1625193209.0,32.000000
-49,7,40,1625193209.0,32.000000
-49,7,39,1625193209.0,32.000000
-49,8,39,1625193209.0,32.000000
-49,8,39,1625193209.0,32.000000
-49,8,39,1625193209.0,32.000000
-49,8,39,1625193209.0,32.000000
-49,8,39,1625193209.0,32.000000
-49,8,39,1625193209.0,32.000000
-50,7,39,1625193209.0,32.000000
-50,8,39,1625193209.0,32.000000
-49,8,39,1625193209.0,32.000000
-48,8,39,1625193209.0,32.000000
-48,9,39,1625193209.0,32.000000
-49,9,39,1625193209.0,32.000000
-49,8,39,1625193209.0,32.000000
-49,7,39,1625193209.0,32.000000
-49,8,39,1625193209.0,32.000000
-49,8,39,1625193209.0,32.000000
-49,9,39,1625193209.0,32.000000
-48,8,38,1625193209.0,32.000000
-48,8,39,1625193209.0,32.000000
-49,7,40,1625193209.0,32.000000
-49,7,41,1625193209.0,32.000000
-48,7,40,1625193209.0,32.000000
-48,7,40,1625193209.0,32.000000
-48,7,40,1625193209.0,32.000000
-48,7,40,1625193209.0,32.000000
-49,7,40,1625193209.0,32.000000
-48,7,40,1625193209.0,32.000000
-48,8,40,1625193209.0,32.000000
-48,8,40,1625193209.0,32.000000
-48,7,40,1625193209.0,32.000000
-48,7,40,1625193209.0,32.000000
-48,7,40,1625193209.0,32.000000
-49,7,39,1625193209.0,32.000000
-49,8,39,1625193209.0,32.000000
-49,8,40,1625193209.0,32.000000
-48,7,40,1625193209.0,32.000000
-48,7,40,1625193209.0,32.000000
-48,8,40,1625193209.0,32.000000
-48,8,39,1625193209.0,32.000000
-48,8,39,1625193209.0,32.000000
-49,8,39,1625193209.0,32.000000
-49,8,39,1625193209.0,32.000000
-48,8,39,1625193209.0,32.000000
-49,8,39,1625193209.0,32.000000
-49,8,40,1625193209.0,32.000000
-48,8,40,1625193209.0,32.000000
-48,8,39,1625193209.0,32.000000
-49,8,39,1625193209.0,32.000000
-48,8,39,1625193209.0,32.000000
-49,8,39,1625193209.0,32.000000
-49,8,39,1625193209.0,32.000000
-48,8,40,1625193209.0,32.000000
-48,8,40,1625193209.0,32.000000
-48,8,40,1625193209.0,32.000000
-49,8,39,1625193209.0,32.000000
-49,8,40,1625193209.0,32.000000
-48,8,40,1625193209.0,32.000000
-48,8,40,1625193209.0,32.000000
-48,8,40,1625193209.0,32.000000
-48,8,40,1625193209.0,32.000000
-48,8,40,1625193209.0,32.000000
-48,8,39,1625193209.0,32.000000
-49,8,39,1625193209.0,32.000000
-49,8,39,1625193209.0,32.000000
-49,8,39,1625193209.0,32.000000
-49,8,40,1625193209.0,32.000000
-48,8,39,1625193209.0,32.000000
-48,8,39,1625193209.0,32.000000
-49,8,40,1625193209.0,32.000000
-49,8,40,1625193209.0,32.000000
-49,8,39,1625193209.0,32.000000
-48,8,39,1625193209.0,32.000000
-48,8,40,1625193209.0,32.000000
-48,8,39,1625193209.0,32.000000
-49,8,40,1625193209.0,32.000000
-49,8,40,1625193209.0,32.000000
-48,8,39,1625193209.0,32.000000
-48,8,39,1625193209.0,32.000000
-48,8,39,1625193209.0,32.000000
-48,8,40,1625193209.0,32.000000
-48,8,40,1625193209.0,32.000000
-49,8,39,1625193209.0,32.000000
-49,8,39,1625193209.0,32.000000
-48,8,39,1625193209.0,32.000000
-49,8,40,1625193209.0,32.000000
-48,8,40,1625193209.0,32.000000
-48,8,40,1625193209.0,32.000000
-49,8,39,1625193209.0,32.000000
-49,8,39,1625193209.0,32.000000
-49,8,39,1625193209.0,32.000000
-48,8,39,1625193209.0,32.000000
-48,8,40,1625193209.0,32.000000
-48,8,40,1625193209.0,32.000000
-48,8,40,1625193209.0,32.000000
-49,8,39,1625193209.0,32.000000
-49,8,39,1625193209.0,32.000000
-49,8,39,1625193209.0,32.000000
-48,8,39,1625193209.0,32.000000
-48,8,39,1625193209.0,32.000000
-48,8,39,1625193209.0,32.000000
-49,8,39,1625193209.0,32.000000
-49,8,39,1625193209.0,32.000000
-49,8,40,1625193209.0,32.000000
-48,8,39,1625193209.0,32.000000
-48,8,39,1625193209.0,32.000000
-49,8,40,1625193209.0,32.000000
-49,8,40,1625193209.0,32.000000
-48,8,40,1625193209.0,32.000000
-49,8,39,1625193209.0,32.000000
-48,7,39,1625193209.0,32.000000
-48,8,39,1625193209.0,32.000000
-48,8,40,1625193209.0,32.000000
-48,8,40,1625193209.0,32.000000
-48,8,39,1625193209.0,32.000000
-49,8,39,1625193209.0,32.000000
-49,8,40,1625193209.0,32.000000
-49,8,39,1625193209.0,32.000000
-48,8,39,1625193209.0,32.000000
-48,8,40,1625193209.0,32.000000
-48,8,40,1625193209.0,32.000000
-48,8,40,1625193209.0,32.000000
-48,8,39,1625193209.0,32.000000
-49,8,39,1625193209.0,32.000000
-49,8,40,1625193209.0,32.000000
-48,8,39,1625193209.0,32.000000
-48,8,39,1625193209.0,32.000000
-48,8,40,1625193209.0,32.000000
-49,8,40,1625193209.0,32.000000
-48,8,40,1625193209.0,32.000000
-49,8,39,1625193209.0,32.000000
-48,8,39,1625193209.0,32.000000
-48,8,40,1625193209.0,32.000000
-48,8,40,1625193209.0,32.000000
-48,8,39,1625193209.0,32.000000
-48,8,39,1625193209.0,32.000000
-49,8,40,1625193209.0,32.000000
-48,8,40,1625193209.0,32.000000
-49,7,40,1625193209.0,32.000000
-49,7,40,1625193209.0,32.000000
-48,8,40,1625193209.0,32.000000
-49,8,40,1625193209.0,32.000000
-48,8,40,1625193209.0,32.000000
-49,8,40,1625193209.0,32.000000
-48,8,39,1625193209.0,32.000000
-48,8,39,1625193209.0,32.000000
-48,8,40,1625193209.0,32.000000
-49,8,39,1625193209.0,32.000000
-49,8,40,1625193209.0,32.000000
-48,8,40,1625193209.0,32.000000
-48,8,39,1625193209.0,32.000000
-48,8,39,1625193209.0,32.000000
-49,8,39,1625193209.0,32.000000
-49,8,39,1625193209.0,32.000000
-49,8,39,1625193209.0,32.000000
-48,8,39,1625193209.0,32.000000
-49,8,39,1625193209.0,32.000000
-48,8,40,1625193209.0,32.000000
-49,8,40,1625193209.0,32.000000
-48,8,40,1625193209.0,32.000000
-48,8,39,1625193209.0,32.000000
-49,8,39,1625193209.0,32.000000
-49,8,39,1625193209.0,32.000000
-49,8,39,1625193209.0,32.000000
-49,8,39,1625193209.0,32.000000
-48,8,40,1625193209.0,32.000000
-48,8,40,1625193209.0,32.000000
-48,9,40,1625193209.0,32.000000
-48,9,39,1625193209.0,32.000000
-49,8,39,1625193209.0,32.000000
-49,8,39,1625193209.0,32.000000
-49,9,39,1625193209.0,32.000000
-48,9,40,1625193209.0,32.000000
-48,8,39,1625193209.0,32.000000
-49,9,39,1625193209.0,32.000000
-48,9,39,1625193209.0,32.000000
-49,9,39,1625193209.0,32.000000
-48,8,40,1625193209.0,32.000000
-49,8,39,1625193209.0,32.000000
-48,8,39,1625193209.0,32.000000
-49,8,39,1625193209.0,32.000000
-49,8,40,1625193209.0,32.000000
-49,8,39,1625193209.0,32.000000
-48,8,39,1625193209.0,32.000000
-48,9,39,1625193209.0,32.000000
-48,9,39,1625193209.0,32.000000
-48,9,39,1625193209.0,32.000000
-48,8,39,1625193209.0,32.000000
-49,9,39,1625193209.0,32.000000
-48,9,39,1625193209.0,32.000000
-49,9,39,1625193209.0,32.000000
-49,9,39,1625193209.0,32.000000
-49,9,39,1625193209.0,32.000000
-49,9,39,1625193209.0,32.000000
-48,8,40,1625193209.0,32.000000
-49,9,39,1625193209.0,32.000000
-48,8,39,1625193209.0,32.000000
-49,9,39,1625193209.0,32.000000
-49,9,39,1625193209.0,32.000000
-49,8,39,1625193209.0,32.000000
-48,9,39,1625193209.0,32.000000
-49,9,39,1625193209.0,32.000000
-48,9,40,1625193209.0,32.000000
-48,9,40,1625193209.0,32.000000
-49,9,39,1625193209.0,32.000000
-49,9,39,1625193209.0,32.000000
-49,9,39,1625193209.0,32.000000
-49,9,39,1625193209.0,32.000000
-48,9,39,1625193209.0,32.000000
-48,9,39,1625193209.0,32.000000
-49,9,39,1625193209.0,32.000000
-48,8,39,1625193209.0,32.000000
-49,9,40,1625193209.0,32.000000
-48,9,40,1625193209.0,32.000000
-48,9,39,1625193209.0,32.000000
-48,8,39,1625193209.0,32.000000
-49,8,39,1625193209.0,32.000000
-48,9,39,1625193209.0,32.000000
-48,9,39,1625193209.0,32.000000
-49,9,39,1625193209.0,32.000000
-48,9,39,1625193209.0,32.000000
-49,9,39,1625193209.0,32.000000
-48,9,39,1625193209.0,32.000000
-49,9,39,1625193209.0,32.000000
-48,9,40,1625193209.0,32.000000
-49,9,39,1625193209.0,32.000000
-49,9,39,1625193209.0,32.000000
-48,9,39,1625193209.0,32.000000
-48,9,39,1625193209.0,32.000000
-48,8,39,1625193209.0,32.000000
-49,8,39,1625193209.0,32.000000
-49,8,40,1625193209.0,32.000000
-49,9,40,1625193209.0,32.000000
-49,9,39,1625193209.0,32.000000
-48,9,39,1625193209.0,32.000000
-48,8,39,1625193209.0,32.000000
-48,9,39,1625193209.0,32.000000
-48,9,40,1625193209.0,32.000000
-48,9,40,1625193209.0,32.000000
-48,8,39,1625193209.0,32.000000
-49,8,39,1625193209.0,32.000000
-49,8,39,1625193209.0,32.000000
-49,8,39,1625193209.0,32.000000
-49,9,39,1625193209.0,32.000000
-49,8,38,1625193209.0,32.000000
-48,9,39,1625193209.0,32.000000
-50,9,39,1625193209.0,32.000000
-48,9,39,1625193209.0,32.000000
-48,10,39,1625193209.0,32.000000
-48,8,39,1625193209.0,32.000000
-49,8,39,1625193209.0,32.000000
-51,7,39,1625193209.0,32.000000
-50,6,40,1625193209.0,32.000000
-49,6,40,1625193209.0,32.000000
-48,7,40,1625193209.0,32.000000
-48,7,40,1625193209.0,32.000000
-48,9,39,1625193209.0,32.000000
-49,10,39,1625193209.0,32.000000
-50,9,39,1625193209.0,32.000000
-49,9,39,1625193209.0,32.000000
-49,8,39,1625193209.0,32.000000
-48,8,40,1625193209.0,32.000000
-48,7,39,1625193209.0,32.000000
-49,7,39,1625193209.0,32.000000
-50,7,38,1625193209.0,32.000000
-50,7,38,1625193209.0,32.000000
-51,7,38,1625193209.0,32.000000
-50,8,39,1625193209.0,32.000000
-49,8,39,1625193209.0,32.000000
-48,8,40,1625193209.0,32.000000
-48,8,40,1625193209.0,32.000000
-48,8,40,1625193209.0,32.000000
-49,8,40,1625193209.0,32.000000
-49,8,39,1625193209.0,32.000000
-49,8,38,1625193209.0,32.000000
-50,8,39,1625193209.0,32.000000
-49,8,39,1625193209.0,32.000000
-49,7,39,1625193209.0,32.000000
-49,7,39,1625193209.0,32.000000
-49,7,39,1625193209.0,32.000000
-49,7,40,1625193209.0,32.000000
-49,7,39,1625193209.0,32.000000
-48,8,39,1625193209.0,32.000000
-49,9,39,1625193209.0,32.000000
-48,9,39,1625193209.0,32.000000
-48,8,39,1625193209.0,32.000000
-48,8,39,1625193209.0,32.000000
-48,8,40,1625193209.0,32.000000
-48,8,40,1625193209.0,32.000000
-49,8,40,1625193209.0,32.000000
-49,7,39,1625193209.0,32.000000
-50,8,39,1625193209.0,32.000000
-50,8,39,1625193209.0,32.000000
-49,8,39,1625193209.0,32.000000
-49,8,39,1625193209.0,32.000000
-49,8,39,1625193209.0,32.000000
-48,8,39,1625193209.0,32.000000
-48,8,40,1625193209.0,32.000000
-48,8,40,1625193209.0,32.000000
-48,8,40,1625193209.0,32.000000
-49,8,39,1625193209.0,32.000000
-50,8,39,1625193209.0,32.000000
-49,8,39,1625193209.0,32.000000
-48,8,39,1625193209.0,32.000000
-49,8,39,1625193209.0,32.000000
-49,8,39,1625193209.0,32.000000
-48,8,39,1625193209.0,32.000000
-49,8,40,1625193209.0,32.000000
-48,8,40,1625193209.0,32.000000
-48,7,39,1625193209.0,32.000000
-49,8,39,1625193209.0,32.000000
-49,8,40,1625193209.0,32.000000
-48,8,40,1625193209.0,32.000000
-48,8,39,1625193209.0,32.000000
-49,8,39,1625193209.0,32.000000
-48,8,39,1625193209.0,32.000000
-49,7,40,1625193209.0,32.000000
-49,8,40,1625193209.0,32.000000
-48,7,39,1625193209.0,32.000000
-48,8,39,1625193209.0,32.000000
-49,7,39,1625193209.0,32.000000
-49,8,40,1625193209.0,32.000000
-48,8,40,1625193209.0,32.000000
-48,7,40,1625193209.0,32.000000
-49,7,40,1625193209.0,32.000000
-49,8,39,1625193209.0,32.000000
-49,8,39,1625193209.0,32.000000
-48,8,39,1625193209.0,32.000000
-48,7,40,1625193209.0,32.000000
-49,8,40,1625193209.0,32.000000
-49,8,40,1625193209.0,32.000000
-49,8,40,1625193209.0,32.000000
-49,8,40,1625193209.0,32.000000
-48,8,40,1625193209.0,32.000000
-48,8,39,1625193209.0,32.000000
-49,8,40,1625193209.0,32.000000
-49,8,40,1625193209.0,32.000000
-48,7,39,1625193209.0,32.000000
-49,7,39,1625193209.0,32.000000
-49,8,39,1625193209.0,32.000000
-48,8,40,1625193209.0,32.000000
-48,8,39,1625193209.0,32.000000
-48,7,40,1625193209.0,32.000000
-49,8,39,1625193209.0,32.000000
-49,8,39,1625193209.0,32.000000
-49,8,39,1625193209.0,32.000000
-49,8,39,1625193209.0,32.000000
-48,8,40,1625193209.0,32.000000
-48,8,40,1625193209.0,32.000000
-48,8,40,1625193209.0,32.000000
-48,7,40,1625193209.0,32.000000
-49,8,39,1625193209.0,32.000000
-49,8,39,1625193209.0,32.000000
-48,8,40,1625193209.0,32.000000
-48,7,39,1625193209.0,32.000000
-49,8,40,1625193209.0,32.000000
-48,7,40,1625193209.0,32.000000
-49,8,39,1625193209.0,32.000000
-49,8,40,1625193209.0,32.000000
-48,8,39,1625193209.0,32.000000
-48,8,40,1625193209.0,32.000000
-48,8,40,1625193209.0,32.000000
-48,8,39,1625193209.0,32.000000
-48,7,39,1625193209.0,32.000000
-49,7,39,1625193209.0,32.000000
-49,8,39,1625193209.0,32.000000
-48,8,39,1625193209.0,32.000000
-48,8,39,1625193209.0,32.000000
-49,7,39,1625193209.0,32.000000
-48,7,40,1625193209.0,32.000000
-49,7,40,1625193209.0,32.000000
-48,8,40,1625193209.0,32.000000
-48,8,39,1625193209.0,32.000000
-48,8,40,1625193209.0,32.000000
-48,8,40,1625193209.0,32.000000
-48,8,40,1625193209.0,32.000000
-49,8,40,1625193209.0,32.000000
-49,8,39,1625193209.0,32.000000
-49,8,40,1625193209.0,32.000000
-48,8,39,1625193209.0,32.000000
-48,8,39,1625193209.0,32.000000
-48,8,40,1625193209.0,32.000000
-48,8,40,1625193209.0,32.000000
-48,7,39,1625193209.0,32.000000
-49,8,40,1625193209.0,32.000000
-49,8,40,1625193209.0,32.000000
-49,7,39,1625193209.0,32.000000
-48,8,40,1625193209.0,32.000000
-49,8,39,1625193209.0,32.000000
-48,8,39,1625193209.0,32.000000
-48,8,39,1625193209.0,32.000000
-49,8,39,1625193209.0,32.000000
-48,8,39,1625193209.0,32.000000
-48,8,40,1625193209.0,32.000000
-49,8,39,1625193209.0,32.000000
-49,8,39,1625193209.0,32.000000
-48,8,39,1625193209.0,32.000000
-49,8,40,1625193209.0,32.000000
-48,8,40,1625193209.0,32.000000
-48,7,39,1625193209.0,32.000000
-49,7,39,1625193209.0,32.000000
-49,8,39,1625193209.0,32.000000
-49,8,40,1625193209.0,32.000000
-48,8,40,1625193209.0,32.000000
-48,8,40,1625193209.0,32.000000
-48,8,40,1625193209.0,32.000000
-48,8,39,1625193209.0,32.000000
-49,8,40,1625193209.0,32.000000
-49,8,39,1625193209.0,32.000000
-48,8,39,1625193209.0,32.000000
-49,8,39,1625193209.0,32.000000
-48,8,39,1625193209.0,32.000000
-49,8,39,1625193209.0,32.000000
-49,8,39,1625193209.0,32.000000
-48,8,39,1625193209.0,32.000000
-49,8,39,1625193209.0,32.000000
-49,8,39,1625193209.0,32.000000
-49,8,39,1625193209.0,32.000000
-49,8,40,1625193209.0,32.000000
-49,8,39,1625193209.0,32.000000
-48,8,39,1625193209.0,32.000000
-49,8,39,1625193209.0,32.000000
-48,8,39,1625193209.0,32.000000
-49,8,39,1625193209.0,32.000000
-49,8,39,1625193209.0,32.000000
-48,8,40,1625193209.0,32.000000
-49,8,39,1625193209.0,32.000000
-48,8,39,1625193209.0,32.000000
-49,8,39,1625193209.0,32.000000
-49,8,39,1625193209.0,32.000000
-48,8,39,1625193209.0,32.000000
-48,8,39,1625193209.0,32.000000
-49,8,39,1625193209.0,32.000000
-49,8,39,1625193209.0,32.000000
-49,8,39,1625193209.0,32.000000
-48,8,39,1625193209.0,32.000000
-49,8,39,1625193209.0,32.000000
-48,8,39,1625193209.0,32.000000
-49,8,39,1625193209.0,32.000000
-48,8,39,1625193209.0,32.000000
-49,8,39,1625193209.0,32.000000
-49,8,39,1625193209.0,32.000000
-48,8,39,1625193209.0,32.000000
-49,8,39,1625193209.0,32.000000
-49,8,39,1625193209.0,32.000000
-49,8,39,1625193209.0,32.000000
-49,8,39,1625193209.0,32.000000
-49,8,39,1625193209.0,32.000000
-49,8,39,1625193209.0,32.000000
-48,8,40,1625193209.0,32.000000
-49,9,39,1625193209.0,32.000000
-49,8,39,1625193209.0,32.000000
-49,8,39,1625193209.0,32.000000
-49,8,39,1625193209.0,32.000000
-49,8,39,1625193209.0,32.000000
-48,8,39,1625193209.0,32.000000
-48,8,39,1625193209.0,32.000000
-49,9,39,1625193209.0,32.000000
-49,8,39,1625193209.0,32.000000
-49,9,39,1625193209.0,32.000000
-49,8,39,1625193209.0,32.000000
-49,8,39,1625193209.0,32.000000
-49,8,39,1625193209.0,32.000000
-49,8,40,1625193209.0,32.000000
-48,8,39,1625193209.0,32.000000
-49,9,39,1625193209.0,32.000000
-48,8,39,1625193209.0,32.000000
-49,8,40,1625193209.0,32.000000
-49,8,39,1625193209.0,32.000000
-49,8,39,1625193209.0,32.000000
-49,8,39,1625193209.0,32.000000
-49,8,39,1625193209.0,32.000000
-49,8,40,1625193209.0,32.000000
-48,8,40,1625193209.0,32.000000
-48,8,39,1625193209.0,32.000000
-48,8,39,1625193209.0,32.000000
-48,8,39,1625193209.0,32.000000
-48,8,40,1625193209.0,32.000000
-49,8,40,1625193209.0,32.000000
-48,8,40,1625193209.0,32.000000
-49,8,39,1625193209.0,32.000000
-49,8,39,1625193209.0,32.000000
-49,8,40,1625193209.0,32.000000
-48,8,39,1625193209.0,32.000000
-48,8,39,1625193209.0,32.000000
-48,8,40,1625193209.0,32.000000
-48,8,40,1625193209.0,32.000000
-48,8,39,1625193209.0,32.000000
-48,8,39,1625193209.0,32.000000
-48,8,40,1625193209.0,32.000000
-49,8,40,1625193209.0,32.000000
-48,8,40,1625193209.0,32.000000
-49,8,40,1625193209.0,32.000000
-48,8,39,1625193209.0,32.000000
-48,8,40,1625193209.0,32.000000
-49,8,40,1625193209.0,32.000000
-48,8,40,1625193209.0,32.000000
-48,8,40,1625193209.0,32.000000
-48,8,40,1625193209.0,32.000000
-48,8,40,1625193209.0,32.000000
-48,8,40,1625193209.0,32.000000
-48,8,39,1625193209.0,32.000000
-48,9,39,1625193209.0,32.000000
-48,8,39,1625193209.0,32.000000
-49,8,38,1625193209.0,32.000000
-50,7,39,1625193209.0,32.000000
-50,7,39,1625193209.0,32.000000
-50,8,39,1625193209.0,32.000000
-49,8,39,1625193209.0,32.000000
-48,9,39,1625193209.0,32.000000
-48,9,39,1625193209.0,32.000000
-48,9,39,1625193209.0,32.000000
-49,9,39,1625193209.0,32.000000
-49,8,38,1625193209.0,32.000000
-49,8,38,1625193209.0,32.000000
-49,7,39,1625193209.0,32.000000
-49,8,40,1625193209.0,32.000000
-48,7,40,1625193209.0,32.000000
-48,8,40,1625193209.0,32.000000
-48,8,40,1625193209.0,32.000000
-48,8,39,1625193209.0,32.000000
-48,8,39,1625193209.0,32.000000
-49,7,40,1625193209.0,32.000000
-48,6,40,1625193209.0,32.000000
-48,6,41,1625193209.0,32.000000
-48,6,41,1625193209.0,32.000000
-47,7,41,1625193209.0,32.000000
-47,9,41,1625193209.0,32.000000
-47,8,41,1625193209.0,32.000000
-46,6,42,1625193209.0,32.000000
-47,6,42,1625193209.0,32.000000
-47,5,42,1625193209.0,32.000000
-48,5,41,1625193209.0,32.000000
-48,5,41,1625193209.0,32.000000
-48,4,41,1625193209.0,32.000000
-48,5,41,1625193209.0,32.000000
-48,6,41,1625193209.0,32.000000
-48,8,41,1625193209.0,32.000000
-48,9,41,1625193209.0,32.000000
-47,9,41,1625193209.0,32.000000
-46,8,41,1625193209.0,32.000000
-47,8,41,1625193209.0,32.000000
-48,7,41,1625193209.0,32.000000
-48,8,40,1625193209.0,32.000000
-48,10,40,1625193209.0,32.000000
-47,9,39,1625193209.0,32.000000
-48,9,39,1625193209.0,32.000000
-49,8,39,1625193209.0,32.000000
-50,7,39,1625193209.0,32.000000
-51,7,39,1625193209.0,32.000000
-52,7,38,1625193209.0,32.000000
-48,8,39,1625193209.0,32.000000
-49,9,39,1625193209.0,32.000000
-48,8,39,1625193209.0,32.000000
-48,8,40,1625193209.0,32.000000
-49,8,39,1625193209.0,32.000000
-48,8,39,1625193209.0,32.000000
-48,8,39,1625193209.0,32.000000
-49,8,39,1625193209.0,32.000000
-48,8,39,1625193209.0,32.000000
-50,7,39,1625193209.0,32.000000
-50,7,39,1625193209.0,32.000000
-50,7,39,1625193209.0,32.000000
-50,8,40,1625193209.0,32.000000
-48,7,40,1625193209.0,32.000000
-49,7,39,1625193209.0,32.000000
-48,7,39,1625193209.0,32.000000
-49,7,39,1625193209.0,32.000000
-48,7,40,1625193209.0,32.000000
-48,7,40,1625193209.0,32.000000
-49,8,39,1625193209.0,32.000000
-49,7,39,1625193209.0,32.000000
-50,7,39,1625193209.0,32.000000
-49,7,39,1625193209.0,32.000000
-49,7,39,1625193209.0,32.000000
-49,7,39,1625193209.0,32.000000
-49,7,39,1625193209.0,32.000000
-49,7,39,1625193209.0,32.000000
-49,7,39,1625193209.0,32.000000
-49,7,39,1625193209.0,32.000000
-49,7,39,1625193209.0,32.000000
-49,7,39,1625193209.0,32.000000
-49,7,39,1625193209.0,32.000000
-49,7,39,1625193209.0,32.000000
-49,7,39,1625193209.0,32.000000
-49,7,39,1625193209.0,32.000000
-49,7,39,1625193209.0,32.000000
-49,7,39,1625193209.0,32.000000
-49,7,39,1625193209.0,32.000000
-49,7,40,1625193209.0,32.000000
-49,7,39,1625193209.0,32.000000
-49,7,39,1625193209.0,32.000000
-49,7,40,1625193209.0,32.000000
-49,7,40,1625193209.0,32.000000
-49,7,39,1625193209.0,32.000000
-49,7,39,1625193209.0,32.000000
-49,7,39,1625193209.0,32.000000
-49,8,39,1625193209.0,32.000000
-48,8,39,1625193209.0,32.000000
-49,7,39,1625193209.0,32.000000
-49,7,39,1625193209.0,32.000000
-49,7,39,1625193209.0,32.000000
-49,7,39,1625193209.0,32.000000
-49,7,39,1625193209.0,32.000000
-49,7,39,1625193209.0,32.000000
-49,7,39,1625193209.0,32.000000
-49,8,39,1625193209.0,32.000000
-48,8,39,1625193209.0,32.000000
-48,8,39,1625193209.0,32.000000
-48,8,40,1625193209.0,32.000000
-48,7,39,1625193209.0,32.000000
-48,7,39,1625193209.0,32.000000
-49,7,39,1625193209.0,32.000000
-49,7,39,1625193209.0,32.000000
-49,7,39,1625193209.0,32.000000
-49,7,39,1625193209.0,32.000000
-48,7,40,1625193209.0,32.000000
-49,7,39,1625193209.0,32.000000
-49,8,39,1625193209.0,32.000000
-49,7,39,1625193209.0,32.000000
-48,7,40,1625193209.0,32.000000
-49,7,40,1625193209.0,32.000000
-49,7,40,1625193209.0,32.000000
-49,7,39,1625193209.0,32.000000
-49,7,39,1625193209.0,32.000000
-49,7,40,1625193209.0,32.000000
-49,7,40,1625193209.0,32.000000
-49,8,39,1625193209.0,32.000000
-49,8,40,1625193209.0,32.000000
-49,7,39,1625193209.0,32.000000
-49,8,39,1625193209.0,32.000000
-49,8,39,1625193209.0,32.000000
-49,8,39,1625193209.0,32.000000
-48,8,39,1625193209.0,32.000000
-49,8,39,1625193209.0,32.000000
-49,8,39,1625193209.0,32.000000
-49,8,39,1625193209.0,32.000000
-49,7,39,1625193209.0,32.000000
-49,8,39,1625193209.0,32.000000
-49,8,40,1625193209.0,32.000000
-49,8,40,1625193209.0,32.000000
-48,7,40,1625193209.0,32.000000
-48,7,39,1625193209.0,32.000000
-49,8,39,1625193209.0,32.000000
-49,7,39,1625193209.0,32.000000
-49,7,39,1625193209.0,32.000000
-49,7,39,1625193209.0,32.000000
-49,8,39,1625193209.0,32.000000
-49,8,39,1625193209.0,32.000000
-49,8,39,1625193209.0,32.000000
-48,8,39,1625193209.0,32.000000
-49,8,40,1625193209.0,32.000000
-49,8,39,1625193209.0,32.000000
-49,8,40,1625193209.0,32.000000
-49,7,40,1625193209.0,32.000000
-49,7,39,1625193209.0,32.000000
-49,8,39,1625193209.0,32.000000
-49,8,39,1625193209.0,32.000000
-49,7,39,1625193209.0,32.000000
-49,8,39,1625193209.0,32.000000
-49,8,39,1625193209.0,32.000000
-49,8,39,1625193209.0,32.000000
-49,8,39,1625193209.0,32.000000
-49,8,39,1625193209.0,32.000000
-49,8,39,1625193209.0,32.000000
-49,8,39,1625193209.0,32.000000
-49,8,39,1625193209.0,32.000000
-49,7,39,1625193209.0,32.000000
-49,8,39,1625193209.0,32.000000
-49,8,39,1625193209.0,32.000000
-49,7,39,1625193209.0,32.000000
-49,8,39,1625193209.0,32.000000
-49,8,39,1625193209.0,32.000000
-49,8,39,1625193209.0,32.000000
-49,7,39,1625193209.0,32.000000
-49,7,39,1625193209.0,32.000000
-49,7,39,1625193209.0,32.000000
-49,7,39,1625193209.0,32.000000
-49,7,39,1625193209.0,32.000000
-49,8,39,1625193209.0,32.000000
-49,7,39,1625193209.0,32.000000
-49,7,39,1625193209.0,32.000000
-49,8,39,1625193209.0,32.000000
-49,7,39,1625193209.0,32.000000
-49,7,39,1625193209.0,32.000000
-49,7,39,1625193209.0,32.000000
-49,7,39,1625193209.0,32.000000
-49,7,39,1625193209.0,32.000000
-49,7,39,1625193209.0,32.000000
-48,7,40,1625193209.0,32.000000
-49,7,39,1625193209.0,32.000000
-49,7,39,1625193209.0,32.000000
-49,7,40,1625193209.0,32.000000
-49,7,39,1625193209.0,32.000000
-48,7,40,1625193209.0,32.000000
-49,7,39,1625193209.0,32.000000
-49,7,39,1625193209.0,32.000000
-49,7,39,1625193209.0,32.000000
-49,7,39,1625193209.0,32.000000
-49,7,39,1625193209.0,32.000000
-49,7,39,1625193209.0,32.000000
-49,7,39,1625193209.0,32.000000
-49,7,39,1625193209.0,32.000000
-49,7,40,1625193209.0,32.000000
-49,7,39,1625193209.0,32.000000
-49,7,39,1625193209.0,32.000000
-49,7,40,1625193209.0,32.000000
-49,7,39,1625193209.0,32.000000
-48,7,39,1625193209.0,32.000000
-49,7,39,1625193209.0,32.000000
-49,7,40,1625193209.0,32.000000
-49,7,39,1625193209.0,32.000000
-49,7,39,1625193209.0,32.000000
-49,7,39,1625193209.0,32.000000
-49,7,39,1625193209.0,32.000000
-49,7,40,1625193209.0,32.000000
-48,7,39,1625193209.0,32.000000
-49,7,39,1625193209.0,32.000000
-49,7,39,1625193209.0,32.000000
-49,7,40,1625193209.0,32.000000
-49,7,39,1625193209.0,32.000000
-49,7,39,1625193209.0,32.000000
-49,7,39,1625193209.0,32.000000
-49,7,39,1625193209.0,32.000000
-49,7,39,1625193209.0,32.000000
-48,7,40,1625193209.0,32.000000
-49,7,39,1625193209.0,32.000000
-49,7,39,1625193209.0,32.000000
-49,7,39,1625193209.0,32.000000
-49,7,39,1625193209.0,32.000000
-49,7,39,1625193209.0,32.000000
-48,7,40,1625193209.0,32.000000
-49,7,39,1625193209.0,32.000000
-49,7,39,1625193209.0,32.000000
-49,7,40,1625193209.0,32.000000
-49,7,40,1625193209.0,32.000000
-49,7,40,1625193209.0,32.000000
-48,7,39,1625193209.0,32.000000
-49,7,39,1625193209.0,32.000000
-49,7,40,1625193209.0,32.000000
-49,7,39,1625193209.0,32.000000
-49,7,39,1625193209.0,32.000000
-49,7,40,1625193209.0,32.000000
-49,7,40,1625193209.0,32.000000
-48,7,39,1625193209.0,32.000000
-49,7,39,1625193209.0,32.000000
-49,7,39,1625193209.0,32.000000
-49,7,39,1625193209.0,32.000000
-49,7,39,1625193209.0,32.000000
-49,7,39,1625193209.0,32.000000
-49,7,40,1625193209.0,32.000000
-49,7,39,1625193209.0,32.000000
-49,7,39,1625193209.0,32.000000
-49,7,39,1625193209.0,32.000000
-49,7,39,1625193209.0,32.000000
-49,7,39,1625193209.0,32.000000
-49,7,39,1625193209.0,32.000000
-49,7,40,1625193209.0,32.000000
-49,7,39,1625193209.0,32.000000
-49,7,39,1625193209.0,32.000000
-49,7,39,1625193209.0,32.000000
-49,7,39,1625193209.0,32.000000
-48,7,39,1625193209.0,32.000000
-49,7,39,1625193209.0,32.000000
-49,7,39,1625193209.0,32.000000
-49,7,39,1625193209.0,32.000000
-49,7,39,1625193209.0,32.000000
-48,7,39,1625193209.0,32.000000
-49,7,39,1625193209.0,32.000000
-48,7,39,1625193209.0,32.000000
-49,7,39,1625193209.0,32.000000
-49,7,39,1625193209.0,32.000000
-49,7,39,1625193209.0,32.000000
-49,7,39,1625193209.0,32.000000
-49,7,39,1625193209.0,32.000000
-49,7,39,1625193209.0,32.000000
-49,7,39,1625193209.0,32.000000
-49,7,39,1625193209.0,32.000000
-49,7,39,1625193209.0,32.000000
-48,7,39,1625193209.0,32.000000
-49,7,39,1625193209.0,32.000000
-49,7,39,1625193209.0,32.000000
-49,7,39,1625193209.0,32.000000
-49,7,39,1625193209.0,32.000000
-49,7,39,1625193209.0,32.000000
-49,7,39,1625193209.0,32.000000
-49,7,39,1625193209.0,32.000000
-49,7,39,1625193209.0,32.000000
-49,7,39,1625193209.0,32.000000
-49,7,39,1625193209.0,32.000000
-49,7,39,1625193209.0,32.000000
-49,7,39,1625193209.0,32.000000
-49,7,39,1625193209.0,32.000000
-49,8,39,1625193209.0,32.000000
-49,7,39,1625193209.0,32.000000
-49,7,39,1625193209.0,32.000000
-49,7,39,1625193209.0,32.000000
-49,7,39,1625193209.0,32.000000
-49,7,39,1625193209.0,32.000000
-49,7,39,1625193209.0,32.000000
-49,7,39,1625193209.0,32.000000
-49,7,39,1625193209.0,32.000000
-49,7,39,1625193209.0,32.000000
-49,7,39,1625193209.0,32.000000
-49,7,39,1625193209.0,32.000000
-49,7,39,1625193209.0,32.000000
-49,7,39,1625193209.0,32.000000
-49,7,39,1625193209.0,32.000000
-49,7,39,1625193209.0,32.000000
-49,7,39,1625193209.0,32.000000
-49,7,39,1625193209.0,32.000000
-49,7,39,1625193209.0,32.000000
-49,7,39,1625193209.0,32.000000
-49,7,39,1625193209.0,32.000000
-49,7,39,1625193209.0,32.000000
-49,7,39,1625193209.0,32.000000
-49,7,39,1625193209.0,32.000000
-49,7,39,1625193209.0,32.000000
-49,8,39,1625193209.0,32.000000
-49,7,39,1625193209.0,32.000000
-49,8,39,1625193209.0,32.000000
-49,8,38,1625193209.0,32.000000
-48,7,39,1625193209.0,32.000000
-48,8,39,1625193209.0,32.000000
-49,7,39,1625193209.0,32.000000
-49,7,39,1625193209.0,32.000000
-49,7,39,1625193209.0,32.000000
-48,6,40,1625193209.0,32.000000
-49,6,40,1625193209.0,32.000000
-48,6,40,1625193209.0,32.000000
-48,7,40,1625193209.0,32.000000
-48,7,40,1625193209.0,32.000000
-48,7,40,1625193209.0,32.000000
-49,6,40,1625193209.0,32.000000
-49,6,40,1625193209.0,32.000000
-48,6,40,1625193209.0,32.000000
-48,6,40,1625193209.0,32.000000
-48,6,40,1625193209.0,32.000000
-48,6,40,1625193209.0,32.000000
-49,6,39,1625193209.0,32.000000
-49,7,39,1625193209.0,32.000000
-49,7,39,1625193209.0,32.000000
-49,7,39,1625193209.0,32.000000
-49,7,40,1625193209.0,32.000000
-48,7,40,1625193209.0,32.000000
-48,7,40,1625193209.0,32.000000
-49,6,40,1625193209.0,32.000000
-49,7,39,1625193209.0,32.000000
-49,7,39,1625193209.0,32.000000
-49,7,39,1625193209.0,32.000000
-49,7,39,1625193209.0,32.000000
-49,6,39,1625193209.0,32.000000
-49,6,39,1625193209.0,32.000000
-49,6,39,1625193209.0,32.000000
-49,7,39,1625193209.0,32.000000
-49,7,39,1625193209.0,32.000000
-49,8,39,1625193209.0,32.000000
-49,7,39,1625193209.0,32.000000
-49,7,39,1625193209.0,32.000000
-49,7,39,1625193209.0,32.000000
-49,7,39,1625193209.0,32.000000
-49,7,39,1625193209.0,32.000000
-49,7,39,1625193209.0,32.000000
-49,7,39,1625193209.0,32.000000
-49,7,39,1625193209.0,32.000000
-49,7,39,1625193209.0,32.000000
-49,7,39,1625193209.0,32.000000
-49,7,39,1625193209.0,32.000000
-49,7,39,1625193209.0,32.000000
-49,7,39,1625193209.0,32.000000
-49,7,39,1625193209.0,32.000000
-49,6,40,1625193209.0,32.000000
-49,7,39,1625193209.0,32.000000
-49,7,39,1625193209.0,32.000000
-49,8,39,1625193209.0,32.000000
-50,9,38,1625193209.0,32.000000
-49,8,38,1625193209.0,32.000000
-50,6,38,1625193209.0,32.000000
-50,6,38,1625193209.0,32.000000
-50,6,39,1625193209.0,32.000000
-49,7,39,1625193209.0,32.000000
-49,8,39,1625193209.0,32.000000
-48,8,39,1625193209.0,32.000000
-48,8,39,1625193209.0,32.000000
-49,7,39,1625193209.0,32.000000
-50,7,38,1625193209.0,32.000000
-50,7,38,1625193209.0,32.000000
-49,7,39,1625193209.0,32.000000
-49,6,40,1625193209.0,32.000000
-49,7,39,1625193209.0,32.000000
-48,8,39,1625193209.0,32.000000
-48,8,39,1625193209.0,32.000000
-50,8,38,1625193209.0,32.000000
-50,7,38,1625193209.0,32.000000
-50,5,39,1625193209.0,32.000000
-50,6,39,1625193209.0,32.000000
-49,7,39,1625193209.0,32.000000
-48,8,39,1625193209.0,32.000000
-48,8,39,1625193209.0,32.000000
-49,8,39,1625193209.0,32.000000
-50,7,39,1625193209.0,32.000000
-50,7,39,1625193209.0,32.000000
-50,6,39,1625193209.0,32.000000
-49,7,39,1625193209.0,32.000000
-49,7,39,1625193209.0,32.000000
-49,7,39,1625193209.0,32.000000
-49,7,39,1625193209.0,32.000000
-50,7,39,1625193209.0,32.000000
-49,7,39,1625193209.0,32.000000
-49,8,39,1625193209.0,32.000000
-49,7,39,1625193209.0,32.000000
-49,7,39,1625193209.0,32.000000
-49,7,39,1625193209.0,32.000000
-49,7,39,1625193209.0,32.000000
-49,7,39,1625193209.0,32.000000
-49,7,39,1625193209.0,32.000000
-49,7,39,1625193209.0,32.000000
-49,7,39,1625193209.0,32.000000
-49,7,39,1625193209.0,32.000000
-49,7,39,1625193209.0,32.000000
-49,7,38,1625193209.0,32.000000
-49,7,39,1625193209.0,32.000000
-49,7,39,1625193209.0,32.000000
-49,7,39,1625193209.0,32.000000
-49,7,40,1625193209.0,32.000000
-49,7,39,1625193209.0,32.000000
-49,7,39,1625193209.0,32.000000
-49,7,39,1625193209.0,32.000000
-49,7,39,1625193209.0,32.000000
-49,7,39,1625193209.0,32.000000
-50,7,38,1625193209.0,32.000000
-50,7,39,1625193209.0,32.000000
-50,7,39,1625193209.0,32.000000
-50,7,38,1625193209.0,32.000000
-49,6,39,1625193209.0,32.000000
-49,6,39,1625193209.0,32.000000
-49,7,39,1625193209.0,32.000000
-49,7,39,1625193209.0,32.000000
-49,7,39,1625193209.0,32.000000
-50,7,39,1625193209.0,32.000000
-49,7,39,1625193209.0,32.000000
-49,7,39,1625193209.0,32.000000
-49,7,39,1625193209.0,32.000000
-49,7,39,1625193209.0,32.000000
-49,7,39,1625193209.0,32.000000
-50,7,39,1625193209.0,32.000000
-49,7,38,1625193209.0,32.000000
-49,7,39,1625193209.0,32.000000
-50,7,39,1625193209.0,32.000000
-49,7,39,1625193209.0,32.000000
-49,7,39,1625193209.0,32.000000
-49,8,39,1625193209.0,32.000000
-49,8,39,1625193209.0,32.000000
-49,7,39,1625193209.0,32.000000
-50,7,38,1625193209.0,32.000000
-50,7,39,1625193209.0,32.000000
-49,7,39,1625193209.0,32.000000
-49,7,39,1625193209.0,32.000000
-49,7,39,1625193209.0,32.000000
-50,7,39,1625193209.0,32.000000
-49,7,39,1625193209.0,32.000000
-49,8,38,1625193209.0,32.000000
-49,8,38,1625193209.0,32.000000
-50,7,39,1625193209.0,32.000000
-50,7,39,1625193209.0,32.000000
-49,7,39,1625193209.0,32.000000
-49,7,39,1625193209.0,32.000000
-49,8,38,1625193209.0,32.000000
-50,8,39,1625193209.0,32.000000
-49,7,39,1625193209.0,32.000000
-49,7,39,1625193209.0,32.000000
-49,7,38,1625193209.0,32.000000
-49,8,38,1625193209.0,32.000000
-50,8,38,1625193209.0,32.000000
-49,7,38,1625193209.0,32.000000
-49,7,39,1625193209.0,32.000000
-50,7,38,1625193209.0,32.000000
-50,7,38,1625193209.0,32.000000
-50,7,38,1625193209.0,32.000000
-49,7,39,1625193209.0,32.000000
-49,7,39,1625193209.0,32.000000
-49,7,39,1625193209.0,32.000000
-49,7,39,1625193209.0,32.000000
-49,6,39,1625193209.0,32.000000
-49,6,40,1625193209.0,32.000000
-49,7,40,1625193209.0,32.000000
-48,6,40,1625193209.0,32.000000
-48,6,39,1625193209.0,32.000000
-49,7,39,1625193209.0,32.000000
-49,7,39,1625193209.0,32.000000
-49,7,39,1625193209.0,32.000000
-49,6,39,1625193209.0,32.000000
-49,6,39,1625193209.0,32.000000
-49,6,40,1625193209.0,32.000000
-49,7,39,1625193209.0,32.000000
-49,7,39,1625193209.0,32.000000
-48,7,39,1625193209.0,32.000000
-49,7,39,1625193209.0,32.000000
-49,7,39,1625193209.0,32.000000
-49,7,39,1625193209.0,32.000000
-49,7,39,1625193209.0,32.000000
-49,6,39,1625193209.0,32.000000
-49,7,39,1625193209.0,32.000000
-49,7,39,1625193209.0,32.000000
-49,7,39,1625193209.0,32.000000
-49,6,39,1625193209.0,32.000000
-49,7,39,1625193209.0,32.000000
-49,7,39,1625193209.0,32.000000
-49,7,40,1625193209.0,32.000000
-49,7,39,1625193209.0,32.000000
-49,7,39,1625193209.0,32.000000
-49,7,39,1625193209.0,32.000000
-49,7,40,1625193209.0,32.000000
-49,7,39,1625193209.0,32.000000
-49,7,39,1625193209.0,32.000000
-49,7,39,1625193209.0,32.000000
-49,7,39,1625193209.0,32.000000
-49,7,39,1625193209.0,32.000000
-49,7,40,1625193209.0,32.000000
-49,7,39,1625193209.0,32.000000
-49,7,39,1625193209.0,32.000000
-49,7,39,1625193209.0,32.000000
-49,7,39,1625193209.0,32.000000
-49,7,39,1625193209.0,32.000000
-49,7,39,1625193209.0,32.000000
-49,7,39,1625193209.0,32.000000
-49,7,39,1625193209.0,32.000000
-49,7,38,1625193209.0,32.000000
-49,7,38,1625193209.0,32.000000
-50,7,38,1625193209.0,32.000000
-50,7,38,1625193209.0,32.000000
-49,6,39,1625193209.0,32.000000
-50,6,40,1625193209.0,32.000000
-49,5,40,1625193209.0,32.000000
-49,5,40,1625193209.0,32.000000
-48,6,40,1625193209.0,32.000000
-48,6,40,1625193209.0,32.000000
-48,7,40,1625193209.0,32.000000
-49,7,40,1625193209.0,32.000000
-48,7,39,1625193209.0,32.000000
-49,7,39,1625193209.0,32.000000
-49,7,39,1625193209.0,32.000000
-49,6,39,1625193209.0,32.000000
-49,7,39,1625193209.0,32.000000
-49,7,39,1625193209.0,32.000000
-50,7,38,1625193209.0,32.000000
-49,7,39,1625193209.0,32.000000
-49,6,39,1625193209.0,32.000000
-49,7,40,1625193209.0,32.000000
-48,6,40,1625193209.0,32.000000
-49,7,39,1625193209.0,32.000000
-49,7,39,1625193209.0,32.000000
-49,7,39,1625193209.0,32.000000
-49,6,39,1625193209.0,32.000000
-49,7,39,1625193209.0,32.000000
-49,6,39,1625193209.0,32.000000
-49,6,39,1625193209.0,32.000000
-49,6,39,1625193209.0,32.000000
-49,7,39,1625193209.0,32.000000
-49,7,39,1625193209.0,32.000000
-49,7,39,1625193209.0,32.000000
-49,7,39,1625193209.0,32.000000
-49,7,39,1625193209.0,32.000000
-49,6,40,1625193209.0,32.000000
-49,7,39,1625193209.0,32.000000
-49,7,39,1625193209.0,32.000000
-49,7,39,1625193209.0,32.000000
-50,7,39,1625193209.0,32.000000
-49,7,38,1625193209.0,32.000000
-49,7,39,1625193209.0,32.000000
-49,6,39,1625193209.0,32.000000
-49,6,40,1625193209.0,32.000000
-49,7,40,1625193209.0,32.000000
-49,7,39,1625193209.0,32.000000
-49,7,39,1625193209.0,32.000000
-49,7,39,1625193209.0,32.000000
-49,7,39,1625193209.0,32.000000
-49,6,39,1625193209.0,32.000000
-49,6,39,1625193209.0,32.000000
-49,6,40,1625193209.0,32.000000
-50,5,39,1625193209.0,32.000000
-50,6,39,1625193209.0,32.000000
-50,6,38,1625193209.0,32.000000
-50,7,38,1625193209.0,32.000000
-49,7,39,1625193209.0,32.000000
-48,7,39,1625193209.0,32.000000
-48,6,40,1625193209.0,32.000000
-49,6,39,1625193209.0,32.000000
-50,6,39,1625193209.0,32.000000
-49,7,39,1625193209.0,32.000000
-49,8,38,1625193209.0,32.000000
-49,7,39,1625193209.0,32.000000
-50,5,39,1625193209.0,32.000000
-50,6,39,1625193209.0,32.000000
-49,6,39,1625193209.0,32.000000
-49,7,39,1625193209.0,32.000000
-49,8,39,1625193209.0,32.000000
-49,8,38,1625193209.0,32.000000
-49,8,38,1625193209.0,32.000000
-49,8,38,1625193209.0,32.000000
-50,6,39,1625193209.0,32.000000
-50,6,39,1625193209.0,32.000000
-49,5,40,1625193209.0,32.000000
-49,6,40,1625193209.0,32.000000
-48,6,40,1625193209.0,32.000000
-48,7,39,1625193209.0,32.000000
-48,8,39,1625193209.0,32.000000
-48,8,39,1625193209.0,32.000000
-48,7,39,1625193209.0,32.000000
-48,6,40,1625193209.0,32.000000
-49,5,39,1625193209.0,32.000000
-51,4,40,1625193209.0,32.000000
-51,4,39,1625193209.0,32.000000
-51,4,38,1625193209.0,32.000000
-51,4,39,1625193209.0,32.000000
-49,5,40,1625193209.0,32.000000
-50,7,39,1625193209.0,32.000000
-50,8,39,1625193209.0,32.000000
-47,7,40,1625193209.0,32.000000
-47,7,41,1625193209.0,32.000000
-48,5,41,1625193209.0,32.000000
-47,5,42,1625193209.0,32.000000
-46,5,43,1625193209.0,32.000000
-51,5,41,1625193209.0,32.000000
-47,5,43,1625193209.0,32.000000
-45,6,43,1625193209.0,32.000000
-44,6,44,1625193209.0,32.000000
-44,7,44,1625193209.0,32.000000
-42,7,45,1625193209.0,32.000000
-44,7,45,1625193209.0,32.000000
-45,6,44,1625193209.0,32.000000
-46,6,42,1625193209.0,32.000000
-47,6,42,1625193209.0,32.000000
-50,7,39,1625193209.0,32.000000
-51,7,38,1625193209.0,32.000000
-50,8,37,1625193209.0,32.000000
-50,8,36,1625193209.0,32.000000
-51,8,36,1625193209.0,32.000000
-51,6,38,1625193209.0,32.000000
-51,5,39,1625193209.0,32.000000
-51,6,39,1625193209.0,32.000000
-49,7,39,1625193209.0,32.000000
-48,9,39,1625193209.0,32.000000
-47,10,39,1625193209.0,32.000000
-47,8,40,1625193209.0,32.000000
-47,8,40,1625193209.0,32.000000
-47,7,40,1625193209.0,32.000000
-48,6,40,1625193209.0,32.000000
-49,5,40,1625193209.0,32.000000
-50,5,39,1625193209.0,32.000000
-50,5,39,1625193209.0,32.000000
-50,5,38,1625193209.0,32.000000
-50,6,38,1625193209.0,32.000000
-50,6,38,1625193209.0,32.000000
-50,6,38,1625193209.0,32.000000
-53,5,38,1625193209.0,32.000000
-53,5,38,1625193209.0,32.000000
-50,5,38,1625193209.0,32.000000
-52,6,37,1625193209.0,32.000000
-50,6,38,1625193209.0,32.000000
-49,6,38,1625193209.0,32.000000
-50,6,39,1625193209.0,32.000000
-50,7,39,1625193209.0,32.000000
-48,7,39,1625193209.0,32.000000
-49,7,39,1625193209.0,32.000000
-48,7,39,1625193209.0,32.000000
-48,7,39,1625193209.0,32.000000
-49,6,40,1625193209.0,32.000000
-49,6,39,1625193209.0,32.000000
-49,6,39,1625193209.0,32.000000
-49,7,39,1625193209.0,32.000000
-49,7,39,1625193209.0,32.000000
-49,7,39,1625193209.0,32.000000
-49,7,39,1625193209.0,32.000000
-49,7,39,1625193209.0,32.000000
-49,8,39,1625193209.0,32.000000
-49,7,39,1625193209.0,32.000000
-48,7,39,1625193209.0,32.000000
-48,7,40,1625193209.0,32.000000
-48,7,40,1625193209.0,32.000000
-48,7,40,1625193209.0,32.000000
-48,7,40,1625193209.0,32.000000
-49,7,39,1625193209.0,32.000000
-49,7,39,1625193209.0,32.000000
-49,7,39,1625193209.0,32.000000
-49,7,40,1625193209.0,32.000000
-48,7,40,1625193209.0,32.000000
-48,7,40,1625193209.0,32.000000
-48,7,40,1625193209.0,32.000000
-48,7,40,1625193209.0,32.000000
-48,7,40,1625193209.0,32.000000
-48,7,39,1625193209.0,32.000000
-48,7,40,1625193209.0,32.000000
-48,7,40,1625193209.0,32.000000
-48,7,40,1625193209.0,32.000000
-48,7,40,1625193209.0,32.000000
-48,7,40,1625193209.0,32.000000
-48,7,40,1625193209.0,32.000000
-48,7,40,1625193209.0,32.000000
-48,7,40,1625193209.0,32.000000
-49,7,39,1625193209.0,32.000000
-48,7,40,1625193209.0,32.000000
-48,7,40,1625193209.0,32.000000
-48,7,40,1625193209.0,32.000000
-48,7,40,1625193209.0,32.000000
-48,7,40,1625193209.0,32.000000
-48,7,39,1625193209.0,32.000000
-48,7,40,1625193209.0,32.000000
-48,7,40,1625193209.0,32.000000
-48,7,40,1625193209.0,32.000000
-48,7,40,1625193209.0,32.000000
-48,7,40,1625193209.0,32.000000
-48,7,40,1625193209.0,32.000000
-48,7,40,1625193209.0,32.000000
-48,7,40,1625193209.0,32.000000
-48,7,40,1625193209.0,32.000000
-48,7,40,1625193209.0,32.000000
-48,7,40,1625193209.0,32.000000
-48,7,40,1625193209.0,32.000000
-48,7,40,1625193209.0,32.000000
-48,7,40,1625193209.0,32.000000
-48,7,40,1625193209.0,32.000000
-48,6,40,1625193209.0,32.000000
-48,6,40,1625193209.0,32.000000
-48,7,40,1625193209.0,32.000000
-48,7,40,1625193209.0,32.000000
-48,7,40,1625193209.0,32.000000
-48,7,40,1625193209.0,32.000000
-48,7,40,1625193209.0,32.000000
-48,7,40,1625193209.0,32.000000
-48,7,40,1625193209.0,32.000000
-48,7,40,1625193209.0,32.000000
-48,7,40,1625193209.0,32.000000
-48,7,40,1625193209.0,32.000000
-48,7,40,1625193209.0,32.000000
-48,7,40,1625193209.0,32.000000
-48,7,40,1625193209.0,32.000000
-48,7,40,1625193209.0,32.000000
-48,7,40,1625193209.0,32.000000
-48,7,40,1625193209.0,32.000000
-48,7,40,1625193209.0,32.000000
-48,7,40,1625193209.0,32.000000
-48,7,40,1625193209.0,32.000000
-48,7,40,1625193209.0,32.000000
-48,7,40,1625193209.0,32.000000
-48,7,40,1625193209.0,32.000000
-48,7,40,1625193209.0,32.000000
-48,7,40,1625193209.0,32.000000
-48,7,40,1625193209.0,32.000000
-48,7,40,1625193209.0,32.000000
-48,7,40,1625193209.0,32.000000
-48,7,40,1625193209.0,32.000000
-48,7,40,1625193209.0,32.000000
-48,7,40,1625193209.0,32.000000
-48,7,40,1625193209.0,32.000000
-49,7,40,1625193209.0,32.000000
-48,7,41,1625193209.0,32.000000
-48,7,41,1625193209.0,32.000000
-48,7,41,1625193209.0,32.000000
-48,7,41,1625193209.0,32.000000
-49,8,40,1625193209.0,32.000000
-46,6,40,1625193209.0,32.000000
-49,6,40,1625193209.0,32.000000
-48,6,40,1625193209.0,32.000000
-49,7,40,1625193209.0,32.000000
-48,7,40,1625193209.0,32.000000
-48,6,41,1625193209.0,32.000000
-47,5,44,1625193209.0,32.000000
-56,4,41,1625193209.0,32.000000
-50,6,38,1625193209.0,32.000000
-51,9,36,1625193209.0,32.000000
-44,13,38,1625193209.0,32.000000
-40,14,36,1625193209.0,32.000000
-44,14,44,1625193209.0,32.000000
-41,12,39,1625193209.0,32.000000
-35,13,43,1625193209.0,32.000000
-30,1,63,1625193209.0,32.000000
-39,10,49,1625193209.0,32.000000
-39,10,49,1625193209.0,32.000000
-46,12,43,1625193209.0,32.000000
-42,8,45,1625193209.0,32.000000
-42,7,50,1625193209.0,32.000000
-34,6,52,1625193209.0,32.000000
-32,8,51,1625193209.0,32.000000
-35,7,50,1625193209.0,32.000000
-39,5,50,1625193209.0,32.000000
-43,4,46,1625193209.0,32.000000
-46,4,48,1625193209.0,32.000000
-44,4,48,1625193209.0,32.000000
-42,4,47,1625193209.0,32.000000
-43,2,50,1625193209.0,32.000000
-42,1,53,1625193209.0,32.000000
-44,6,47,1625193209.0,32.000000
-33,10,45,1625193209.0,32.000000
-58,6,51,1625193209.0,32.000000
-29,4,53,1625193209.0,32.000000
-30,5,50,1625193209.0,32.000000
-32,8,51,1625193209.0,32.000000
-25,10,54,1625193209.0,32.000000
-22,10,56,1625193209.0,32.000000
-28,12,55,1625193209.0,32.000000
-27,12,56,1625193209.0,32.000000
-22,11,58,1625193209.0,32.000000
-26,10,56,1625193209.0,32.000000
-25,10,57,1625193209.0,32.000000
-24,9,59,1625193209.0,32.000000
-26,9,59,1625193209.0,32.000000
-26,9,56,1625193209.0,32.000000
-25,10,56,1625193209.0,32.000000
-25,10,56,1625193209.0,32.000000
-27,10,56,1625193209.0,32.000000
-27,10,55,1625193209.0,32.000000
-27,10,57,1625193209.0,32.000000
-26,10,56,1625193209.0,32.000000
-26,10,57,1625193209.0,32.000000
-27,10,55,1625193209.0,32.000000
-27,10,56,1625193209.0,32.000000
-27,11,56,1625193209.0,32.000000
-28,11,55,1625193209.0,32.000000
-28,11,55,1625193209.0,32.000000
-28,11,55,1625193209.0,32.000000
-28,11,55,1625193209.0,32.000000
-28,10,55,1625193209.0,32.000000
-28,10,56,1625193209.0,32.000000
-29,10,55,1625193209.0,32.000000
-29,10,55,1625193209.0,32.000000
-29,10,55,1625193209.0,32.000000
-29,11,55,1625193209.0,32.000000
-30,10,55,1625193209.0,32.000000
-30,11,55,1625193209.0,32.000000
-30,11,55,1625193209.0,32.000000
-30,11,54,1625193209.0,32.000000
-30,10,55,1625193209.0,32.000000
-30,11,54,1625193209.0,32.000000
-29,10,55,1625193209.0,32.000000
-30,10,55,1625193209.0,32.000000
-30,11,54,1625193209.0,32.000000
-31,11,54,1625193209.0,32.000000
-29,10,55,1625193209.0,32.000000
-30,11,55,1625193209.0,32.000000
-29,11,55,1625193209.0,32.000000
-30,11,54,1625193209.0,32.000000
-31,11,55,1625193209.0,32.000000
-30,10,54,1625193209.0,32.000000
-30,10,55,1625193209.0,32.000000
-30,10,55,1625193209.0,32.000000
-30,11,55,1625193209.0,32.000000
-30,10,54,1625193209.0,32.000000
-30,11,55,1625193209.0,32.000000
-31,10,54,1625193209.0,32.000000
-31,10,54,1625193209.0,32.000000
-30,10,55,1625193209.0,32.000000
-30,10,55,1625193209.0,32.000000
-30,10,54,1625193209.0,32.000000
-31,10,54,1625193209.0,32.000000
-30,10,54,1625193209.0,32.000000
-30,10,54,1625193209.0,32.000000
-31,11,54,1625193209.0,32.000000
-31,10,54,1625193209.0,32.000000
-31,10,54,1625193209.0,32.000000
-30,11,54,1625193209.0,32.000000
-30,11,54,1625193209.0,32.000000
-30,10,54,1625193209.0,32.000000
-30,10,54,1625193209.0,32.000000
-31,11,54,1625193209.0,32.000000
-31,10,54,1625193209.0,32.000000
-31,11,54,1625193209.0,32.000000
-32,11,54,1625193209.0,32.000000
-31,11,54,1625193209.0,32.000000
-31,10,54,1625193209.0,32.000000
-31,11,54,1625193209.0,32.000000
-31,11,54,1625193209.0,32.000000
-31,11,54,1625193209.0,32.000000
-31,10,54,1625193209.0,32.000000
-31,11,54,1625193209.0,32.000000
-32,11,54,1625193209.0,32.000000
-31,11,54,1625193209.0,32.000000
-31,10,54,1625193209.0,32.000000
-31,11,54,1625193209.0,32.000000
-31,11,54,1625193209.0,32.000000
-31,11,54,1625193209.0,32.000000
-31,11,54,1625193209.0,32.000000
-31,11,54,1625193209.0,32.000000
-32,11,54,1625193209.0,32.000000
-32,11,53,1625193209.0,32.000000
-31,11,54,1625193209.0,32.000000
-31,10,54,1625193209.0,32.000000
-31,10,54,1625193209.0,32.000000
-31,10,54,1625193209.0,32.000000
-31,11,54,1625193209.0,32.000000
-32,11,53,1625193209.0,32.000000
