ACC_X,ACC_Y,ACC_Z,start_time_unix,sampling_rate
-54,14,29,1630284410.0,32.000000
-55,14,29,1630284410.0,32.000000
-55,15,29,1630284410.0,32.000000
-54,14,29,1630284410.0,32.000000
-54,14,29,1630284410.0,32.000000
-54,15,29,1630284410.0,32.000000
-54,15,29,1630284410.0,32.000000
-54,14,29,1630284410.0,32.000000
-54,14,29,1630284410.0,32.000000
-54,15,29,1630284410.0,32.000000
-55,15,29,1630284410.0,32.000000
-54,14,29,1630284410.0,32.000000
-54,14,29,1630284410.0,32.000000
-54,14,29,1630284410.0,32.000000
-54,15,29,1630284410.0,32.000000
-54,15,29,1630284410.0,32.000000
-54,14,30,1630284410.0,32.000000
-54,14,29,1630284410.0,32.000000
-54,15,29,1630284410.0,32.000000
-54,15,29,1630284410.0,32.000000
-54,15,29,1630284410.0,32.000000
-54,15,29,1630284410.0,32.000000
-55,14,28,1630284410.0,32.000000
-55,14,29,1630284410.0,32.000000
-54,15,29,1630284410.0,32.000000
-54,15,29,1630284410.0,32.000000
-55,14,29,1630284410.0,32.000000
-54,14,30,1630284410.0,32.000000
-54,15,29,1630284410.0,32.000000
-54,15,29,1630284410.0,32.000000
-54,15,29,1630284410.0,32.000000
-54,15,30,1630284410.0,32.000000
-54,15,29,1630284410.0,32.000000
-54,15,29,1630284410.0,32.000000
-54,15,30,1630284410.0,32.000000
-54,15,30,1630284410.0,32.000000
-54,15,29,1630284410.0,32.000000
-54,15,29,1630284410.0,32.000000
-54,15,29,1630284410.0,32.000000
-54,15,30,1630284410.0,32.000000
-54,15,30,1630284410.0,32.000000
-54,15,29,1630284410.0,32.000000
-54,15,30,1630284410.0,32.000000
-54,15,29,1630284410.0,32.000000
-54,15,29,1630284410.0,32.000000
-54,15,29,1630284410.0,32.000000
-54,15,29,1630284410.0,32.000000
-54,15,30,1630284410.0,32.000000
-54,15,29,1630284410.0,32.000000
-54,15,30,1630284410.0,32.000000
-54,15,29,1630284410.0,32.000000
-54,15,29,1630284410.0,32.000000
-54,15,29,1630284410.0,32.000000
-54,15,30,1630284410.0,32.000000
-54,15,30,1630284410.0,32.000000
-54,15,30,1630284410.0,32.000000
-54,15,29,1630284410.0,32.000000
-54,15,30,1630284410.0,32.000000
-54,15,30,1630284410.0,32.000000
-54,15,30,1630284410.0,32.000000
-54,15,30,1630284410.0,32.000000
-54,15,30,1630284410.0,32.000000
-54,15,30,1630284410.0,32.000000
-54,15,29,1630284410.0,32.000000
-54,15,30,1630284410.0,32.000000
-54,15,30,1630284410.0,32.000000
-54,15,30,1630284410.0,32.000000
-54,16,30,1630284410.0,32.000000
-54,15,30,1630284410.0,32.000000
-54,15,30,1630284410.0,32.000000
-54,15,30,1630284410.0,32.000000
-54,15,30,1630284410.0,32.000000
-54,15,30,1630284410.0,32.000000
-54,15,30,1630284410.0,32.000000
-54,15,30,1630284410.0,32.000000
-54,15,29,1630284410.0,32.000000
-54,15,29,1630284410.0,32.000000
-54,15,29,1630284410.0,32.000000
-54,16,30,1630284410.0,32.000000
-54,16,29,1630284410.0,32.000000
-54,15,30,1630284410.0,32.000000
-54,15,30,1630284410.0,32.000000
-54,15,29,1630284410.0,32.000000
-54,15,29,1630284410.0,32.000000
-54,15,29,1630284410.0,32.000000
-54,15,29,1630284410.0,32.000000
-54,15,29,1630284410.0,32.000000
-54,15,29,1630284410.0,32.000000
-54,15,29,1630284410.0,32.000000
-54,15,29,1630284410.0,32.000000
-54,15,29,1630284410.0,32.000000
-55,15,30,1630284410.0,32.000000
-53,15,30,1630284410.0,32.000000
-53,15,30,1630284410.0,32.000000
-54,15,29,1630284410.0,32.000000
-54,15,29,1630284410.0,32.000000
-53,16,30,1630284410.0,32.000000
-54,15,29,1630284410.0,32.000000
-54,15,30,1630284410.0,32.000000
-54,15,30,1630284410.0,32.000000
-54,15,29,1630284410.0,32.000000
-54,15,29,1630284410.0,32.000000
-54,15,29,1630284410.0,32.000000
-54,15,29,1630284410.0,32.000000
-54,15,29,1630284410.0,32.000000
-54,15,29,1630284410.0,32.000000
-54,15,29,1630284410.0,32.000000
-54,15,29,1630284410.0,32.000000
-54,15,29,1630284410.0,32.000000
-55,15,29,1630284410.0,32.000000
-54,15,29,1630284410.0,32.000000
-54,15,29,1630284410.0,32.000000
-54,15,29,1630284410.0,32.000000
-54,15,29,1630284410.0,32.000000
-54,15,29,1630284410.0,32.000000
-54,16,29,1630284410.0,32.000000
-54,15,29,1630284410.0,32.000000
-54,15,29,1630284410.0,32.000000
-54,15,29,1630284410.0,32.000000
-54,15,29,1630284410.0,32.000000
-54,15,29,1630284410.0,32.000000
-54,15,29,1630284410.0,32.000000
-54,15,29,1630284410.0,32.000000
-54,15,29,1630284410.0,32.000000
-54,15,29,1630284410.0,32.000000
-55,15,28,1630284410.0,32.000000
-54,15,29,1630284410.0,32.000000
-54,15,29,1630284410.0,32.000000
-55,15,28,1630284410.0,32.000000
-54,15,29,1630284410.0,32.000000
-54,15,29,1630284410.0,32.000000
-54,15,29,1630284410.0,32.000000
-54,15,29,1630284410.0,32.000000
-54,15,29,1630284410.0,32.000000
-55,15,29,1630284410.0,32.000000
-54,15,29,1630284410.0,32.000000
-54,15,29,1630284410.0,32.000000
-54,15,29,1630284410.0,32.000000
-54,15,29,1630284410.0,32.000000
-55,15,29,1630284410.0,32.000000
-54,15,29,1630284410.0,32.000000
-54,15,28,1630284410.0,32.000000
-55,15,29,1630284410.0,32.000000
-54,15,29,1630284410.0,32.000000
-54,15,29,1630284410.0,32.000000
-54,15,29,1630284410.0,32.000000
-54,16,29,1630284410.0,32.000000
-54,15,28,1630284410.0,32.000000
-55,15,29,1630284410.0,32.000000
-54,15,29,1630284410.0,32.000000
-54,15,29,1630284410.0,32.000000
-54,15,28,1630284410.0,32.000000
-55,15,28,1630284410.0,32.000000
-55,15,28,1630284410.0,32.000000
-55,15,28,1630284410.0,32.000000
-54,15,29,1630284410.0,32.000000
-54,15,29,1630284410.0,32.000000
-54,15,28,1630284410.0,32.000000
-55,15,28,1630284410.0,32.000000
-55,15,28,1630284410.0,32.000000
-54,15,28,1630284410.0,32.000000
-55,15,28,1630284410.0,32.000000
-55,15,28,1630284410.0,32.000000
-54,15,29,1630284410.0,32.000000
-54,15,28,1630284410.0,32.000000
-55,15,28,1630284410.0,32.000000
-55,15,29,1630284410.0,32.000000
-55,15,28,1630284410.0,32.000000
-55,15,28,1630284410.0,32.000000
-54,16,28,1630284410.0,32.000000
-55,15,29,1630284410.0,32.000000
-55,15,28,1630284410.0,32.000000
-55,15,29,1630284410.0,32.000000
-54,15,28,1630284410.0,32.000000
-54,15,28,1630284410.0,32.000000
-55,15,28,1630284410.0,32.000000
-54,15,28,1630284410.0,32.000000
-54,15,28,1630284410.0,32.000000
-55,15,28,1630284410.0,32.000000
-55,15,28,1630284410.0,32.000000
-54,15,28,1630284410.0,32.000000
-55,15,28,1630284410.0,32.000000
-55,16,29,1630284410.0,32.000000
-54,15,29,1630284410.0,32.000000
-54,15,29,1630284410.0,32.000000
-54,15,29,1630284410.0,32.000000
-54,15,28,1630284410.0,32.000000
-54,15,29,1630284410.0,32.000000
-54,15,28,1630284410.0,32.000000
-55,15,28,1630284410.0,32.000000
-55,15,28,1630284410.0,32.000000
-54,15,28,1630284410.0,32.000000
-54,16,28,1630284410.0,32.000000
-54,16,28,1630284410.0,32.000000
-53,16,29,1630284410.0,32.000000
-55,14,29,1630284410.0,32.000000
-56,14,30,1630284410.0,32.000000
-55,13,30,1630284410.0,32.000000
-54,14,30,1630284410.0,32.000000
-54,15,29,1630284410.0,32.000000
-54,15,28,1630284410.0,32.000000
-54,15,29,1630284410.0,32.000000
-54,15,29,1630284410.0,32.000000
-55,14,29,1630284410.0,32.000000
-54,14,30,1630284410.0,32.000000
-55,15,29,1630284410.0,32.000000
-54,15,30,1630284410.0,32.000000
-54,15,29,1630284410.0,32.000000
-54,15,29,1630284410.0,32.000000
-54,15,29,1630284410.0,32.000000
-54,15,29,1630284410.0,32.000000
-54,15,30,1630284410.0,32.000000
-55,14,29,1630284410.0,32.000000
-54,15,29,1630284410.0,32.000000
-54,15,29,1630284410.0,32.000000
-54,14,29,1630284410.0,32.000000
-54,15,29,1630284410.0,32.000000
-54,15,29,1630284410.0,32.000000
-55,15,29,1630284410.0,32.000000
-54,15,29,1630284410.0,32.000000
-55,15,29,1630284410.0,32.000000
-54,15,29,1630284410.0,32.000000
-54,16,29,1630284410.0,32.000000
-54,16,29,1630284410.0,32.000000
-54,15,29,1630284410.0,32.000000
-54,15,29,1630284410.0,32.000000
-54,16,29,1630284410.0,32.000000
-54,15,29,1630284410.0,32.000000
-54,15,28,1630284410.0,32.000000
-54,15,29,1630284410.0,32.000000
-54,15,29,1630284410.0,32.000000
-54,15,29,1630284410.0,32.000000
-54,16,29,1630284410.0,32.000000
-54,16,29,1630284410.0,32.000000
-54,15,29,1630284410.0,32.000000
-55,15,29,1630284410.0,32.000000
-54,15,30,1630284410.0,32.000000
-54,15,29,1630284410.0,32.000000
-55,15,29,1630284410.0,32.000000
-55,16,29,1630284410.0,32.000000
-54,15,29,1630284410.0,32.000000
-54,15,29,1630284410.0,32.000000
-54,15,30,1630284410.0,32.000000
-54,15,29,1630284410.0,32.000000
-54,15,29,1630284410.0,32.000000
-54,15,29,1630284410.0,32.000000
-54,15,29,1630284410.0,32.000000
-54,15,29,1630284410.0,32.000000
-54,15,29,1630284410.0,32.000000
-54,15,29,1630284410.0,32.000000
-54,15,29,1630284410.0,32.000000
-54,15,29,1630284410.0,32.000000
-54,16,29,1630284410.0,32.000000
-54,15,30,1630284410.0,32.000000
-54,15,29,1630284410.0,32.000000
-54,15,29,1630284410.0,32.000000
-54,15,29,1630284410.0,32.000000
-54,15,29,1630284410.0,32.000000
-54,15,29,1630284410.0,32.000000
-54,15,29,1630284410.0,32.000000
-54,15,29,1630284410.0,32.000000
-54,15,29,1630284410.0,32.000000
-54,15,29,1630284410.0,32.000000
-54,14,29,1630284410.0,32.000000
-54,15,29,1630284410.0,32.000000
-54,15,29,1630284410.0,32.000000
-54,15,29,1630284410.0,32.000000
-54,15,29,1630284410.0,32.000000
-54,15,29,1630284410.0,32.000000
-54,15,29,1630284410.0,32.000000
-54,15,29,1630284410.0,32.000000
-54,15,29,1630284410.0,32.000000
-54,15,29,1630284410.0,32.000000
-54,15,29,1630284410.0,32.000000
-54,15,29,1630284410.0,32.000000
-54,15,29,1630284410.0,32.000000
-54,15,29,1630284410.0,32.000000
-54,15,29,1630284410.0,32.000000
-54,15,29,1630284410.0,32.000000
-54,15,29,1630284410.0,32.000000
-54,15,29,1630284410.0,32.000000
-54,15,29,1630284410.0,32.000000
-54,15,29,1630284410.0,32.000000
-54,15,29,1630284410.0,32.000000
-54,15,29,1630284410.0,32.000000
-54,15,29,1630284410.0,32.000000
-54,15,29,1630284410.0,32.000000
-54,15,29,1630284410.0,32.000000
-54,15,29,1630284410.0,32.000000
-54,15,29,1630284410.0,32.000000
-54,15,29,1630284410.0,32.000000
-54,15,29,1630284410.0,32.000000
-54,15,29,1630284410.0,32.000000
-54,15,29,1630284410.0,32.000000
-55,15,29,1630284410.0,32.000000
-55,14,29,1630284410.0,32.000000
-54,15,29,1630284410.0,32.000000
-55,15,29,1630284410.0,32.000000
-55,15,29,1630284410.0,32.000000
-54,15,29,1630284410.0,32.000000
-54,15,29,1630284410.0,32.000000
-54,15,29,1630284410.0,32.000000
-54,15,29,1630284410.0,32.000000
-54,15,28,1630284410.0,32.000000
-55,15,28,1630284410.0,32.000000
-55,15,28,1630284410.0,32.000000
-54,15,29,1630284410.0,32.000000
-54,15,29,1630284410.0,32.000000
-54,15,29,1630284410.0,32.000000
-54,15,29,1630284410.0,32.000000
-54,15,28,1630284410.0,32.000000
-54,15,29,1630284410.0,32.000000
-55,15,29,1630284410.0,32.000000
-55,15,29,1630284410.0,32.000000
-54,15,29,1630284410.0,32.000000
-54,15,29,1630284410.0,32.000000
-54,15,29,1630284410.0,32.000000
-55,15,28,1630284410.0,32.000000
-55,15,28,1630284410.0,32.000000
-54,15,29,1630284410.0,32.000000
-55,15,30,1630284410.0,32.000000
-55,15,30,1630284410.0,32.000000
-54,15,29,1630284410.0,32.000000
-54,15,29,1630284410.0,32.000000
-54,15,29,1630284410.0,32.000000
-54,14,29,1630284410.0,32.000000
-55,15,29,1630284410.0,32.000000
-54,15,29,1630284410.0,32.000000
-54,15,29,1630284410.0,32.000000
-54,15,29,1630284410.0,32.000000
-54,15,30,1630284410.0,32.000000
-54,15,30,1630284410.0,32.000000
-53,15,29,1630284410.0,32.000000
-54,15,29,1630284410.0,32.000000
-54,14,30,1630284410.0,32.000000
-54,14,29,1630284410.0,32.000000
-54,15,30,1630284410.0,32.000000
-54,15,30,1630284410.0,32.000000
-54,15,30,1630284410.0,32.000000
-54,15,30,1630284410.0,32.000000
-54,15,30,1630284410.0,32.000000
-54,15,30,1630284410.0,32.000000
-54,15,29,1630284410.0,32.000000
-54,15,29,1630284410.0,32.000000
-54,15,29,1630284410.0,32.000000
-54,15,29,1630284410.0,32.000000
-54,15,29,1630284410.0,32.000000
-54,15,29,1630284410.0,32.000000
-54,15,30,1630284410.0,32.000000
-54,15,30,1630284410.0,32.000000
-54,16,29,1630284410.0,32.000000
-54,15,29,1630284410.0,32.000000
-54,15,29,1630284410.0,32.000000
-54,15,30,1630284410.0,32.000000
-54,15,30,1630284410.0,32.000000
-54,15,29,1630284410.0,32.000000
-54,15,29,1630284410.0,32.000000
-54,15,30,1630284410.0,32.000000
-54,15,29,1630284410.0,32.000000
-54,15,29,1630284410.0,32.000000
-54,15,30,1630284410.0,32.000000
-54,15,30,1630284410.0,32.000000
-54,15,30,1630284410.0,32.000000
-54,16,29,1630284410.0,32.000000
-54,15,29,1630284410.0,32.000000
-54,16,29,1630284410.0,32.000000
-54,15,30,1630284410.0,32.000000
-54,16,30,1630284410.0,32.000000
-54,16,30,1630284410.0,32.000000
-53,16,29,1630284410.0,32.000000
-53,15,30,1630284410.0,32.000000
-54,15,30,1630284410.0,32.000000
-54,16,30,1630284410.0,32.000000
-54,16,29,1630284410.0,32.000000
-54,16,29,1630284410.0,32.000000
-54,15,30,1630284410.0,32.000000
-54,15,30,1630284410.0,32.000000
-54,15,29,1630284410.0,32.000000
-54,16,29,1630284410.0,32.000000
-54,15,29,1630284410.0,32.000000
-54,15,30,1630284410.0,32.000000
-54,16,29,1630284410.0,32.000000
-54,16,30,1630284410.0,32.000000
-54,16,30,1630284410.0,32.000000
-54,15,29,1630284410.0,32.000000
-54,15,29,1630284410.0,32.000000
-54,16,29,1630284410.0,32.000000
-54,16,29,1630284410.0,32.000000
-53,16,30,1630284410.0,32.000000
-54,15,30,1630284410.0,32.000000
-54,15,30,1630284410.0,32.000000
-54,15,29,1630284410.0,32.000000
-54,16,29,1630284410.0,32.000000
-55,15,30,1630284410.0,32.000000
-54,15,29,1630284410.0,32.000000
-54,16,30,1630284410.0,32.000000
-54,16,29,1630284410.0,32.000000
-54,16,28,1630284410.0,32.000000
-54,16,28,1630284410.0,32.000000
-54,15,28,1630284410.0,32.000000
-54,15,29,1630284410.0,32.000000
-54,16,29,1630284410.0,32.000000
-53,15,30,1630284410.0,32.000000
-55,15,31,1630284410.0,32.000000
-52,14,28,1630284410.0,32.000000
-53,17,29,1630284410.0,32.000000
-55,18,27,1630284410.0,32.000000
-55,17,29,1630284410.0,32.000000
-54,14,29,1630284410.0,32.000000
-55,14,30,1630284410.0,32.000000
-54,14,31,1630284410.0,32.000000
-54,14,31,1630284410.0,32.000000
-54,15,31,1630284410.0,32.000000
-54,15,30,1630284410.0,32.000000
-53,16,30,1630284410.0,32.000000
-53,15,30,1630284410.0,32.000000
-53,15,31,1630284410.0,32.000000
-53,15,30,1630284410.0,32.000000
-53,15,30,1630284410.0,32.000000
-53,16,29,1630284410.0,32.000000
-53,17,29,1630284410.0,32.000000
-54,16,28,1630284410.0,32.000000
-54,16,28,1630284410.0,32.000000
-54,15,31,1630284410.0,32.000000
-54,15,30,1630284410.0,32.000000
-55,15,29,1630284410.0,32.000000
-55,16,27,1630284410.0,32.000000
-54,16,27,1630284410.0,32.000000
-54,15,29,1630284410.0,32.000000
-55,15,30,1630284410.0,32.000000
-54,15,29,1630284410.0,32.000000
-55,15,29,1630284410.0,32.000000
-55,15,29,1630284410.0,32.000000
-54,14,29,1630284410.0,32.000000
-54,15,29,1630284410.0,32.000000
-54,16,29,1630284410.0,32.000000
-55,16,28,1630284410.0,32.000000
-55,16,28,1630284410.0,32.000000
-55,16,28,1630284410.0,32.000000
-55,16,28,1630284410.0,32.000000
-54,16,28,1630284410.0,32.000000
-54,16,28,1630284410.0,32.000000
-55,16,28,1630284410.0,32.000000
-55,16,26,1630284410.0,32.000000
-54,16,28,1630284410.0,32.000000
-54,16,28,1630284410.0,32.000000
-54,16,29,1630284410.0,32.000000
-55,16,29,1630284410.0,32.000000
-54,16,28,1630284410.0,32.000000
-54,16,28,1630284410.0,32.000000
-54,16,29,1630284410.0,32.000000
-55,16,28,1630284410.0,32.000000
-54,16,28,1630284410.0,32.000000
-54,16,28,1630284410.0,32.000000
-54,16,27,1630284410.0,32.000000
-54,16,27,1630284410.0,32.000000
-54,16,27,1630284410.0,32.000000
-54,16,28,1630284410.0,32.000000
-54,16,29,1630284410.0,32.000000
-55,15,28,1630284410.0,32.000000
-55,16,27,1630284410.0,32.000000
-55,16,27,1630284410.0,32.000000
-54,16,27,1630284410.0,32.000000
-54,16,27,1630284410.0,32.000000
-54,16,29,1630284410.0,32.000000
-55,14,29,1630284410.0,32.000000
-55,14,29,1630284410.0,32.000000
-55,15,29,1630284410.0,32.000000
-55,15,28,1630284410.0,32.000000
-54,15,28,1630284410.0,32.000000
-54,16,28,1630284410.0,32.000000
-54,16,28,1630284410.0,32.000000
-55,15,29,1630284410.0,32.000000
-54,15,29,1630284410.0,32.000000
-54,15,29,1630284410.0,32.000000
-54,15,30,1630284410.0,32.000000
-54,15,30,1630284410.0,32.000000
-54,15,29,1630284410.0,32.000000
-54,16,29,1630284410.0,32.000000
-54,15,29,1630284410.0,32.000000
-53,16,29,1630284410.0,32.000000
-53,17,29,1630284410.0,32.000000
-53,15,29,1630284410.0,32.000000
-51,18,30,1630284410.0,32.000000
-53,16,30,1630284410.0,32.000000
-52,16,31,1630284410.0,32.000000
-53,16,31,1630284410.0,32.000000
-55,11,31,1630284410.0,32.000000
-53,13,31,1630284410.0,32.000000
-53,13,33,1630284410.0,32.000000
-57,12,29,1630284410.0,32.000000
-56,15,27,1630284410.0,32.000000
-55,15,29,1630284410.0,32.000000
-55,15,28,1630284410.0,32.000000
-53,17,26,1630284410.0,32.000000
-54,14,30,1630284410.0,32.000000
-55,13,29,1630284410.0,32.000000
-55,11,30,1630284410.0,32.000000
-55,10,30,1630284410.0,32.000000
-55,12,30,1630284410.0,32.000000
-55,11,30,1630284410.0,32.000000
-56,9,31,1630284410.0,32.000000
-57,8,30,1630284410.0,32.000000
-54,8,32,1630284410.0,32.000000
-55,10,32,1630284410.0,32.000000
-56,14,32,1630284410.0,32.000000
-50,16,33,1630284410.0,32.000000
-51,16,33,1630284410.0,32.000000
-53,14,33,1630284410.0,32.000000
-53,16,33,1630284410.0,32.000000
-52,16,34,1630284410.0,32.000000
-52,15,34,1630284410.0,32.000000
-50,15,36,1630284410.0,32.000000
-50,15,36,1630284410.0,32.000000
-50,15,36,1630284410.0,32.000000
-48,16,36,1630284410.0,32.000000
-47,17,37,1630284410.0,32.000000
-48,19,36,1630284410.0,32.000000
-48,20,36,1630284410.0,32.000000
-48,17,37,1630284410.0,32.000000
-48,16,37,1630284410.0,32.000000
-50,17,36,1630284410.0,32.000000
-49,17,37,1630284410.0,32.000000
-47,17,37,1630284410.0,32.000000
-46,17,37,1630284410.0,32.000000
-46,18,37,1630284410.0,32.000000
-47,19,37,1630284410.0,32.000000
-49,17,36,1630284410.0,32.000000
-49,17,36,1630284410.0,32.000000
-51,15,37,1630284410.0,32.000000
-51,15,35,1630284410.0,32.000000
-51,14,36,1630284410.0,32.000000
-52,13,35,1630284410.0,32.000000
-51,14,35,1630284410.0,32.000000
-51,15,36,1630284410.0,32.000000
-52,14,35,1630284410.0,32.000000
-51,13,35,1630284410.0,32.000000
-50,12,35,1630284410.0,32.000000
-49,12,36,1630284410.0,32.000000
-50,13,37,1630284410.0,32.000000
-48,12,38,1630284410.0,32.000000
-49,12,38,1630284410.0,32.000000
-50,10,39,1630284410.0,32.000000
-50,11,38,1630284410.0,32.000000
-51,12,37,1630284410.0,32.000000
-50,13,36,1630284410.0,32.000000
-50,13,35,1630284410.0,32.000000
-51,14,34,1630284410.0,32.000000
-51,14,35,1630284410.0,32.000000
-52,14,34,1630284410.0,32.000000
-52,14,35,1630284410.0,32.000000
-51,14,36,1630284410.0,32.000000
-49,12,36,1630284410.0,32.000000
-50,13,37,1630284410.0,32.000000
-49,14,37,1630284410.0,32.000000
-48,13,38,1630284410.0,32.000000
-49,13,37,1630284410.0,32.000000
-48,13,37,1630284410.0,32.000000
-48,13,38,1630284410.0,32.000000
-48,12,39,1630284410.0,32.000000
-48,12,38,1630284410.0,32.000000
-48,13,38,1630284410.0,32.000000
-49,13,38,1630284410.0,32.000000
-48,13,37,1630284410.0,32.000000
-48,14,38,1630284410.0,32.000000
-49,14,37,1630284410.0,32.000000
-49,14,36,1630284410.0,32.000000
-51,14,37,1630284410.0,32.000000
-52,14,36,1630284410.0,32.000000
-50,14,35,1630284410.0,32.000000
-51,13,36,1630284410.0,32.000000
-50,12,37,1630284410.0,32.000000
-49,12,37,1630284410.0,32.000000
-52,11,36,1630284410.0,32.000000
-52,12,35,1630284410.0,32.000000
-51,11,36,1630284410.0,32.000000
-51,12,35,1630284410.0,32.000000
-51,13,35,1630284410.0,32.000000
-50,14,36,1630284410.0,32.000000
-50,14,36,1630284410.0,32.000000
-51,14,36,1630284410.0,32.000000
-50,14,36,1630284410.0,32.000000
-49,13,36,1630284410.0,32.000000
-51,13,36,1630284410.0,32.000000
-51,13,37,1630284410.0,32.000000
-50,13,37,1630284410.0,32.000000
-50,12,34,1630284410.0,32.000000
-49,14,34,1630284410.0,32.000000
-51,15,34,1630284410.0,32.000000
-49,16,36,1630284410.0,32.000000
-51,15,35,1630284410.0,32.000000
-50,13,37,1630284410.0,32.000000
-51,12,35,1630284410.0,32.000000
-52,12,36,1630284410.0,32.000000
-53,10,36,1630284410.0,32.000000
-52,11,36,1630284410.0,32.000000
-49,13,36,1630284410.0,32.000000
-50,16,35,1630284410.0,32.000000
-49,17,36,1630284410.0,32.000000
-48,16,36,1630284410.0,32.000000
-49,16,35,1630284410.0,32.000000
-50,15,36,1630284410.0,32.000000
-49,14,37,1630284410.0,32.000000
-49,14,37,1630284410.0,32.000000
-49,15,36,1630284410.0,32.000000
-51,15,36,1630284410.0,32.000000
-51,16,36,1630284410.0,32.000000
-49,16,36,1630284410.0,32.000000
-51,17,35,1630284410.0,32.000000
-50,17,35,1630284410.0,32.000000
-51,18,33,1630284410.0,32.000000
-50,18,32,1630284410.0,32.000000
-50,20,31,1630284410.0,32.000000
-49,20,33,1630284410.0,32.000000
-51,19,32,1630284410.0,32.000000
-51,17,33,1630284410.0,32.000000
-51,18,33,1630284410.0,32.000000
-51,18,34,1630284410.0,32.000000
-51,18,33,1630284410.0,32.000000
-51,17,35,1630284410.0,32.000000
-50,18,33,1630284410.0,32.000000
-51,18,32,1630284410.0,32.000000
-51,18,33,1630284410.0,32.000000
-51,19,33,1630284410.0,32.000000
-50,19,33,1630284410.0,32.000000
-50,18,34,1630284410.0,32.000000
-51,17,33,1630284410.0,32.000000
-50,18,34,1630284410.0,32.000000
-51,19,33,1630284410.0,32.000000
-49,17,36,1630284410.0,32.000000
-51,14,36,1630284410.0,32.000000
-52,16,34,1630284410.0,32.000000
-52,16,34,1630284410.0,32.000000
-51,16,34,1630284410.0,32.000000
-51,16,34,1630284410.0,32.000000
-50,19,34,1630284410.0,32.000000
-51,15,34,1630284410.0,32.000000
-50,14,34,1630284410.0,32.000000
-53,13,32,1630284410.0,32.000000
-52,13,33,1630284410.0,32.000000
-54,14,33,1630284410.0,32.000000
-54,14,32,1630284410.0,32.000000
-53,14,32,1630284410.0,32.000000
-52,16,32,1630284410.0,32.000000
-52,18,32,1630284410.0,32.000000
-51,17,32,1630284410.0,32.000000
-52,15,33,1630284410.0,32.000000
-52,15,33,1630284410.0,32.000000
-52,15,33,1630284410.0,32.000000
-51,16,33,1630284410.0,32.000000
-51,16,33,1630284410.0,32.000000
-53,16,31,1630284410.0,32.000000
-52,16,32,1630284410.0,32.000000
-51,16,33,1630284410.0,32.000000
-52,16,33,1630284410.0,32.000000
-52,16,34,1630284410.0,32.000000
-52,15,33,1630284410.0,32.000000
-52,15,33,1630284410.0,32.000000
-52,15,33,1630284410.0,32.000000
-52,15,33,1630284410.0,32.000000
-53,15,32,1630284410.0,32.000000
-52,15,33,1630284410.0,32.000000
-53,15,33,1630284410.0,32.000000
-52,16,34,1630284410.0,32.000000
-51,16,34,1630284410.0,32.000000
-51,16,34,1630284410.0,32.000000
-51,17,33,1630284410.0,32.000000
-51,16,33,1630284410.0,32.000000
-51,16,33,1630284410.0,32.000000
-52,16,32,1630284410.0,32.000000
-53,16,32,1630284410.0,32.000000
-52,16,32,1630284410.0,32.000000
-52,15,34,1630284410.0,32.000000
-52,15,33,1630284410.0,32.000000
-51,16,35,1630284410.0,32.000000
-51,16,34,1630284410.0,32.000000
-52,15,33,1630284410.0,32.000000
-52,16,32,1630284410.0,32.000000
-52,16,33,1630284410.0,32.000000
-51,16,32,1630284410.0,32.000000
-55,17,29,1630284410.0,32.000000
-54,16,31,1630284410.0,32.000000
-53,16,30,1630284410.0,32.000000
-55,16,29,1630284410.0,32.000000
-54,16,29,1630284410.0,32.000000
-53,16,31,1630284410.0,32.000000
-53,16,30,1630284410.0,32.000000
-53,16,30,1630284410.0,32.000000
-54,16,30,1630284410.0,32.000000
-53,16,30,1630284410.0,32.000000
-53,16,30,1630284410.0,32.000000
-53,16,30,1630284410.0,32.000000
-53,17,30,1630284410.0,32.000000
-53,16,30,1630284410.0,32.000000
-54,16,30,1630284410.0,32.000000
-54,16,30,1630284410.0,32.000000
-53,16,30,1630284410.0,32.000000
-53,16,30,1630284410.0,32.000000
-53,16,30,1630284410.0,32.000000
-53,16,30,1630284410.0,32.000000
-53,16,30,1630284410.0,32.000000
-53,16,30,1630284410.0,32.000000
-53,16,30,1630284410.0,32.000000
-53,16,30,1630284410.0,32.000000
-53,16,30,1630284410.0,32.000000
-53,16,30,1630284410.0,32.000000
-54,16,30,1630284410.0,32.000000
-54,16,30,1630284410.0,32.000000
-54,16,30,1630284410.0,32.000000
-53,16,30,1630284410.0,32.000000
-54,16,30,1630284410.0,32.000000
-53,16,30,1630284410.0,32.000000
-53,16,30,1630284410.0,32.000000
-54,16,30,1630284410.0,32.000000
-54,16,30,1630284410.0,32.000000
-54,16,30,1630284410.0,32.000000
-53,16,30,1630284410.0,32.000000
-53,16,30,1630284410.0,32.000000
-54,16,30,1630284410.0,32.000000
-53,16,30,1630284410.0,32.000000
-53,16,30,1630284410.0,32.000000
-54,16,29,1630284410.0,32.000000
-54,16,30,1630284410.0,32.000000
-53,16,30,1630284410.0,32.000000
-53,16,30,1630284410.0,32.000000
-53,16,31,1630284410.0,32.000000
-53,16,30,1630284410.0,32.000000
-53,16,30,1630284410.0,32.000000
-53,16,30,1630284410.0,32.000000
-53,16,30,1630284410.0,32.000000
-53,16,30,1630284410.0,32.000000
-53,16,30,1630284410.0,32.000000
-53,17,30,1630284410.0,32.000000
-53,16,30,1630284410.0,32.000000
-53,16,30,1630284410.0,32.000000
-53,16,30,1630284410.0,32.000000
-54,16,30,1630284410.0,32.000000
-53,16,30,1630284410.0,32.000000
-53,17,30,1630284410.0,32.000000
-53,17,30,1630284410.0,32.000000
-53,16,30,1630284410.0,32.000000
-54,16,30,1630284410.0,32.000000
-53,16,30,1630284410.0,32.000000
-53,16,30,1630284410.0,32.000000
-53,16,30,1630284410.0,32.000000
-53,16,30,1630284410.0,32.000000
-53,16,30,1630284410.0,32.000000
-54,17,30,1630284410.0,32.000000
-54,16,30,1630284410.0,32.000000
-54,16,30,1630284410.0,32.000000
-53,16,30,1630284410.0,32.000000
-53,16,30,1630284410.0,32.000000
-53,17,30,1630284410.0,32.000000
-53,17,30,1630284410.0,32.000000
-54,17,29,1630284410.0,32.000000
-53,16,30,1630284410.0,32.000000
-54,16,30,1630284410.0,32.000000
-54,16,30,1630284410.0,32.000000
-53,16,30,1630284410.0,32.000000
-53,16,30,1630284410.0,32.000000
-53,17,30,1630284410.0,32.000000
-53,17,30,1630284410.0,32.000000
-53,17,30,1630284410.0,32.000000
-54,16,30,1630284410.0,32.000000
-54,17,30,1630284410.0,32.000000
-54,17,30,1630284410.0,32.000000
-54,16,30,1630284410.0,32.000000
-53,16,30,1630284410.0,32.000000
-53,16,30,1630284410.0,32.000000
-53,16,30,1630284410.0,32.000000
-53,17,30,1630284410.0,32.000000
-54,16,29,1630284410.0,32.000000
-53,17,29,1630284410.0,32.000000
-53,17,31,1630284410.0,32.000000
-53,17,30,1630284410.0,32.000000
-53,16,31,1630284410.0,32.000000
-53,15,31,1630284410.0,32.000000
-53,16,31,1630284410.0,32.000000
-53,16,31,1630284410.0,32.000000
-53,17,30,1630284410.0,32.000000
-53,17,30,1630284410.0,32.000000
-53,17,30,1630284410.0,32.000000
-53,17,30,1630284410.0,32.000000
-53,16,30,1630284410.0,32.000000
-54,15,31,1630284410.0,32.000000
-53,15,31,1630284410.0,32.000000
-53,16,30,1630284410.0,32.000000
-53,16,31,1630284410.0,32.000000
-53,17,30,1630284410.0,32.000000
-53,16,31,1630284410.0,32.000000
-53,16,31,1630284410.0,32.000000
-53,16,31,1630284410.0,32.000000
-54,15,31,1630284410.0,32.000000
-54,15,31,1630284410.0,32.000000
-53,15,31,1630284410.0,32.000000
-53,16,31,1630284410.0,32.000000
-52,17,30,1630284410.0,32.000000
-53,17,30,1630284410.0,32.000000
-53,17,30,1630284410.0,32.000000
-54,17,30,1630284410.0,32.000000
-54,16,30,1630284410.0,32.000000
-54,15,30,1630284410.0,32.000000
-54,15,30,1630284410.0,32.000000
-53,16,31,1630284410.0,32.000000
-52,16,31,1630284410.0,32.000000
-52,17,30,1630284410.0,32.000000
-53,17,31,1630284410.0,32.000000
-53,17,30,1630284410.0,32.000000
-54,17,30,1630284410.0,32.000000
-54,16,29,1630284410.0,32.000000
-54,15,30,1630284410.0,32.000000
-54,15,30,1630284410.0,32.000000
-53,17,31,1630284410.0,32.000000
-52,17,31,1630284410.0,32.000000
-53,17,30,1630284410.0,32.000000
-53,17,30,1630284410.0,32.000000
-54,17,30,1630284410.0,32.000000
-54,16,30,1630284410.0,32.000000
-54,15,30,1630284410.0,32.000000
-53,15,30,1630284410.0,32.000000
-53,16,31,1630284410.0,32.000000
-52,16,31,1630284410.0,32.000000
-52,17,31,1630284410.0,32.000000
-53,17,30,1630284410.0,32.000000
-54,17,29,1630284410.0,32.000000
-54,16,30,1630284410.0,32.000000
-54,16,30,1630284410.0,32.000000
-54,15,30,1630284410.0,32.000000
-53,15,31,1630284410.0,32.000000
-53,16,31,1630284410.0,32.000000
-52,17,31,1630284410.0,32.000000
-53,17,31,1630284410.0,32.000000
-53,16,30,1630284410.0,32.000000
-53,17,30,1630284410.0,32.000000
-53,17,30,1630284410.0,32.000000
-54,16,30,1630284410.0,32.000000
-54,15,30,1630284410.0,32.000000
-54,15,30,1630284410.0,32.000000
-53,16,31,1630284410.0,32.000000
-53,17,31,1630284410.0,32.000000
-53,17,30,1630284410.0,32.000000
-53,17,30,1630284410.0,32.000000
-53,17,30,1630284410.0,32.000000
-54,17,29,1630284410.0,32.000000
-54,15,30,1630284410.0,32.000000
-54,15,30,1630284410.0,32.000000
-53,16,30,1630284410.0,32.000000
-53,16,31,1630284410.0,32.000000
-53,17,30,1630284410.0,32.000000
-53,17,29,1630284410.0,32.000000
-54,17,29,1630284410.0,32.000000
-54,17,30,1630284410.0,32.000000
-54,17,29,1630284410.0,32.000000
-54,16,29,1630284410.0,32.000000
-53,15,31,1630284410.0,32.000000
-53,15,31,1630284410.0,32.000000
-52,17,31,1630284410.0,32.000000
-52,17,31,1630284410.0,32.000000
-53,17,30,1630284410.0,32.000000
-53,17,30,1630284410.0,32.000000
-54,18,29,1630284410.0,32.000000
-54,16,30,1630284410.0,32.000000
-54,15,30,1630284410.0,32.000000
-54,15,31,1630284410.0,32.000000
-53,16,31,1630284410.0,32.000000
-52,16,31,1630284410.0,32.000000
-52,17,31,1630284410.0,32.000000
-53,17,30,1630284410.0,32.000000
-53,17,30,1630284410.0,32.000000
-54,17,29,1630284410.0,32.000000
-54,16,30,1630284410.0,32.000000
-53,15,31,1630284410.0,32.000000
-53,15,31,1630284410.0,32.000000
-53,16,31,1630284410.0,32.000000
-53,16,31,1630284410.0,32.000000
-53,17,30,1630284410.0,32.000000
-53,17,30,1630284410.0,32.000000
-53,17,30,1630284410.0,32.000000
-53,17,30,1630284410.0,32.000000
-53,16,31,1630284410.0,32.000000
-54,15,30,1630284410.0,32.000000
-54,15,30,1630284410.0,32.000000
-52,16,31,1630284410.0,32.000000
-53,17,31,1630284410.0,32.000000
-52,17,31,1630284410.0,32.000000
-53,16,31,1630284410.0,32.000000
-53,17,30,1630284410.0,32.000000
-54,17,30,1630284410.0,32.000000
-54,16,30,1630284410.0,32.000000
-54,15,30,1630284410.0,32.000000
-53,16,31,1630284410.0,32.000000
-53,16,31,1630284410.0,32.000000
-52,16,31,1630284410.0,32.000000
-53,16,30,1630284410.0,32.000000
-53,16,31,1630284410.0,32.000000
-54,17,30,1630284410.0,32.000000
-54,17,30,1630284410.0,32.000000
-53,16,30,1630284410.0,32.000000
-53,15,31,1630284410.0,32.000000
-53,15,31,1630284410.0,32.000000
-52,16,31,1630284410.0,32.000000
-52,16,31,1630284410.0,32.000000
-53,16,31,1630284410.0,32.000000
-53,16,31,1630284410.0,32.000000
-53,17,30,1630284410.0,32.000000
-54,16,30,1630284410.0,32.000000
-54,15,30,1630284410.0,32.000000
-54,15,31,1630284410.0,32.000000
-53,15,31,1630284410.0,32.000000
-53,16,31,1630284410.0,32.000000
-53,16,31,1630284410.0,32.000000
-53,16,30,1630284410.0,32.000000
-53,16,30,1630284410.0,32.000000
-53,17,30,1630284410.0,32.000000
-54,16,30,1630284410.0,32.000000
-54,15,30,1630284410.0,32.000000
-54,15,31,1630284410.0,32.000000
-53,15,31,1630284410.0,32.000000
-52,16,31,1630284410.0,32.000000
-53,16,31,1630284410.0,32.000000
-53,16,31,1630284410.0,32.000000
-53,16,30,1630284410.0,32.000000
-54,17,30,1630284410.0,32.000000
-54,16,30,1630284410.0,32.000000
-54,15,30,1630284410.0,32.000000
-54,15,31,1630284410.0,32.000000
-53,16,31,1630284410.0,32.000000
-52,16,31,1630284410.0,32.000000
-52,16,31,1630284410.0,32.000000
-53,16,30,1630284410.0,32.000000
-53,16,30,1630284410.0,32.000000
-54,17,30,1630284410.0,32.000000
-54,16,30,1630284410.0,32.000000
-54,16,30,1630284410.0,32.000000
-53,15,31,1630284410.0,32.000000
-53,15,30,1630284410.0,32.000000
-53,16,31,1630284410.0,32.000000
-53,17,30,1630284410.0,32.000000
-53,17,30,1630284410.0,32.000000
-54,17,30,1630284410.0,32.000000
-53,17,30,1630284410.0,32.000000
-54,16,30,1630284410.0,32.000000
-54,16,30,1630284410.0,32.000000
-53,16,30,1630284410.0,32.000000
-53,16,31,1630284410.0,32.000000
-53,16,31,1630284410.0,32.000000
-53,16,31,1630284410.0,32.000000
-53,16,30,1630284410.0,32.000000
-53,16,30,1630284410.0,32.000000
-54,17,30,1630284410.0,32.000000
-54,17,30,1630284410.0,32.000000
-54,16,30,1630284410.0,32.000000
-54,15,30,1630284410.0,32.000000
-53,16,31,1630284410.0,32.000000
-53,16,31,1630284410.0,32.000000
-53,17,30,1630284410.0,32.000000
-53,17,30,1630284410.0,32.000000
-53,17,30,1630284410.0,32.000000
-54,17,30,1630284410.0,32.000000
-54,16,30,1630284410.0,32.000000
-54,16,30,1630284410.0,32.000000
-54,15,30,1630284410.0,32.000000
-53,16,30,1630284410.0,32.000000
-52,17,31,1630284410.0,32.000000
-52,17,30,1630284410.0,32.000000
-53,17,30,1630284410.0,32.000000
-54,16,30,1630284410.0,32.000000
-54,16,29,1630284410.0,32.000000
-54,16,30,1630284410.0,32.000000
-54,16,30,1630284410.0,32.000000
-54,16,30,1630284410.0,32.000000
-53,16,30,1630284410.0,32.000000
-52,16,30,1630284410.0,32.000000
-53,17,30,1630284410.0,32.000000
-53,17,30,1630284410.0,32.000000
-54,16,29,1630284410.0,32.000000
-54,16,29,1630284410.0,32.000000
-54,16,29,1630284410.0,32.000000
-54,16,30,1630284410.0,32.000000
-54,16,30,1630284410.0,32.000000
-53,16,30,1630284410.0,32.000000
-53,16,29,1630284410.0,32.000000
-53,17,30,1630284410.0,32.000000
-54,17,29,1630284410.0,32.000000
-54,16,29,1630284410.0,32.000000
-54,16,30,1630284410.0,32.000000
-54,16,30,1630284410.0,32.000000
-53,16,30,1630284410.0,32.000000
-53,16,30,1630284410.0,32.000000
-54,16,30,1630284410.0,32.000000
-54,16,29,1630284410.0,32.000000
-54,16,29,1630284410.0,32.000000
-54,17,30,1630284410.0,32.000000
-54,16,30,1630284410.0,32.000000
-53,16,30,1630284410.0,32.000000
-54,16,30,1630284410.0,32.000000
-53,17,30,1630284410.0,32.000000
-53,16,30,1630284410.0,32.000000
-54,16,30,1630284410.0,32.000000
-54,16,30,1630284410.0,32.000000
-54,16,29,1630284410.0,32.000000
-54,16,29,1630284410.0,32.000000
-53,17,30,1630284410.0,32.000000
-53,17,30,1630284410.0,32.000000
-54,16,29,1630284410.0,32.000000
-54,16,30,1630284410.0,32.000000
-54,16,29,1630284410.0,32.000000
-54,17,29,1630284410.0,32.000000
-54,17,29,1630284410.0,32.000000
-54,17,29,1630284410.0,32.000000
-54,16,30,1630284410.0,32.000000
-54,16,29,1630284410.0,32.000000
-54,17,29,1630284410.0,32.000000
-54,17,29,1630284410.0,32.000000
-54,16,29,1630284410.0,32.000000
-54,17,29,1630284410.0,32.000000
-54,17,29,1630284410.0,32.000000
-54,16,29,1630284410.0,32.000000
-54,16,29,1630284410.0,32.000000
-54,16,29,1630284410.0,32.000000
-54,16,29,1630284410.0,32.000000
-54,16,29,1630284410.0,32.000000
-54,17,29,1630284410.0,32.000000
-54,17,29,1630284410.0,32.000000
-54,16,30,1630284410.0,32.000000
-54,17,29,1630284410.0,32.000000
-54,16,29,1630284410.0,32.000000
-54,16,30,1630284410.0,32.000000
-54,16,29,1630284410.0,32.000000
-54,16,29,1630284410.0,32.000000
-54,17,29,1630284410.0,32.000000
-53,17,30,1630284410.0,32.000000
-54,16,30,1630284410.0,32.000000
-54,16,29,1630284410.0,32.000000
-54,16,29,1630284410.0,32.000000
-54,17,29,1630284410.0,32.000000
-54,17,29,1630284410.0,32.000000
-54,16,29,1630284410.0,32.000000
-54,16,29,1630284410.0,32.000000
-54,16,29,1630284410.0,32.000000
-54,16,29,1630284410.0,32.000000
-53,17,29,1630284410.0,32.000000
-54,17,29,1630284410.0,32.000000
-54,17,29,1630284410.0,32.000000
-54,17,29,1630284410.0,32.000000
-54,16,29,1630284410.0,32.000000
-54,16,29,1630284410.0,32.000000
-54,16,29,1630284410.0,32.000000
-54,17,30,1630284410.0,32.000000
-54,16,30,1630284410.0,32.000000
-54,16,29,1630284410.0,32.000000
-54,16,29,1630284410.0,32.000000
-54,16,29,1630284410.0,32.000000
-54,16,30,1630284410.0,32.000000
-54,16,29,1630284410.0,32.000000
-54,16,29,1630284410.0,32.000000
-54,16,29,1630284410.0,32.000000
-54,16,29,1630284410.0,32.000000
-54,16,29,1630284410.0,32.000000
-54,16,30,1630284410.0,32.000000
-54,16,29,1630284410.0,32.000000
-53,16,30,1630284410.0,32.000000
-54,16,30,1630284410.0,32.000000
-54,16,30,1630284410.0,32.000000
-54,16,29,1630284410.0,32.000000
-54,16,30,1630284410.0,32.000000
-53,16,30,1630284410.0,32.000000
-54,16,30,1630284410.0,32.000000
-54,16,30,1630284410.0,32.000000
-54,16,30,1630284410.0,32.000000
-54,16,30,1630284410.0,32.000000
-54,16,29,1630284410.0,32.000000
-53,16,30,1630284410.0,32.000000
-54,16,30,1630284410.0,32.000000
-54,16,30,1630284410.0,32.000000
-54,16,30,1630284410.0,32.000000
-54,16,29,1630284410.0,32.000000
-54,16,30,1630284410.0,32.000000
-53,16,30,1630284410.0,32.000000
-54,16,30,1630284410.0,32.000000
-54,16,30,1630284410.0,32.000000
-54,16,30,1630284410.0,32.000000
-54,16,29,1630284410.0,32.000000
-54,16,30,1630284410.0,32.000000
-53,16,30,1630284410.0,32.000000
-54,16,30,1630284410.0,32.000000
-54,16,29,1630284410.0,32.000000
-54,16,30,1630284410.0,32.000000
-54,16,29,1630284410.0,32.000000
-54,16,30,1630284410.0,32.000000
-54,16,29,1630284410.0,32.000000
-54,16,29,1630284410.0,32.000000
-54,16,30,1630284410.0,32.000000
-54,16,30,1630284410.0,32.000000
-54,16,30,1630284410.0,32.000000
-54,16,29,1630284410.0,32.000000
-54,16,30,1630284410.0,32.000000
-54,16,29,1630284410.0,32.000000
-54,16,30,1630284410.0,32.000000
-54,16,29,1630284410.0,32.000000
-54,16,30,1630284410.0,32.000000
-54,16,29,1630284410.0,32.000000
-54,16,29,1630284410.0,32.000000
-54,16,29,1630284410.0,32.000000
-54,16,30,1630284410.0,32.000000
-54,16,29,1630284410.0,32.000000
-54,16,29,1630284410.0,32.000000
-54,16,30,1630284410.0,32.000000
-53,16,30,1630284410.0,32.000000
-54,16,30,1630284410.0,32.000000
-54,16,30,1630284410.0,32.000000
-54,16,30,1630284410.0,32.000000
-54,16,30,1630284410.0,32.000000
-53,16,29,1630284410.0,32.000000
-53,16,30,1630284410.0,32.000000
-54,16,29,1630284410.0,32.000000
-54,16,29,1630284410.0,32.000000
-54,16,29,1630284410.0,32.000000
-54,16,29,1630284410.0,32.000000
-54,16,29,1630284410.0,32.000000
-54,16,29,1630284410.0,32.000000
-54,16,29,1630284410.0,32.000000
-54,16,29,1630284410.0,32.000000
-54,16,29,1630284410.0,32.000000
-54,16,29,1630284410.0,32.000000
-54,16,29,1630284410.0,32.000000
-54,17,30,1630284410.0,32.000000
-54,16,29,1630284410.0,32.000000
-53,16,29,1630284410.0,32.000000
-54,16,30,1630284410.0,32.000000
-54,16,29,1630284410.0,32.000000
-54,16,30,1630284410.0,32.000000
-54,16,29,1630284410.0,32.000000
-54,16,30,1630284410.0,32.000000
-54,16,29,1630284410.0,32.000000
-54,16,29,1630284410.0,32.000000
-54,16,29,1630284410.0,32.000000
-54,16,29,1630284410.0,32.000000
-54,16,29,1630284410.0,32.000000
-54,16,29,1630284410.0,32.000000
-54,16,29,1630284410.0,32.000000
-54,16,29,1630284410.0,32.000000
-54,16,29,1630284410.0,32.000000
-54,16,29,1630284410.0,32.000000
-54,16,29,1630284410.0,32.000000
-54,16,29,1630284410.0,32.000000
-54,16,29,1630284410.0,32.000000
-54,16,29,1630284410.0,32.000000
-54,16,29,1630284410.0,32.000000
-54,16,29,1630284410.0,32.000000
-54,16,29,1630284410.0,32.000000
-53,16,29,1630284410.0,32.000000
-54,16,29,1630284410.0,32.000000
-54,16,29,1630284410.0,32.000000
-54,16,29,1630284410.0,32.000000
-54,16,29,1630284410.0,32.000000
-54,16,29,1630284410.0,32.000000
-54,16,29,1630284410.0,32.000000
-54,16,29,1630284410.0,32.000000
-54,16,29,1630284410.0,32.000000
-54,16,29,1630284410.0,32.000000
-54,16,29,1630284410.0,32.000000
-54,16,29,1630284410.0,32.000000
-54,16,29,1630284410.0,32.000000
-54,16,29,1630284410.0,32.000000
-54,16,29,1630284410.0,32.000000
-54,16,29,1630284410.0,32.000000
-54,16,29,1630284410.0,32.000000
-54,16,29,1630284410.0,32.000000
-54,16,29,1630284410.0,32.000000
-54,16,29,1630284410.0,32.000000
-54,16,29,1630284410.0,32.000000
-54,16,29,1630284410.0,32.000000
-54,16,28,1630284410.0,32.000000
-54,16,29,1630284410.0,32.000000
-54,16,29,1630284410.0,32.000000
-54,16,29,1630284410.0,32.000000
-54,17,29,1630284410.0,32.000000
-53,16,28,1630284410.0,32.000000
-54,16,29,1630284410.0,32.000000
-54,15,29,1630284410.0,32.000000
-55,15,29,1630284410.0,32.000000
-54,15,29,1630284410.0,32.000000
-54,16,29,1630284410.0,32.000000
-54,17,29,1630284410.0,32.000000
-53,17,29,1630284410.0,32.000000
-55,15,28,1630284410.0,32.000000
-55,15,29,1630284410.0,32.000000
-55,15,29,1630284410.0,32.000000
-54,16,30,1630284410.0,32.000000
-54,16,30,1630284410.0,32.000000
-54,16,29,1630284410.0,32.000000
-54,16,29,1630284410.0,32.000000
-54,16,28,1630284410.0,32.000000
-55,15,28,1630284410.0,32.000000
-55,15,29,1630284410.0,32.000000
-54,15,29,1630284410.0,32.000000
-54,15,30,1630284410.0,32.000000
-53,16,29,1630284410.0,32.000000
-53,17,29,1630284410.0,32.000000
-54,17,29,1630284410.0,32.000000
-54,16,28,1630284410.0,32.000000
-55,16,28,1630284410.0,32.000000
-55,15,28,1630284410.0,32.000000
-55,15,29,1630284410.0,32.000000
-54,15,30,1630284410.0,32.000000
-53,16,30,1630284410.0,32.000000
-53,17,29,1630284410.0,32.000000
-53,17,28,1630284410.0,32.000000
-54,17,28,1630284410.0,32.000000
-55,16,27,1630284410.0,32.000000
-55,16,28,1630284410.0,32.000000
-55,15,29,1630284410.0,32.000000
-54,15,29,1630284410.0,32.000000
-53,16,30,1630284410.0,32.000000
-54,16,29,1630284410.0,32.000000
-54,17,29,1630284410.0,32.000000
-54,17,27,1630284410.0,32.000000
-55,17,27,1630284410.0,32.000000
-55,17,27,1630284410.0,32.000000
-55,15,28,1630284410.0,32.000000
-55,15,28,1630284410.0,32.000000
-54,15,29,1630284410.0,32.000000
-54,16,30,1630284410.0,32.000000
-54,16,29,1630284410.0,32.000000
-54,17,28,1630284410.0,32.000000
-55,17,27,1630284410.0,32.000000
-55,16,27,1630284410.0,32.000000
-55,16,27,1630284410.0,32.000000
-55,16,28,1630284410.0,32.000000
-54,16,29,1630284410.0,32.000000
-54,16,28,1630284410.0,32.000000
-54,16,28,1630284410.0,32.000000
-54,17,28,1630284410.0,32.000000
-54,16,28,1630284410.0,32.000000
-55,16,27,1630284410.0,32.000000
-55,16,27,1630284410.0,32.000000
-55,16,28,1630284410.0,32.000000
-54,16,28,1630284410.0,32.000000
-54,16,28,1630284410.0,32.000000
-54,16,28,1630284410.0,32.000000
-54,16,28,1630284410.0,32.000000
-55,16,27,1630284410.0,32.000000
-55,16,27,1630284410.0,32.000000
-55,16,27,1630284410.0,32.000000
-54,16,28,1630284410.0,32.000000
-55,16,27,1630284410.0,32.000000
-54,16,27,1630284410.0,32.000000
-55,16,27,1630284410.0,32.000000
-55,16,27,1630284410.0,32.000000
-56,16,27,1630284410.0,32.000000
-55,16,27,1630284410.0,32.000000
-55,16,27,1630284410.0,32.000000
-55,16,27,1630284410.0,32.000000
-55,16,27,1630284410.0,32.000000
-55,16,27,1630284410.0,32.000000
-55,16,27,1630284410.0,32.000000
-55,16,27,1630284410.0,32.000000
-55,16,27,1630284410.0,32.000000
-55,16,27,1630284410.0,32.000000
-55,16,27,1630284410.0,32.000000
-55,16,27,1630284410.0,32.000000
-55,16,27,1630284410.0,32.000000
-55,16,27,1630284410.0,32.000000
-55,16,27,1630284410.0,32.000000
-55,16,27,1630284410.0,32.000000
-55,16,27,1630284410.0,32.000000
-55,16,27,1630284410.0,32.000000
-55,16,27,1630284410.0,32.000000
-55,16,27,1630284410.0,32.000000
-55,16,27,1630284410.0,32.000000
-55,16,27,1630284410.0,32.000000
-55,16,27,1630284410.0,32.000000
-55,16,27,1630284410.0,32.000000
-55,16,27,1630284410.0,32.000000
-55,16,27,1630284410.0,32.000000
-55,16,27,1630284410.0,32.000000
-55,16,27,1630284410.0,32.000000
-55,16,27,1630284410.0,32.000000
-55,16,27,1630284410.0,32.000000
-55,16,27,1630284410.0,32.000000
-55,16,27,1630284410.0,32.000000
-55,16,27,1630284410.0,32.000000
-55,16,27,1630284410.0,32.000000
-55,16,27,1630284410.0,32.000000
-55,16,27,1630284410.0,32.000000
-55,16,27,1630284410.0,32.000000
-55,16,27,1630284410.0,32.000000
-55,16,27,1630284410.0,32.000000
-55,16,27,1630284410.0,32.000000
-55,16,27,1630284410.0,32.000000
-55,16,27,1630284410.0,32.000000
-55,16,27,1630284410.0,32.000000
-55,16,27,1630284410.0,32.000000
-55,16,27,1630284410.0,32.000000
-55,16,27,1630284410.0,32.000000
-55,16,27,1630284410.0,32.000000
-55,16,27,1630284410.0,32.000000
-55,16,27,1630284410.0,32.000000
-56,16,27,1630284410.0,32.000000
-55,16,27,1630284410.0,32.000000
-55,15,27,1630284410.0,32.000000
-54,16,27,1630284410.0,32.000000
-55,16,27,1630284410.0,32.000000
-56,15,27,1630284410.0,32.000000
-55,15,27,1630284410.0,32.000000
-55,16,27,1630284410.0,32.000000
-55,15,27,1630284410.0,32.000000
-55,15,27,1630284410.0,32.000000
-55,15,27,1630284410.0,32.000000
-55,16,27,1630284410.0,32.000000
-55,16,27,1630284410.0,32.000000
-55,16,27,1630284410.0,32.000000
-55,16,27,1630284410.0,32.000000
-55,16,27,1630284410.0,32.000000
-55,16,27,1630284410.0,32.000000
-55,16,27,1630284410.0,32.000000
-55,16,27,1630284410.0,32.000000
-55,16,27,1630284410.0,32.000000
-55,15,27,1630284410.0,32.000000
-55,16,27,1630284410.0,32.000000
-55,16,27,1630284410.0,32.000000
-55,16,27,1630284410.0,32.000000
-55,15,27,1630284410.0,32.000000
-55,16,27,1630284410.0,32.000000
-55,16,27,1630284410.0,32.000000
-55,16,27,1630284410.0,32.000000
-55,16,27,1630284410.0,32.000000
-55,16,27,1630284410.0,32.000000
-55,16,27,1630284410.0,32.000000
-55,16,27,1630284410.0,32.000000
-55,16,27,1630284410.0,32.000000
-55,16,27,1630284410.0,32.000000
-55,16,27,1630284410.0,32.000000
-55,16,27,1630284410.0,32.000000
-55,16,27,1630284410.0,32.000000
-55,16,27,1630284410.0,32.000000
-55,16,27,1630284410.0,32.000000
-55,16,27,1630284410.0,32.000000
-55,16,27,1630284410.0,32.000000
-55,16,27,1630284410.0,32.000000
-55,16,26,1630284410.0,32.000000
-55,16,27,1630284410.0,32.000000
-55,16,27,1630284410.0,32.000000
-55,15,27,1630284410.0,32.000000
-55,15,27,1630284410.0,32.000000
-55,16,27,1630284410.0,32.000000
-55,16,27,1630284410.0,32.000000
-55,15,27,1630284410.0,32.000000
-55,16,27,1630284410.0,32.000000
-55,16,27,1630284410.0,32.000000
-55,16,27,1630284410.0,32.000000
-55,16,27,1630284410.0,32.000000
-55,16,27,1630284410.0,32.000000
-55,16,27,1630284410.0,32.000000
-55,16,27,1630284410.0,32.000000
-55,16,27,1630284410.0,32.000000
-55,16,27,1630284410.0,32.000000
-55,16,27,1630284410.0,32.000000
-55,16,27,1630284410.0,32.000000
-55,16,27,1630284410.0,32.000000
-55,16,27,1630284410.0,32.000000
-55,16,27,1630284410.0,32.000000
-55,16,27,1630284410.0,32.000000
-55,16,27,1630284410.0,32.000000
-55,16,27,1630284410.0,32.000000
-55,16,27,1630284410.0,32.000000
-55,16,26,1630284410.0,32.000000
-55,15,27,1630284410.0,32.000000
-55,15,28,1630284410.0,32.000000
-56,16,29,1630284410.0,32.000000
-55,15,28,1630284410.0,32.000000
-54,16,26,1630284410.0,32.000000
-55,17,25,1630284410.0,32.000000
-55,17,25,1630284410.0,32.000000
-56,16,26,1630284410.0,32.000000
-56,16,27,1630284410.0,32.000000
-55,16,27,1630284410.0,32.000000
-55,16,27,1630284410.0,32.000000
-55,16,27,1630284410.0,32.000000
-55,16,26,1630284410.0,32.000000
-56,16,26,1630284410.0,32.000000
-55,16,25,1630284410.0,32.000000
-55,16,26,1630284410.0,32.000000
-56,16,26,1630284410.0,32.000000
-56,16,26,1630284410.0,32.000000
-55,16,27,1630284410.0,32.000000
-55,16,27,1630284410.0,32.000000
-55,16,27,1630284410.0,32.000000
-55,16,26,1630284410.0,32.000000
-56,16,25,1630284410.0,32.000000
-55,17,26,1630284410.0,32.000000
-55,16,26,1630284410.0,32.000000
-55,16,27,1630284410.0,32.000000
-55,16,27,1630284410.0,32.000000
-55,16,26,1630284410.0,32.000000
-55,16,26,1630284410.0,32.000000
-55,16,27,1630284410.0,32.000000
-56,16,26,1630284410.0,32.000000
-56,16,25,1630284410.0,32.000000
-56,16,25,1630284410.0,32.000000
-55,17,26,1630284410.0,32.000000
-55,17,27,1630284410.0,32.000000
-55,16,27,1630284410.0,32.000000
-55,16,27,1630284410.0,32.000000
-56,16,26,1630284410.0,32.000000
-56,17,26,1630284410.0,32.000000
-55,16,26,1630284410.0,32.000000
-55,16,26,1630284410.0,32.000000
-55,16,27,1630284410.0,32.000000
-56,16,27,1630284410.0,32.000000
-55,17,26,1630284410.0,32.000000
-55,16,26,1630284410.0,32.000000
-55,16,26,1630284410.0,32.000000
-55,16,27,1630284410.0,32.000000
-55,16,27,1630284410.0,32.000000
-55,16,27,1630284410.0,32.000000
-55,16,26,1630284410.0,32.000000
-55,16,26,1630284410.0,32.000000
-55,16,26,1630284410.0,32.000000
-55,16,27,1630284410.0,32.000000
-55,16,27,1630284410.0,32.000000
-55,16,27,1630284410.0,32.000000
-55,16,26,1630284410.0,32.000000
-55,16,26,1630284410.0,32.000000
-55,16,27,1630284410.0,32.000000
-55,16,27,1630284410.0,32.000000
-55,16,27,1630284410.0,32.000000
-55,16,27,1630284410.0,32.000000
-55,16,27,1630284410.0,32.000000
-56,15,27,1630284410.0,32.000000
-55,15,27,1630284410.0,32.000000
-55,15,27,1630284410.0,32.000000
-55,16,27,1630284410.0,32.000000
-55,16,27,1630284410.0,32.000000
-55,16,27,1630284410.0,32.000000
-55,16,27,1630284410.0,32.000000
-56,15,27,1630284410.0,32.000000
-55,15,27,1630284410.0,32.000000
-55,15,27,1630284410.0,32.000000
-55,16,27,1630284410.0,32.000000
-54,16,27,1630284410.0,32.000000
-55,17,27,1630284410.0,32.000000
-55,15,26,1630284410.0,32.000000
-56,15,27,1630284410.0,32.000000
-56,15,27,1630284410.0,32.000000
-55,16,27,1630284410.0,32.000000
-54,16,27,1630284410.0,32.000000
-55,16,27,1630284410.0,32.000000
-55,16,27,1630284410.0,32.000000
-55,16,26,1630284410.0,32.000000
-56,16,26,1630284410.0,32.000000
-56,15,26,1630284410.0,32.000000
-55,15,27,1630284410.0,32.000000
-55,15,27,1630284410.0,32.000000
-54,17,27,1630284410.0,32.000000
-79,19,-7,1630284410.0,32.000000
-86,22,-7,1630284410.0,32.000000
-64,9,4,1630284410.0,32.000000
-4,-6,39,1630284410.0,32.000000
63,4,102,1630284410.0,32.000000
77,6,81,1630284410.0,32.000000
33,-5,67,1630284410.0,32.000000
-43,-24,45,1630284410.0,32.000000
-30,-6,85,1630284410.0,32.000000
-34,7,74,1630284410.0,32.000000
-33,8,43,1630284410.0,32.000000
-21,22,50,1630284410.0,32.000000
-7,16,78,1630284410.0,32.000000
-31,11,41,1630284410.0,32.000000
-48,7,41,1630284410.0,32.000000
-28,19,45,1630284410.0,32.000000
-18,18,65,1630284410.0,32.000000
-27,18,53,1630284410.0,32.000000
-23,7,59,1630284410.0,32.000000
-19,16,52,1630284410.0,32.000000
-28,6,61,1630284410.0,32.000000
-34,10,48,1630284410.0,32.000000
-31,7,55,1630284410.0,32.000000
-23,12,44,1630284410.0,32.000000
-34,2,58,1630284410.0,32.000000
-33,9,54,1630284410.0,32.000000
-31,7,55,1630284410.0,32.000000
-24,12,47,1630284410.0,32.000000
-35,5,57,1630284410.0,32.000000
-30,3,68,1630284410.0,32.000000
-27,4,67,1630284410.0,32.000000
-26,18,40,1630284410.0,32.000000
-24,20,28,1630284410.0,32.000000
-26,18,39,1630284410.0,32.000000
-27,15,84,1630284410.0,32.000000
-40,8,96,1630284410.0,32.000000
-25,22,44,1630284410.0,32.000000
-22,19,49,1630284410.0,32.000000
-18,13,63,1630284410.0,32.000000
-21,15,54,1630284410.0,32.000000
-29,13,58,1630284410.0,32.000000
-31,14,59,1630284410.0,32.000000
-32,11,54,1630284410.0,32.000000
-36,8,54,1630284410.0,32.000000
-42,8,49,1630284410.0,32.000000
-39,9,49,1630284410.0,32.000000
-33,10,53,1630284410.0,32.000000
-34,13,50,1630284410.0,32.000000
-37,12,50,1630284410.0,32.000000
-37,11,49,1630284410.0,32.000000
-37,11,49,1630284410.0,32.000000
-40,11,48,1630284410.0,32.000000
-41,10,48,1630284410.0,32.000000
-39,12,48,1630284410.0,32.000000
-38,11,50,1630284410.0,32.000000
-39,11,48,1630284410.0,32.000000
-40,11,48,1630284410.0,32.000000
-39,10,48,1630284410.0,32.000000
-38,10,49,1630284410.0,32.000000
-40,9,48,1630284410.0,32.000000
-41,9,48,1630284410.0,32.000000
-39,9,49,1630284410.0,32.000000
-38,10,49,1630284410.0,32.000000
-39,10,49,1630284410.0,32.000000
-38,10,49,1630284410.0,32.000000
-39,10,48,1630284410.0,32.000000
-39,10,49,1630284410.0,32.000000
-39,11,48,1630284410.0,32.000000
-40,9,48,1630284410.0,32.000000
-40,9,48,1630284410.0,32.000000
-40,9,48,1630284410.0,32.000000
-39,9,49,1630284410.0,32.000000
-38,9,49,1630284410.0,32.000000
-39,9,49,1630284410.0,32.000000
-38,9,49,1630284410.0,32.000000
-39,9,48,1630284410.0,32.000000
-39,9,49,1630284410.0,32.000000
-39,10,48,1630284410.0,32.000000
-39,10,48,1630284410.0,32.000000
-40,10,48,1630284410.0,32.000000
-40,10,48,1630284410.0,32.000000
-40,10,48,1630284410.0,32.000000
-40,10,48,1630284410.0,32.000000
-40,10,48,1630284410.0,32.000000
-40,10,48,1630284410.0,32.000000
-40,10,48,1630284410.0,32.000000
-39,10,48,1630284410.0,32.000000
-40,10,48,1630284410.0,32.000000
-40,10,48,1630284410.0,32.000000
-40,10,48,1630284410.0,32.000000
-40,10,48,1630284410.0,32.000000
-40,10,48,1630284410.0,32.000000
-41,10,48,1630284410.0,32.000000
-41,11,47,1630284410.0,32.000000
-41,11,47,1630284410.0,32.000000
-41,11,47,1630284410.0,32.000000
-41,10,47,1630284410.0,32.000000
-41,10,47,1630284410.0,32.000000
-41,10,47,1630284410.0,32.000000
-40,10,48,1630284410.0,32.000000
-41,8,49,1630284410.0,32.000000
-44,10,45,1630284410.0,32.000000
-43,10,46,1630284410.0,32.000000
-43,10,44,1630284410.0,32.000000
-43,11,45,1630284410.0,32.000000
-43,10,46,1630284410.0,32.000000
-43,8,47,1630284410.0,32.000000
-42,6,48,1630284410.0,32.000000
-41,7,48,1630284410.0,32.000000
-40,8,48,1630284410.0,32.000000
-40,9,48,1630284410.0,32.000000
-41,12,46,1630284410.0,32.000000
-42,11,45,1630284410.0,32.000000
-43,11,45,1630284410.0,32.000000
-44,9,45,1630284410.0,32.000000
-44,8,46,1630284410.0,32.000000
-43,7,46,1630284410.0,32.000000
-43,7,46,1630284410.0,32.000000
-42,7,47,1630284410.0,32.000000
-41,8,47,1630284410.0,32.000000
-41,8,47,1630284410.0,32.000000
-42,10,46,1630284410.0,32.000000
-43,10,46,1630284410.0,32.000000
-43,9,46,1630284410.0,32.000000
-49,3,43,1630284410.0,32.000000
-38,1,48,1630284410.0,32.000000
-48,5,45,1630284410.0,32.000000
-44,5,42,1630284410.0,32.000000
-50,-2,46,1630284410.0,32.000000
-26,2,54,1630284410.0,32.000000
-20,13,56,1630284410.0,32.000000
-25,15,58,1630284410.0,32.000000
-19,29,47,1630284410.0,32.000000
-25,33,51,1630284410.0,32.000000
-25,26,57,1630284410.0,32.000000
-35,22,49,1630284410.0,32.000000
-32,21,51,1630284410.0,32.000000
-33,13,53,1630284410.0,32.000000
-30,7,55,1630284410.0,32.000000
-27,7,55,1630284410.0,32.000000
-25,10,55,1630284410.0,32.000000
-25,10,57,1630284410.0,32.000000
-26,10,57,1630284410.0,32.000000
-24,11,56,1630284410.0,32.000000
-25,10,58,1630284410.0,32.000000
-28,10,55,1630284410.0,32.000000
-28,10,57,1630284410.0,32.000000
-25,11,56,1630284410.0,32.000000
-18,10,60,1630284410.0,32.000000
-19,10,59,1630284410.0,32.000000
-24,10,58,1630284410.0,32.000000
-26,11,56,1630284410.0,32.000000
-25,11,57,1630284410.0,32.000000
-22,11,58,1630284410.0,32.000000
-24,12,57,1630284410.0,32.000000
-26,11,57,1630284410.0,32.000000
-24,11,57,1630284410.0,32.000000
-23,11,57,1630284410.0,32.000000
-26,10,56,1630284410.0,32.000000
-29,11,56,1630284410.0,32.000000
-25,11,57,1630284410.0,32.000000
-25,11,55,1630284410.0,32.000000
-22,12,58,1630284410.0,32.000000
-22,11,59,1630284410.0,32.000000
-21,11,58,1630284410.0,32.000000
-17,11,59,1630284410.0,32.000000
-10,9,65,1630284410.0,32.000000
-18,11,60,1630284410.0,32.000000
-15,12,59,1630284410.0,32.000000
-18,12,60,1630284410.0,32.000000
-21,13,59,1630284410.0,32.000000
-17,12,59,1630284410.0,32.000000
-22,11,59,1630284410.0,32.000000
-29,11,57,1630284410.0,32.000000
-20,8,58,1630284410.0,32.000000
-17,9,60,1630284410.0,32.000000
-16,7,61,1630284410.0,32.000000
-20,8,59,1630284410.0,32.000000
-19,8,60,1630284410.0,32.000000
-23,8,58,1630284410.0,32.000000
-23,9,59,1630284410.0,32.000000
-21,9,59,1630284410.0,32.000000
-22,8,58,1630284410.0,32.000000
-21,8,59,1630284410.0,32.000000
-22,8,59,1630284410.0,32.000000
-22,8,58,1630284410.0,32.000000
-22,9,59,1630284410.0,32.000000
-22,8,59,1630284410.0,32.000000
-22,8,59,1630284410.0,32.000000
-22,8,59,1630284410.0,32.000000
-23,8,58,1630284410.0,32.000000
-23,8,58,1630284410.0,32.000000
-23,8,59,1630284410.0,32.000000
-23,8,58,1630284410.0,32.000000
-23,8,59,1630284410.0,32.000000
-23,8,58,1630284410.0,32.000000
-23,8,58,1630284410.0,32.000000
-23,8,58,1630284410.0,32.000000
-23,8,58,1630284410.0,32.000000
-23,8,58,1630284410.0,32.000000
-23,8,58,1630284410.0,32.000000
-23,8,59,1630284410.0,32.000000
-23,8,59,1630284410.0,32.000000
-23,8,58,1630284410.0,32.000000
-23,8,58,1630284410.0,32.000000
-23,8,58,1630284410.0,32.000000
-23,8,58,1630284410.0,32.000000
-23,8,59,1630284410.0,32.000000
-23,8,58,1630284410.0,32.000000
-23,8,58,1630284410.0,32.000000
-23,8,59,1630284410.0,32.000000
-23,8,58,1630284410.0,32.000000
-22,8,59,1630284410.0,32.000000
-23,8,58,1630284410.0,32.000000
-23,9,58,1630284410.0,32.000000
-23,8,58,1630284410.0,32.000000
-23,8,58,1630284410.0,32.000000
-24,8,58,1630284410.0,32.000000
-24,8,58,1630284410.0,32.000000
-24,8,58,1630284410.0,32.000000
-23,8,58,1630284410.0,32.000000
-23,8,58,1630284410.0,32.000000
-23,8,58,1630284410.0,32.000000
-23,8,58,1630284410.0,32.000000
-24,8,58,1630284410.0,32.000000
-24,8,58,1630284410.0,32.000000
-25,8,58,1630284410.0,32.000000
-25,8,57,1630284410.0,32.000000
-24,7,57,1630284410.0,32.000000
-24,6,60,1630284410.0,32.000000
-25,9,56,1630284410.0,32.000000
-27,9,58,1630284410.0,32.000000
-24,9,58,1630284410.0,32.000000
-25,9,57,1630284410.0,32.000000
-24,8,58,1630284410.0,32.000000
-25,9,56,1630284410.0,32.000000
-26,8,58,1630284410.0,32.000000
-25,8,58,1630284410.0,32.000000
-25,8,58,1630284410.0,32.000000
-24,8,58,1630284410.0,32.000000
-24,8,58,1630284410.0,32.000000
-26,9,56,1630284410.0,32.000000
-26,9,56,1630284410.0,32.000000
-29,8,56,1630284410.0,32.000000
-26,8,56,1630284410.0,32.000000
-26,8,56,1630284410.0,32.000000
-25,8,58,1630284410.0,32.000000
-25,9,58,1630284410.0,32.000000
-25,9,57,1630284410.0,32.000000
-25,9,57,1630284410.0,32.000000
-24,9,57,1630284410.0,32.000000
-25,9,58,1630284410.0,32.000000
-26,8,58,1630284410.0,32.000000
-25,8,58,1630284410.0,32.000000
-26,9,56,1630284410.0,32.000000
-26,9,56,1630284410.0,32.000000
-26,8,58,1630284410.0,32.000000
-25,10,56,1630284410.0,32.000000
-25,9,56,1630284410.0,32.000000
-27,9,57,1630284410.0,32.000000
-27,8,57,1630284410.0,32.000000
-26,8,56,1630284410.0,32.000000
-27,8,57,1630284410.0,32.000000
-26,7,57,1630284410.0,32.000000
-27,8,57,1630284410.0,32.000000
-27,9,56,1630284410.0,32.000000
-26,9,57,1630284410.0,32.000000
-27,9,56,1630284410.0,32.000000
-26,10,56,1630284410.0,32.000000
-26,9,57,1630284410.0,32.000000
-27,8,56,1630284410.0,32.000000
-28,8,56,1630284410.0,32.000000
-27,9,55,1630284410.0,32.000000
-39,12,48,1630284410.0,32.000000
-25,4,57,1630284410.0,32.000000
-27,9,57,1630284410.0,32.000000
-28,9,56,1630284410.0,32.000000
-26,8,57,1630284410.0,32.000000
-25,8,57,1630284410.0,32.000000
-26,8,56,1630284410.0,32.000000
-27,8,57,1630284410.0,32.000000
-27,7,57,1630284410.0,32.000000
-29,7,55,1630284410.0,32.000000
-29,7,56,1630284410.0,32.000000
-28,8,56,1630284410.0,32.000000
-27,8,56,1630284410.0,32.000000
-27,8,56,1630284410.0,32.000000
-27,8,56,1630284410.0,32.000000
-27,8,56,1630284410.0,32.000000
-27,8,56,1630284410.0,32.000000
-28,7,56,1630284410.0,32.000000
-28,7,56,1630284410.0,32.000000
-29,7,56,1630284410.0,32.000000
-29,8,56,1630284410.0,32.000000
-29,8,56,1630284410.0,32.000000
-27,8,56,1630284410.0,32.000000
-27,8,57,1630284410.0,32.000000
-27,8,57,1630284410.0,32.000000
-27,7,56,1630284410.0,32.000000
-28,7,56,1630284410.0,32.000000
-28,7,56,1630284410.0,32.000000
-28,7,56,1630284410.0,32.000000
-28,8,56,1630284410.0,32.000000
-28,9,56,1630284410.0,32.000000
-27,9,57,1630284410.0,32.000000
-27,8,56,1630284410.0,32.000000
-27,8,56,1630284410.0,32.000000
-27,8,56,1630284410.0,32.000000
-28,8,56,1630284410.0,32.000000
-28,8,56,1630284410.0,32.000000
-28,8,56,1630284410.0,32.000000
-27,9,56,1630284410.0,32.000000
-27,8,56,1630284410.0,32.000000
-27,9,56,1630284410.0,32.000000
-27,8,56,1630284410.0,32.000000
-27,8,56,1630284410.0,32.000000
-28,8,56,1630284410.0,32.000000
-28,8,56,1630284410.0,32.000000
-28,8,56,1630284410.0,32.000000
-28,9,56,1630284410.0,32.000000
-27,8,56,1630284410.0,32.000000
-27,9,56,1630284410.0,32.000000
-27,8,56,1630284410.0,32.000000
-27,8,56,1630284410.0,32.000000
-28,9,56,1630284410.0,32.000000
-28,9,56,1630284410.0,32.000000
-27,9,57,1630284410.0,32.000000
-28,9,56,1630284410.0,32.000000
-28,9,56,1630284410.0,32.000000
-28,8,56,1630284410.0,32.000000
-27,8,56,1630284410.0,32.000000
-28,8,56,1630284410.0,32.000000
-28,8,56,1630284410.0,32.000000
-27,8,56,1630284410.0,32.000000
-28,9,56,1630284410.0,32.000000
-28,9,56,1630284410.0,32.000000
-27,9,56,1630284410.0,32.000000
-27,9,56,1630284410.0,32.000000
-27,8,56,1630284410.0,32.000000
-28,8,56,1630284410.0,32.000000
-28,8,56,1630284410.0,32.000000
-28,8,56,1630284410.0,32.000000
-28,8,56,1630284410.0,32.000000
-27,8,56,1630284410.0,32.000000
-27,9,56,1630284410.0,32.000000
-27,9,56,1630284410.0,32.000000
-27,9,56,1630284410.0,32.000000
-27,9,56,1630284410.0,32.000000
-27,8,56,1630284410.0,32.000000
-27,8,56,1630284410.0,32.000000
-28,8,56,1630284410.0,32.000000
-27,8,56,1630284410.0,32.000000
-28,9,56,1630284410.0,32.000000
-28,9,56,1630284410.0,32.000000
-28,9,56,1630284410.0,32.000000
-27,8,56,1630284410.0,32.000000
-28,9,56,1630284410.0,32.000000
-28,9,56,1630284410.0,32.000000
-28,9,56,1630284410.0,32.000000
-27,9,56,1630284410.0,32.000000
-27,9,56,1630284410.0,32.000000
-27,9,56,1630284410.0,32.000000
-27,9,56,1630284410.0,32.000000
-28,9,56,1630284410.0,32.000000
-28,9,56,1630284410.0,32.000000
-27,9,56,1630284410.0,32.000000
-27,9,56,1630284410.0,32.000000
-27,9,56,1630284410.0,32.000000
-28,9,56,1630284410.0,32.000000
-27,9,56,1630284410.0,32.000000
-27,8,56,1630284410.0,32.000000
-28,9,56,1630284410.0,32.000000
-27,9,56,1630284410.0,32.000000
-27,9,56,1630284410.0,32.000000
-27,9,56,1630284410.0,32.000000
-27,9,56,1630284410.0,32.000000
-27,8,56,1630284410.0,32.000000
-28,8,56,1630284410.0,32.000000
-28,10,56,1630284410.0,32.000000
-28,9,56,1630284410.0,32.000000
-27,9,56,1630284410.0,32.000000
-28,9,56,1630284410.0,32.000000
-28,9,55,1630284410.0,32.000000
-28,9,56,1630284410.0,32.000000
-28,9,56,1630284410.0,32.000000
-27,9,56,1630284410.0,32.000000
-28,9,56,1630284410.0,32.000000
-28,9,55,1630284410.0,32.000000
-28,9,56,1630284410.0,32.000000
-27,9,56,1630284410.0,32.000000
-29,9,55,1630284410.0,32.000000
-29,9,56,1630284410.0,32.000000
-28,9,56,1630284410.0,32.000000
-29,9,55,1630284410.0,32.000000
-27,9,56,1630284410.0,32.000000
-28,9,56,1630284410.0,32.000000
-28,9,56,1630284410.0,32.000000
-28,9,56,1630284410.0,32.000000
-29,9,56,1630284410.0,32.000000
-28,9,56,1630284410.0,32.000000
-28,9,56,1630284410.0,32.000000
-27,9,56,1630284410.0,32.000000
-28,9,56,1630284410.0,32.000000
-28,8,56,1630284410.0,32.000000
-28,9,56,1630284410.0,32.000000
-28,8,56,1630284410.0,32.000000
-27,8,56,1630284410.0,32.000000
-29,9,56,1630284410.0,32.000000
-28,9,56,1630284410.0,32.000000
-28,8,56,1630284410.0,32.000000
-28,8,56,1630284410.0,32.000000
-28,8,56,1630284410.0,32.000000
-28,8,56,1630284410.0,32.000000
-28,8,56,1630284410.0,32.000000
-28,8,56,1630284410.0,32.000000
-28,8,56,1630284410.0,32.000000
-28,8,56,1630284410.0,32.000000
-28,9,56,1630284410.0,32.000000
-28,8,56,1630284410.0,32.000000
-28,8,56,1630284410.0,32.000000
-28,9,56,1630284410.0,32.000000
-27,9,56,1630284410.0,32.000000
-28,9,55,1630284410.0,32.000000
-27,9,56,1630284410.0,32.000000
-27,9,56,1630284410.0,32.000000
-27,9,56,1630284410.0,32.000000
-28,9,56,1630284410.0,32.000000
-28,9,56,1630284410.0,32.000000
-28,9,56,1630284410.0,32.000000
-28,9,55,1630284410.0,32.000000
-28,9,56,1630284410.0,32.000000
-28,9,56,1630284410.0,32.000000
-28,9,56,1630284410.0,32.000000
-28,9,56,1630284410.0,32.000000
-28,9,56,1630284410.0,32.000000
-28,9,56,1630284410.0,32.000000
-28,9,56,1630284410.0,32.000000
-28,9,56,1630284410.0,32.000000
-28,9,56,1630284410.0,32.000000
-28,9,56,1630284410.0,32.000000
-28,9,56,1630284410.0,32.000000
-28,9,56,1630284410.0,32.000000
-28,9,56,1630284410.0,32.000000
-28,9,56,1630284410.0,32.000000
-28,9,56,1630284410.0,32.000000
-28,9,56,1630284410.0,32.000000
-28,9,56,1630284410.0,32.000000
-29,9,55,1630284410.0,32.000000
-28,9,56,1630284410.0,32.000000
-29,9,56,1630284410.0,32.000000
-29,9,56,1630284410.0,32.000000
-28,9,56,1630284410.0,32.000000
-28,9,56,1630284410.0,32.000000
-28,9,56,1630284410.0,32.000000
-28,9,56,1630284410.0,32.000000
-28,9,56,1630284410.0,32.000000
-28,9,56,1630284410.0,32.000000
-29,9,55,1630284410.0,32.000000
-28,9,56,1630284410.0,32.000000
-28,9,56,1630284410.0,32.000000
-28,9,56,1630284410.0,32.000000
-29,9,55,1630284410.0,32.000000
-28,10,56,1630284410.0,32.000000
-28,9,56,1630284410.0,32.000000
-28,9,55,1630284410.0,32.000000
-28,9,55,1630284410.0,32.000000
-28,9,56,1630284410.0,32.000000
-28,9,55,1630284410.0,32.000000
-29,9,56,1630284410.0,32.000000
-28,9,56,1630284410.0,32.000000
-28,9,55,1630284410.0,32.000000
-29,9,55,1630284410.0,32.000000
-28,9,56,1630284410.0,32.000000
-28,9,56,1630284410.0,32.000000
-28,9,56,1630284410.0,32.000000
-28,9,56,1630284410.0,32.000000
-28,9,56,1630284410.0,32.000000
-28,9,56,1630284410.0,32.000000
-28,9,56,1630284410.0,32.000000
-28,9,55,1630284410.0,32.000000
-28,9,56,1630284410.0,32.000000
-28,9,55,1630284410.0,32.000000
-28,9,56,1630284410.0,32.000000
-28,9,55,1630284410.0,32.000000
-28,9,56,1630284410.0,32.000000
-29,9,55,1630284410.0,32.000000
-28,10,56,1630284410.0,32.000000
-28,9,56,1630284410.0,32.000000
-29,9,55,1630284410.0,32.000000
-28,9,56,1630284410.0,32.000000
-28,9,55,1630284410.0,32.000000
-28,9,56,1630284410.0,32.000000
-28,9,56,1630284410.0,32.000000
-28,9,56,1630284410.0,32.000000
-28,9,55,1630284410.0,32.000000
-28,9,56,1630284410.0,32.000000
-29,9,55,1630284410.0,32.000000
-28,9,56,1630284410.0,32.000000
-28,9,56,1630284410.0,32.000000
-28,9,56,1630284410.0,32.000000
-28,9,55,1630284410.0,32.000000
-28,9,56,1630284410.0,32.000000
-29,9,55,1630284410.0,32.000000
-28,9,56,1630284410.0,32.000000
-28,9,56,1630284410.0,32.000000
-29,9,55,1630284410.0,32.000000
-28,9,56,1630284410.0,32.000000
-28,9,56,1630284410.0,32.000000
-29,9,56,1630284410.0,32.000000
-28,9,56,1630284410.0,32.000000
-28,8,56,1630284410.0,32.000000
-28,8,56,1630284410.0,32.000000
-28,9,56,1630284410.0,32.000000
-28,9,56,1630284410.0,32.000000
-28,9,56,1630284410.0,32.000000
-28,9,56,1630284410.0,32.000000
-28,9,55,1630284410.0,32.000000
-28,9,56,1630284410.0,32.000000
-28,9,56,1630284410.0,32.000000
-28,9,56,1630284410.0,32.000000
-28,9,56,1630284410.0,32.000000
-28,9,56,1630284410.0,32.000000
-28,9,55,1630284410.0,32.000000
-29,9,56,1630284410.0,32.000000
-27,9,56,1630284410.0,32.000000
-28,9,56,1630284410.0,32.000000
-27,8,56,1630284410.0,32.000000
-28,9,56,1630284410.0,32.000000
-28,9,56,1630284410.0,32.000000
-28,9,56,1630284410.0,32.000000
-28,9,56,1630284410.0,32.000000
-28,9,56,1630284410.0,32.000000
-28,9,56,1630284410.0,32.000000
-28,9,56,1630284410.0,32.000000
-28,9,56,1630284410.0,32.000000
-28,9,56,1630284410.0,32.000000
-28,9,56,1630284410.0,32.000000
-28,9,56,1630284410.0,32.000000
-28,9,56,1630284410.0,32.000000
-28,9,56,1630284410.0,32.000000
-28,9,56,1630284410.0,32.000000
-27,9,56,1630284410.0,32.000000
-28,9,56,1630284410.0,32.000000
-28,9,56,1630284410.0,32.000000
-28,9,56,1630284410.0,32.000000
-28,9,56,1630284410.0,32.000000
-28,9,56,1630284410.0,32.000000
-27,9,56,1630284410.0,32.000000
-28,9,56,1630284410.0,32.000000
-28,9,56,1630284410.0,32.000000
-28,9,56,1630284410.0,32.000000
-28,9,56,1630284410.0,32.000000
-28,9,56,1630284410.0,32.000000
-28,9,56,1630284410.0,32.000000
-28,9,56,1630284410.0,32.000000
-28,9,56,1630284410.0,32.000000
-28,9,56,1630284410.0,32.000000
-27,9,56,1630284410.0,32.000000
-28,9,56,1630284410.0,32.000000
-28,9,56,1630284410.0,32.000000
-28,9,56,1630284410.0,32.000000
-28,9,56,1630284410.0,32.000000
-28,9,56,1630284410.0,32.000000
-28,9,56,1630284410.0,32.000000
-28,9,56,1630284410.0,32.000000
-28,9,56,1630284410.0,32.000000
-28,9,56,1630284410.0,32.000000
-28,9,55,1630284410.0,32.000000
-28,9,56,1630284410.0,32.000000
-28,9,56,1630284410.0,32.000000
-27,9,56,1630284410.0,32.000000
-28,9,56,1630284410.0,32.000000
-28,9,56,1630284410.0,32.000000
-28,9,56,1630284410.0,32.000000
-28,9,56,1630284410.0,32.000000
-28,9,56,1630284410.0,32.000000
-28,9,56,1630284410.0,32.000000
-27,9,56,1630284410.0,32.000000
-28,9,56,1630284410.0,32.000000
-28,9,56,1630284410.0,32.000000
-28,9,56,1630284410.0,32.000000
-28,9,56,1630284410.0,32.000000
-28,9,56,1630284410.0,32.000000
-28,9,56,1630284410.0,32.000000
-28,9,56,1630284410.0,32.000000
-28,9,55,1630284410.0,32.000000
-28,9,56,1630284410.0,32.000000
-28,9,56,1630284410.0,32.000000
-27,9,56,1630284410.0,32.000000
-27,9,56,1630284410.0,32.000000
-28,9,56,1630284410.0,32.000000
-28,9,56,1630284410.0,32.000000
-27,9,56,1630284410.0,32.000000
-28,9,56,1630284410.0,32.000000
-28,9,56,1630284410.0,32.000000
-28,9,56,1630284410.0,32.000000
-28,9,56,1630284410.0,32.000000
-27,9,56,1630284410.0,32.000000
-28,9,56,1630284410.0,32.000000
-28,9,56,1630284410.0,32.000000
-27,9,56,1630284410.0,32.000000
-27,9,56,1630284410.0,32.000000
-27,9,56,1630284410.0,32.000000
-28,9,56,1630284410.0,32.000000
-28,9,55,1630284410.0,32.000000
-28,8,56,1630284410.0,32.000000
-28,8,56,1630284410.0,32.000000
-28,9,56,1630284410.0,32.000000
-28,9,55,1630284410.0,32.000000
-29,8,56,1630284410.0,32.000000
-28,8,56,1630284410.0,32.000000
-28,8,56,1630284410.0,32.000000
-28,8,56,1630284410.0,32.000000
-28,8,56,1630284410.0,32.000000
-28,8,56,1630284410.0,32.000000
-28,8,56,1630284410.0,32.000000
-28,8,56,1630284410.0,32.000000
-28,8,56,1630284410.0,32.000000
-28,8,56,1630284410.0,32.000000
-28,8,56,1630284410.0,32.000000
-27,8,56,1630284410.0,32.000000
-28,8,56,1630284410.0,32.000000
-28,8,56,1630284410.0,32.000000
-28,8,56,1630284410.0,32.000000
-27,8,56,1630284410.0,32.000000
-28,8,56,1630284410.0,32.000000
-29,8,56,1630284410.0,32.000000
-28,8,56,1630284410.0,32.000000
-27,8,56,1630284410.0,32.000000
-27,8,56,1630284410.0,32.000000
-28,8,56,1630284410.0,32.000000
-28,8,56,1630284410.0,32.000000
-28,8,56,1630284410.0,32.000000
-28,8,56,1630284410.0,32.000000
-28,8,56,1630284410.0,32.000000
-28,9,56,1630284410.0,32.000000
-28,8,56,1630284410.0,32.000000
-28,8,56,1630284410.0,32.000000
-28,8,56,1630284410.0,32.000000
-28,9,56,1630284410.0,32.000000
-28,9,56,1630284410.0,32.000000
-27,9,56,1630284410.0,32.000000
-28,8,56,1630284410.0,32.000000
-28,9,56,1630284410.0,32.000000
-28,9,56,1630284410.0,32.000000
-28,8,56,1630284410.0,32.000000
-27,9,56,1630284410.0,32.000000
-28,9,56,1630284410.0,32.000000
-28,8,56,1630284410.0,32.000000
-28,8,56,1630284410.0,32.000000
-27,8,56,1630284410.0,32.000000
-29,9,56,1630284410.0,32.000000
-28,9,56,1630284410.0,32.000000
-27,8,56,1630284410.0,32.000000
-28,8,56,1630284410.0,32.000000
-28,9,56,1630284410.0,32.000000
-27,9,56,1630284410.0,32.000000
-28,9,56,1630284410.0,32.000000
-28,8,56,1630284410.0,32.000000
-28,8,56,1630284410.0,32.000000
-28,9,56,1630284410.0,32.000000
-28,9,56,1630284410.0,32.000000
-28,9,56,1630284410.0,32.000000
-27,9,56,1630284410.0,32.000000
-28,9,56,1630284410.0,32.000000
-28,8,56,1630284410.0,32.000000
-28,8,56,1630284410.0,32.000000
-28,8,56,1630284410.0,32.000000
-27,8,56,1630284410.0,32.000000
-28,8,56,1630284410.0,32.000000
-28,9,56,1630284410.0,32.000000
-28,8,56,1630284410.0,32.000000
-28,8,56,1630284410.0,32.000000
-28,9,56,1630284410.0,32.000000
-28,8,56,1630284410.0,32.000000
-28,9,56,1630284410.0,32.000000
-28,9,55,1630284410.0,32.000000
-27,8,56,1630284410.0,32.000000
-27,8,56,1630284410.0,32.000000
-28,8,56,1630284410.0,32.000000
-28,8,56,1630284410.0,32.000000
-27,9,56,1630284410.0,32.000000
-28,8,56,1630284410.0,32.000000
-28,9,56,1630284410.0,32.000000
-27,8,56,1630284410.0,32.000000
-28,8,56,1630284410.0,32.000000
-28,9,56,1630284410.0,32.000000
-28,8,56,1630284410.0,32.000000
-28,9,56,1630284410.0,32.000000
-27,8,56,1630284410.0,32.000000
-28,9,56,1630284410.0,32.000000
-28,9,56,1630284410.0,32.000000
-28,8,56,1630284410.0,32.000000
-28,9,56,1630284410.0,32.000000
-28,8,56,1630284410.0,32.000000
-28,8,56,1630284410.0,32.000000
-28,8,56,1630284410.0,32.000000
-28,8,56,1630284410.0,32.000000
-27,8,56,1630284410.0,32.000000
-28,8,56,1630284410.0,32.000000
-28,8,56,1630284410.0,32.000000
-28,9,56,1630284410.0,32.000000
-28,8,56,1630284410.0,32.000000
-28,8,56,1630284410.0,32.000000
-28,8,56,1630284410.0,32.000000
-28,8,56,1630284410.0,32.000000
-27,8,56,1630284410.0,32.000000
-28,8,56,1630284410.0,32.000000
-28,8,56,1630284410.0,32.000000
-28,8,56,1630284410.0,32.000000
-28,8,56,1630284410.0,32.000000
-28,8,56,1630284410.0,32.000000
-28,8,56,1630284410.0,32.000000
-28,8,56,1630284410.0,32.000000
-28,8,56,1630284410.0,32.000000
-28,8,56,1630284410.0,32.000000
-28,8,56,1630284410.0,32.000000
-28,8,56,1630284410.0,32.000000
-28,8,56,1630284410.0,32.000000
-28,8,56,1630284410.0,32.000000
-28,8,56,1630284410.0,32.000000
-28,8,56,1630284410.0,32.000000
-28,8,56,1630284410.0,32.000000
-28,8,56,1630284410.0,32.000000
-28,8,56,1630284410.0,32.000000
-28,8,56,1630284410.0,32.000000
-28,8,56,1630284410.0,32.000000
-28,8,56,1630284410.0,32.000000
-28,8,56,1630284410.0,32.000000
-28,8,56,1630284410.0,32.000000
-28,8,56,1630284410.0,32.000000
-28,8,56,1630284410.0,32.000000
-28,8,56,1630284410.0,32.000000
-28,8,56,1630284410.0,32.000000
-28,8,56,1630284410.0,32.000000
-28,9,56,1630284410.0,32.000000
-28,8,56,1630284410.0,32.000000
-28,8,56,1630284410.0,32.000000
-28,8,56,1630284410.0,32.000000
-28,8,56,1630284410.0,32.000000
-28,8,56,1630284410.0,32.000000
-28,8,56,1630284410.0,32.000000
-28,8,56,1630284410.0,32.000000
-28,8,56,1630284410.0,32.000000
-28,9,56,1630284410.0,32.000000
-28,9,56,1630284410.0,32.000000
-28,8,56,1630284410.0,32.000000
-28,8,56,1630284410.0,32.000000
-28,8,55,1630284410.0,32.000000
-28,8,56,1630284410.0,32.000000
-28,8,56,1630284410.0,32.000000
-28,8,56,1630284410.0,32.000000
-28,9,56,1630284410.0,32.000000
-28,8,56,1630284410.0,32.000000
-28,9,56,1630284410.0,32.000000
-28,8,55,1630284410.0,32.000000
-28,8,56,1630284410.0,32.000000
-28,8,56,1630284410.0,32.000000
-28,8,56,1630284410.0,32.000000
-28,8,56,1630284410.0,32.000000
-28,8,56,1630284410.0,32.000000
-28,9,56,1630284410.0,32.000000
-28,8,56,1630284410.0,32.000000
-28,8,56,1630284410.0,32.000000
-28,8,56,1630284410.0,32.000000
-28,9,56,1630284410.0,32.000000
-28,9,56,1630284410.0,32.000000
-28,9,56,1630284410.0,32.000000
-28,8,56,1630284410.0,32.000000
-28,8,56,1630284410.0,32.000000
-28,8,56,1630284410.0,32.000000
-28,8,56,1630284410.0,32.000000
-28,8,56,1630284410.0,32.000000
-28,9,56,1630284410.0,32.000000
-28,9,56,1630284410.0,32.000000
-28,8,56,1630284410.0,32.000000
-28,8,56,1630284410.0,32.000000
-28,8,56,1630284410.0,32.000000
-28,9,56,1630284410.0,32.000000
-28,9,56,1630284410.0,32.000000
-28,8,56,1630284410.0,32.000000
-28,8,56,1630284410.0,32.000000
-28,8,56,1630284410.0,32.000000
-28,9,56,1630284410.0,32.000000
-28,9,56,1630284410.0,32.000000
-28,8,56,1630284410.0,32.000000
-28,9,56,1630284410.0,32.000000
-28,9,56,1630284410.0,32.000000
-28,9,56,1630284410.0,32.000000
-28,8,56,1630284410.0,32.000000
-28,8,56,1630284410.0,32.000000
-28,8,56,1630284410.0,32.000000
-28,9,56,1630284410.0,32.000000
-28,9,56,1630284410.0,32.000000
-28,8,56,1630284410.0,32.000000
-28,8,56,1630284410.0,32.000000
-28,8,56,1630284410.0,32.000000
-28,8,56,1630284410.0,32.000000
-28,9,56,1630284410.0,32.000000
-28,9,56,1630284410.0,32.000000
-28,9,56,1630284410.0,32.000000
-28,9,56,1630284410.0,32.000000
-28,8,56,1630284410.0,32.000000
-28,8,56,1630284410.0,32.000000
-28,9,56,1630284410.0,32.000000
-28,8,56,1630284410.0,32.000000
-28,9,56,1630284410.0,32.000000
-28,8,56,1630284410.0,32.000000
-28,9,56,1630284410.0,32.000000
-28,8,56,1630284410.0,32.000000
-29,9,55,1630284410.0,32.000000
-27,9,56,1630284410.0,32.000000
-28,9,55,1630284410.0,32.000000
-29,8,55,1630284410.0,32.000000
-28,8,56,1630284410.0,32.000000
-27,8,57,1630284410.0,32.000000
-27,8,56,1630284410.0,32.000000
-28,9,56,1630284410.0,32.000000
-28,8,56,1630284410.0,32.000000
-28,7,56,1630284410.0,32.000000
-28,9,56,1630284410.0,32.000000
-28,9,56,1630284410.0,32.000000
-27,8,56,1630284410.0,32.000000
-29,8,56,1630284410.0,32.000000
-29,8,55,1630284410.0,32.000000
-28,8,56,1630284410.0,32.000000
-28,8,56,1630284410.0,32.000000
-29,8,55,1630284410.0,32.000000
-27,8,56,1630284410.0,32.000000
-27,8,56,1630284410.0,32.000000
-29,8,56,1630284410.0,32.000000
-28,8,56,1630284410.0,32.000000
-27,8,56,1630284410.0,32.000000
-28,8,56,1630284410.0,32.000000
-28,8,56,1630284410.0,32.000000
-28,8,56,1630284410.0,32.000000
-28,8,56,1630284410.0,32.000000
-28,8,56,1630284410.0,32.000000
-28,8,56,1630284410.0,32.000000
-28,8,56,1630284410.0,32.000000
-28,9,56,1630284410.0,32.000000
-28,8,56,1630284410.0,32.000000
-27,8,56,1630284410.0,32.000000
-28,8,56,1630284410.0,32.000000
-28,8,56,1630284410.0,32.000000
-28,9,56,1630284410.0,32.000000
-28,8,56,1630284410.0,32.000000
-28,8,56,1630284410.0,32.000000
-28,8,56,1630284410.0,32.000000
-28,9,56,1630284410.0,32.000000
-28,8,56,1630284410.0,32.000000
-28,8,56,1630284410.0,32.000000
-27,8,56,1630284410.0,32.000000
-28,8,56,1630284410.0,32.000000
-28,8,56,1630284410.0,32.000000
-28,8,56,1630284410.0,32.000000
-28,9,56,1630284410.0,32.000000
-28,8,56,1630284410.0,32.000000
-28,8,56,1630284410.0,32.000000
-28,8,56,1630284410.0,32.000000
-28,8,56,1630284410.0,32.000000
-28,8,56,1630284410.0,32.000000
-28,8,56,1630284410.0,32.000000
-28,8,56,1630284410.0,32.000000
-28,8,56,1630284410.0,32.000000
-27,8,56,1630284410.0,32.000000
-28,8,56,1630284410.0,32.000000
-28,9,56,1630284410.0,32.000000
-28,8,56,1630284410.0,32.000000
-28,8,56,1630284410.0,32.000000
-28,9,56,1630284410.0,32.000000
-28,9,55,1630284410.0,32.000000
-28,8,56,1630284410.0,32.000000
-28,8,56,1630284410.0,32.000000
-28,8,56,1630284410.0,32.000000
-28,8,56,1630284410.0,32.000000
-28,9,56,1630284410.0,32.000000
-28,9,56,1630284410.0,32.000000
-28,8,56,1630284410.0,32.000000
-28,8,56,1630284410.0,32.000000
-28,9,56,1630284410.0,32.000000
-28,9,56,1630284410.0,32.000000
-28,9,56,1630284410.0,32.000000
-28,8,56,1630284410.0,32.000000
-28,9,56,1630284410.0,32.000000
-28,9,56,1630284410.0,32.000000
-28,9,56,1630284410.0,32.000000
-28,8,56,1630284410.0,32.000000
-28,8,56,1630284410.0,32.000000
-28,8,56,1630284410.0,32.000000
-28,9,56,1630284410.0,32.000000
-28,8,56,1630284410.0,32.000000
-28,8,56,1630284410.0,32.000000
-28,9,56,1630284410.0,32.000000
-28,8,56,1630284410.0,32.000000
-28,8,56,1630284410.0,32.000000
-28,9,56,1630284410.0,32.000000
-28,9,56,1630284410.0,32.000000
-28,9,56,1630284410.0,32.000000
-28,9,56,1630284410.0,32.000000
-28,8,56,1630284410.0,32.000000
-28,9,56,1630284410.0,32.000000
-28,9,56,1630284410.0,32.000000
-28,9,56,1630284410.0,32.000000
-28,8,56,1630284410.0,32.000000
-28,8,56,1630284410.0,32.000000
-28,9,56,1630284410.0,32.000000
-28,9,56,1630284410.0,32.000000
-28,8,56,1630284410.0,32.000000
-28,8,56,1630284410.0,32.000000
-28,8,56,1630284410.0,32.000000
-28,8,56,1630284410.0,32.000000
-29,8,56,1630284410.0,32.000000
-28,8,55,1630284410.0,32.000000
-28,8,56,1630284410.0,32.000000
-28,8,56,1630284410.0,32.000000
-28,8,56,1630284410.0,32.000000
-28,8,56,1630284410.0,32.000000
-28,8,56,1630284410.0,32.000000
-28,8,56,1630284410.0,32.000000
-28,8,56,1630284410.0,32.000000
-28,8,56,1630284410.0,32.000000
-28,8,56,1630284410.0,32.000000
-28,8,56,1630284410.0,32.000000
-28,8,56,1630284410.0,32.000000
-28,8,56,1630284410.0,32.000000
-28,8,56,1630284410.0,32.000000
-28,8,56,1630284410.0,32.000000
-28,8,56,1630284410.0,32.000000
-28,8,56,1630284410.0,32.000000
-28,8,56,1630284410.0,32.000000
-28,8,56,1630284410.0,32.000000
-28,8,56,1630284410.0,32.000000
-28,8,56,1630284410.0,32.000000
-28,8,56,1630284410.0,32.000000
-28,8,56,1630284410.0,32.000000
-29,8,56,1630284410.0,32.000000
-28,8,56,1630284410.0,32.000000
-28,8,56,1630284410.0,32.000000
-28,8,56,1630284410.0,32.000000
-28,8,56,1630284410.0,32.000000
-28,8,56,1630284410.0,32.000000
-28,8,56,1630284410.0,32.000000
-28,8,56,1630284410.0,32.000000
-28,8,56,1630284410.0,32.000000
-28,8,56,1630284410.0,32.000000
-28,8,55,1630284410.0,32.000000
-28,8,56,1630284410.0,32.000000
-28,8,56,1630284410.0,32.000000
-28,8,56,1630284410.0,32.000000
-28,8,56,1630284410.0,32.000000
-28,8,56,1630284410.0,32.000000
-28,8,56,1630284410.0,32.000000
-28,8,56,1630284410.0,32.000000
-28,8,56,1630284410.0,32.000000
-28,8,56,1630284410.0,32.000000
-28,8,56,1630284410.0,32.000000
-28,8,56,1630284410.0,32.000000
-28,8,56,1630284410.0,32.000000
-28,8,56,1630284410.0,32.000000
-28,8,56,1630284410.0,32.000000
-28,8,56,1630284410.0,32.000000
-28,8,56,1630284410.0,32.000000
-28,8,56,1630284410.0,32.000000
-28,8,56,1630284410.0,32.000000
-28,8,56,1630284410.0,32.000000
-28,8,56,1630284410.0,32.000000
-28,9,55,1630284410.0,32.000000
-28,8,56,1630284410.0,32.000000
-28,8,56,1630284410.0,32.000000
-28,9,56,1630284410.0,32.000000
-28,9,56,1630284410.0,32.000000
-28,8,56,1630284410.0,32.000000
-28,9,56,1630284410.0,32.000000
-28,9,56,1630284410.0,32.000000
-28,9,56,1630284410.0,32.000000
-28,8,56,1630284410.0,32.000000
-28,8,56,1630284410.0,32.000000
-28,9,56,1630284410.0,32.000000
-28,9,56,1630284410.0,32.000000
-28,9,55,1630284410.0,32.000000
-28,8,56,1630284410.0,32.000000
-28,8,56,1630284410.0,32.000000
-28,8,56,1630284410.0,32.000000
-28,9,56,1630284410.0,32.000000
-28,8,56,1630284410.0,32.000000
-28,8,56,1630284410.0,32.000000
-28,9,56,1630284410.0,32.000000
-28,8,56,1630284410.0,32.000000
-28,8,56,1630284410.0,32.000000
-28,8,56,1630284410.0,32.000000
-28,9,56,1630284410.0,32.000000
-28,9,56,1630284410.0,32.000000
-28,9,56,1630284410.0,32.000000
-28,9,56,1630284410.0,32.000000
-28,9,56,1630284410.0,32.000000
-28,8,56,1630284410.0,32.000000
-28,9,56,1630284410.0,32.000000
-28,8,56,1630284410.0,32.000000
-28,9,56,1630284410.0,32.000000
-27,9,56,1630284410.0,32.000000
-28,9,56,1630284410.0,32.000000
-28,8,56,1630284410.0,32.000000
-28,9,56,1630284410.0,32.000000
-28,8,56,1630284410.0,32.000000
-28,9,56,1630284410.0,32.000000
-28,9,56,1630284410.0,32.000000
-28,8,56,1630284410.0,32.000000
-28,8,56,1630284410.0,32.000000
-28,8,56,1630284410.0,32.000000
-28,9,56,1630284410.0,32.000000
-28,8,56,1630284410.0,32.000000
-28,8,56,1630284410.0,32.000000
-28,9,56,1630284410.0,32.000000
-28,9,56,1630284410.0,32.000000
-28,8,56,1630284410.0,32.000000
-28,8,56,1630284410.0,32.000000
-28,8,56,1630284410.0,32.000000
-28,9,56,1630284410.0,32.000000
-28,9,56,1630284410.0,32.000000
-28,8,56,1630284410.0,32.000000
-28,8,56,1630284410.0,32.000000
-28,9,56,1630284410.0,32.000000
-28,8,56,1630284410.0,32.000000
-28,8,56,1630284410.0,32.000000
-28,9,56,1630284410.0,32.000000
-28,9,56,1630284410.0,32.000000
-28,9,56,1630284410.0,32.000000
-28,9,56,1630284410.0,32.000000
-28,8,56,1630284410.0,32.000000
-28,9,56,1630284410.0,32.000000
-28,9,56,1630284410.0,32.000000
-28,9,56,1630284410.0,32.000000
-28,9,56,1630284410.0,32.000000
-28,9,56,1630284410.0,32.000000
-28,8,56,1630284410.0,32.000000
-28,9,56,1630284410.0,32.000000
-28,8,56,1630284410.0,32.000000
-28,9,56,1630284410.0,32.000000
-28,9,56,1630284410.0,32.000000
-28,9,56,1630284410.0,32.000000
-28,9,56,1630284410.0,32.000000
-28,9,56,1630284410.0,32.000000
-28,8,56,1630284410.0,32.000000
-28,8,56,1630284410.0,32.000000
-28,8,56,1630284410.0,32.000000
-28,8,56,1630284410.0,32.000000
-28,9,56,1630284410.0,32.000000
-28,8,56,1630284410.0,32.000000
-28,8,56,1630284410.0,32.000000
-28,8,56,1630284410.0,32.000000
-28,8,56,1630284410.0,32.000000
-28,8,56,1630284410.0,32.000000
-28,8,56,1630284410.0,32.000000
-28,8,55,1630284410.0,32.000000
-28,8,55,1630284410.0,32.000000
-28,8,56,1630284410.0,32.000000
-28,8,56,1630284410.0,32.000000
-28,8,56,1630284410.0,32.000000
-28,8,56,1630284410.0,32.000000
-29,8,56,1630284410.0,32.000000
-28,9,56,1630284410.0,32.000000
-29,8,56,1630284410.0,32.000000
-28,8,56,1630284410.0,32.000000
-28,8,56,1630284410.0,32.000000
-28,8,56,1630284410.0,32.000000
-28,8,56,1630284410.0,32.000000
-28,9,56,1630284410.0,32.000000
-28,9,56,1630284410.0,32.000000
-28,8,56,1630284410.0,32.000000
-28,9,55,1630284410.0,32.000000
-29,8,55,1630284410.0,32.000000
-29,8,55,1630284410.0,32.000000
-28,8,55,1630284410.0,32.000000
-29,9,56,1630284410.0,32.000000
-29,9,55,1630284410.0,32.000000
-29,9,55,1630284410.0,32.000000
-28,9,56,1630284410.0,32.000000
-28,8,55,1630284410.0,32.000000
-28,9,56,1630284410.0,32.000000
-29,9,55,1630284410.0,32.000000
-29,9,56,1630284410.0,32.000000
-29,8,56,1630284410.0,32.000000
-29,8,55,1630284410.0,32.000000
-29,8,55,1630284410.0,32.000000
-29,9,55,1630284410.0,32.000000
-29,9,55,1630284410.0,32.000000
-28,9,56,1630284410.0,32.000000
-29,9,55,1630284410.0,32.000000
-29,9,55,1630284410.0,32.000000
-29,9,55,1630284410.0,32.000000
-29,9,56,1630284410.0,32.000000
-29,9,56,1630284410.0,32.000000
-29,9,56,1630284410.0,32.000000
-29,9,55,1630284410.0,32.000000
-29,9,55,1630284410.0,32.000000
-29,9,55,1630284410.0,32.000000
-29,9,56,1630284410.0,32.000000
-29,9,56,1630284410.0,32.000000
-29,9,56,1630284410.0,32.000000
-29,9,55,1630284410.0,32.000000
-29,9,56,1630284410.0,32.000000
-29,8,56,1630284410.0,32.000000
-29,9,55,1630284410.0,32.000000
-29,9,55,1630284410.0,32.000000
-29,9,55,1630284410.0,32.000000
-29,9,55,1630284410.0,32.000000
-29,8,56,1630284410.0,32.000000
-29,9,55,1630284410.0,32.000000
-29,9,56,1630284410.0,32.000000
-29,9,55,1630284410.0,32.000000
-29,9,56,1630284410.0,32.000000
-29,9,55,1630284410.0,32.000000
-29,9,55,1630284410.0,32.000000
-29,9,56,1630284410.0,32.000000
-29,9,55,1630284410.0,32.000000
-29,9,56,1630284410.0,32.000000
-29,9,55,1630284410.0,32.000000
-29,9,56,1630284410.0,32.000000
-29,9,55,1630284410.0,32.000000
-29,9,55,1630284410.0,32.000000
-29,8,55,1630284410.0,32.000000
-29,9,56,1630284410.0,32.000000
-29,9,55,1630284410.0,32.000000
-29,9,55,1630284410.0,32.000000
-29,9,55,1630284410.0,32.000000
-29,9,55,1630284410.0,32.000000
-29,9,55,1630284410.0,32.000000
-29,9,55,1630284410.0,32.000000
-29,9,55,1630284410.0,32.000000
-29,9,55,1630284410.0,32.000000
-29,9,56,1630284410.0,32.000000
-29,9,55,1630284410.0,32.000000
-29,9,55,1630284410.0,32.000000
-29,9,56,1630284410.0,32.000000
-29,8,55,1630284410.0,32.000000
-29,9,56,1630284410.0,32.000000
-29,8,55,1630284410.0,32.000000
-29,9,55,1630284410.0,32.000000
-29,9,56,1630284410.0,32.000000
-29,9,55,1630284410.0,32.000000
-29,8,55,1630284410.0,32.000000
-29,8,56,1630284410.0,32.000000
-29,8,55,1630284410.0,32.000000
-29,9,55,1630284410.0,32.000000
-29,9,55,1630284410.0,32.000000
-29,8,55,1630284410.0,32.000000
-29,8,56,1630284410.0,32.000000
-29,8,56,1630284410.0,32.000000
-28,8,56,1630284410.0,32.000000
-29,8,55,1630284410.0,32.000000
-29,8,55,1630284410.0,32.000000
-29,8,55,1630284410.0,32.000000
-29,8,55,1630284410.0,32.000000
-29,8,56,1630284410.0,32.000000
-29,8,55,1630284410.0,32.000000
-29,8,56,1630284410.0,32.000000
-29,8,56,1630284410.0,32.000000
-29,8,55,1630284410.0,32.000000
-29,8,56,1630284410.0,32.000000
-29,9,55,1630284410.0,32.000000
-29,8,55,1630284410.0,32.000000
-29,8,56,1630284410.0,32.000000
-29,8,55,1630284410.0,32.000000
-29,9,55,1630284410.0,32.000000
-29,9,55,1630284410.0,32.000000
-29,8,55,1630284410.0,32.000000
-29,8,55,1630284410.0,32.000000
-29,9,55,1630284410.0,32.000000
-29,9,56,1630284410.0,32.000000
-29,8,56,1630284410.0,32.000000
-28,9,56,1630284410.0,32.000000
-28,9,55,1630284410.0,32.000000
-29,9,55,1630284410.0,32.000000
-29,9,55,1630284410.0,32.000000
-29,8,56,1630284410.0,32.000000
-29,9,55,1630284410.0,32.000000
-29,9,55,1630284410.0,32.000000
-29,8,55,1630284410.0,32.000000
-29,9,55,1630284410.0,32.000000
-30,9,55,1630284410.0,32.000000
-30,9,55,1630284410.0,32.000000
-29,9,55,1630284410.0,32.000000
-29,9,55,1630284410.0,32.000000
-30,9,55,1630284410.0,32.000000
-29,9,55,1630284410.0,32.000000
-29,9,55,1630284410.0,32.000000
-29,9,55,1630284410.0,32.000000
-29,9,55,1630284410.0,32.000000
-29,9,55,1630284410.0,32.000000
-29,9,55,1630284410.0,32.000000
-29,9,55,1630284410.0,32.000000
-29,9,55,1630284410.0,32.000000
-29,9,55,1630284410.0,32.000000
-29,9,55,1630284410.0,32.000000
-29,9,55,1630284410.0,32.000000
-29,9,55,1630284410.0,32.000000
-29,9,55,1630284410.0,32.000000
-29,9,55,1630284410.0,32.000000
-29,8,55,1630284410.0,32.000000
-29,9,55,1630284410.0,32.000000
-29,9,55,1630284410.0,32.000000
-29,9,55,1630284410.0,32.000000
-29,8,55,1630284410.0,32.000000
-29,9,55,1630284410.0,32.000000
-29,9,55,1630284410.0,32.000000
-29,9,55,1630284410.0,32.000000
-29,9,55,1630284410.0,32.000000
-29,9,55,1630284410.0,32.000000
-29,9,55,1630284410.0,32.000000
-30,9,55,1630284410.0,32.000000
-29,9,55,1630284410.0,32.000000
-29,9,55,1630284410.0,32.000000
-29,9,55,1630284410.0,32.000000
-29,9,55,1630284410.0,32.000000
-29,9,55,1630284410.0,32.000000
-29,9,55,1630284410.0,32.000000
-30,9,55,1630284410.0,32.000000
-29,9,55,1630284410.0,32.000000
-29,9,55,1630284410.0,32.000000
-29,9,55,1630284410.0,32.000000
-29,9,55,1630284410.0,32.000000
-29,9,55,1630284410.0,32.000000
-29,9,55,1630284410.0,32.000000
-29,9,55,1630284410.0,32.000000
-29,8,56,1630284410.0,32.000000
-29,8,55,1630284410.0,32.000000
-29,9,55,1630284410.0,32.000000
-29,9,55,1630284410.0,32.000000
-29,9,55,1630284410.0,32.000000
-29,8,55,1630284410.0,32.000000
-29,8,55,1630284410.0,32.000000
-30,9,55,1630284410.0,32.000000
-29,9,55,1630284410.0,32.000000
-29,8,55,1630284410.0,32.000000
-29,9,55,1630284410.0,32.000000
-29,9,55,1630284410.0,32.000000
-29,9,55,1630284410.0,32.000000
-29,8,55,1630284410.0,32.000000
-30,8,55,1630284410.0,32.000000
-29,8,55,1630284410.0,32.000000
-30,8,55,1630284410.0,32.000000
-29,8,55,1630284410.0,32.000000
-30,9,55,1630284410.0,32.000000
-30,9,55,1630284410.0,32.000000
-30,8,55,1630284410.0,32.000000
-29,8,55,1630284410.0,32.000000
-30,8,55,1630284410.0,32.000000
-30,8,55,1630284410.0,32.000000
-29,8,55,1630284410.0,32.000000
-29,8,55,1630284410.0,32.000000
-29,8,55,1630284410.0,32.000000
-29,8,55,1630284410.0,32.000000
-29,9,55,1630284410.0,32.000000
-29,8,55,1630284410.0,32.000000
-29,8,55,1630284410.0,32.000000
-29,8,55,1630284410.0,32.000000
-29,8,55,1630284410.0,32.000000
-30,8,55,1630284410.0,32.000000
-29,8,55,1630284410.0,32.000000
-29,9,55,1630284410.0,32.000000
-29,9,55,1630284410.0,32.000000
-29,9,55,1630284410.0,32.000000
-29,9,55,1630284410.0,32.000000
-29,9,55,1630284410.0,32.000000
-29,8,55,1630284410.0,32.000000
-29,8,55,1630284410.0,32.000000
-29,9,55,1630284410.0,32.000000
-29,8,55,1630284410.0,32.000000
-29,8,55,1630284410.0,32.000000
-29,9,55,1630284410.0,32.000000
-29,9,55,1630284410.0,32.000000
-29,9,55,1630284410.0,32.000000
-29,9,55,1630284410.0,32.000000
-29,9,55,1630284410.0,32.000000
-30,9,55,1630284410.0,32.000000
-30,9,55,1630284410.0,32.000000
-30,9,55,1630284410.0,32.000000
-29,9,55,1630284410.0,32.000000
-29,9,55,1630284410.0,32.000000
-29,9,55,1630284410.0,32.000000
-30,9,55,1630284410.0,32.000000
-29,9,56,1630284410.0,32.000000
-29,9,55,1630284410.0,32.000000
-29,9,55,1630284410.0,32.000000
-29,9,55,1630284410.0,32.000000
-29,9,55,1630284410.0,32.000000
-29,9,55,1630284410.0,32.000000
-29,9,55,1630284410.0,32.000000
-29,9,55,1630284410.0,32.000000
-29,9,55,1630284410.0,32.000000
-29,9,55,1630284410.0,32.000000
-29,9,55,1630284410.0,32.000000
-29,9,55,1630284410.0,32.000000
-29,9,55,1630284410.0,32.000000
-29,9,55,1630284410.0,32.000000
-29,9,55,1630284410.0,32.000000
-29,9,55,1630284410.0,32.000000
-29,9,55,1630284410.0,32.000000
-29,9,55,1630284410.0,32.000000
-29,9,55,1630284410.0,32.000000
-29,9,55,1630284410.0,32.000000
-29,9,55,1630284410.0,32.000000
-29,9,55,1630284410.0,32.000000
-29,9,55,1630284410.0,32.000000
-29,9,55,1630284410.0,32.000000
-29,9,55,1630284410.0,32.000000
-29,9,55,1630284410.0,32.000000
-29,9,55,1630284410.0,32.000000
-29,9,55,1630284410.0,32.000000
-29,9,55,1630284410.0,32.000000
-29,9,55,1630284410.0,32.000000
-29,9,55,1630284410.0,32.000000
-29,9,55,1630284410.0,32.000000
-29,9,55,1630284410.0,32.000000
-29,9,55,1630284410.0,32.000000
-29,9,55,1630284410.0,32.000000
-29,9,55,1630284410.0,32.000000
-29,9,55,1630284410.0,32.000000
-30,9,55,1630284410.0,32.000000
-29,9,55,1630284410.0,32.000000
-29,9,55,1630284410.0,32.000000
-30,9,55,1630284410.0,32.000000
-29,9,55,1630284410.0,32.000000
-29,9,55,1630284410.0,32.000000
-29,9,55,1630284410.0,32.000000
-29,9,55,1630284410.0,32.000000
-29,9,55,1630284410.0,32.000000
-29,8,55,1630284410.0,32.000000
-29,8,55,1630284410.0,32.000000
-29,9,55,1630284410.0,32.000000
-29,9,55,1630284410.0,32.000000
-29,9,55,1630284410.0,32.000000
-29,9,55,1630284410.0,32.000000
-29,9,55,1630284410.0,32.000000
-29,9,55,1630284410.0,32.000000
-30,9,55,1630284410.0,32.000000
-29,9,55,1630284410.0,32.000000
-29,9,55,1630284410.0,32.000000
-30,9,55,1630284410.0,32.000000
-30,9,55,1630284410.0,32.000000
-30,9,55,1630284410.0,32.000000
-30,9,55,1630284410.0,32.000000
-29,9,55,1630284410.0,32.000000
-29,9,55,1630284410.0,32.000000
-30,9,55,1630284410.0,32.000000
-29,9,55,1630284410.0,32.000000
-29,8,55,1630284410.0,32.000000
-30,8,55,1630284410.0,32.000000
-30,8,55,1630284410.0,32.000000
-29,9,55,1630284410.0,32.000000
-29,9,55,1630284410.0,32.000000
-29,8,55,1630284410.0,32.000000
-29,9,55,1630284410.0,32.000000
-29,9,55,1630284410.0,32.000000
-30,9,55,1630284410.0,32.000000
-29,9,55,1630284410.0,32.000000
-29,9,55,1630284410.0,32.000000
-30,9,55,1630284410.0,32.000000
-30,9,55,1630284410.0,32.000000
-29,9,55,1630284410.0,32.000000
-29,9,55,1630284410.0,32.000000
-30,9,55,1630284410.0,32.000000
-29,9,55,1630284410.0,32.000000
-29,9,55,1630284410.0,32.000000
-29,9,55,1630284410.0,32.000000
-29,9,55,1630284410.0,32.000000
-30,9,55,1630284410.0,32.000000
-29,9,55,1630284410.0,32.000000
-29,9,55,1630284410.0,32.000000
-30,9,55,1630284410.0,32.000000
-29,9,55,1630284410.0,32.000000
-29,9,55,1630284410.0,32.000000
-30,9,55,1630284410.0,32.000000
-30,9,55,1630284410.0,32.000000
-29,9,55,1630284410.0,32.000000
-30,9,55,1630284410.0,32.000000
-30,9,55,1630284410.0,32.000000
-29,9,55,1630284410.0,32.000000
-29,9,55,1630284410.0,32.000000
-30,9,55,1630284410.0,32.000000
-29,9,55,1630284410.0,32.000000
-29,9,55,1630284410.0,32.000000
-30,9,55,1630284410.0,32.000000
-29,9,55,1630284410.0,32.000000
-29,9,55,1630284410.0,32.000000
-29,9,55,1630284410.0,32.000000
-29,9,55,1630284410.0,32.000000
-29,8,55,1630284410.0,32.000000
-29,9,55,1630284410.0,32.000000
-29,9,55,1630284410.0,32.000000
-29,9,55,1630284410.0,32.000000
-29,9,55,1630284410.0,32.000000
-29,9,55,1630284410.0,32.000000
-29,9,55,1630284410.0,32.000000
-29,9,55,1630284410.0,32.000000
-29,9,55,1630284410.0,32.000000
-29,9,55,1630284410.0,32.000000
-29,9,55,1630284410.0,32.000000
-29,9,55,1630284410.0,32.000000
-29,9,55,1630284410.0,32.000000
-30,9,55,1630284410.0,32.000000
-29,9,55,1630284410.0,32.000000
-29,9,55,1630284410.0,32.000000
-29,9,55,1630284410.0,32.000000
-29,9,55,1630284410.0,32.000000
-29,9,55,1630284410.0,32.000000
-29,9,55,1630284410.0,32.000000
-29,9,55,1630284410.0,32.000000
-30,9,55,1630284410.0,32.000000
-30,9,55,1630284410.0,32.000000
-29,9,55,1630284410.0,32.000000
-29,9,55,1630284410.0,32.000000
-29,9,55,1630284410.0,32.000000
-30,9,55,1630284410.0,32.000000
-29,9,55,1630284410.0,32.000000
-29,9,55,1630284410.0,32.000000
-30,9,55,1630284410.0,32.000000
-29,9,55,1630284410.0,32.000000
-29,9,55,1630284410.0,32.000000
-30,9,55,1630284410.0,32.000000
-29,9,55,1630284410.0,32.000000
-29,9,55,1630284410.0,32.000000
-30,9,55,1630284410.0,32.000000
-29,9,55,1630284410.0,32.000000
-29,9,55,1630284410.0,32.000000
-30,9,55,1630284410.0,32.000000
-29,9,55,1630284410.0,32.000000
-29,9,55,1630284410.0,32.000000
-29,9,55,1630284410.0,32.000000
-29,9,55,1630284410.0,32.000000
-29,9,55,1630284410.0,32.000000
-29,9,55,1630284410.0,32.000000
-29,9,55,1630284410.0,32.000000
-29,9,55,1630284410.0,32.000000
-30,9,55,1630284410.0,32.000000
-29,8,55,1630284410.0,32.000000
-29,9,55,1630284410.0,32.000000
-29,9,55,1630284410.0,32.000000
-30,9,55,1630284410.0,32.000000
-29,9,55,1630284410.0,32.000000
-29,9,55,1630284410.0,32.000000
-29,9,55,1630284410.0,32.000000
-30,9,55,1630284410.0,32.000000
-30,8,55,1630284410.0,32.000000
-29,9,55,1630284410.0,32.000000
-30,9,55,1630284410.0,32.000000
-29,9,55,1630284410.0,32.000000
-29,8,55,1630284410.0,32.000000
-29,8,55,1630284410.0,32.000000
-29,9,55,1630284410.0,32.000000
-29,9,55,1630284410.0,32.000000
-29,9,55,1630284410.0,32.000000
-30,9,55,1630284410.0,32.000000
-29,8,55,1630284410.0,32.000000
-29,8,55,1630284410.0,32.000000
-30,8,55,1630284410.0,32.000000
-29,8,55,1630284410.0,32.000000
-29,9,55,1630284410.0,32.000000
-30,8,55,1630284410.0,32.000000
-29,9,55,1630284410.0,32.000000
-29,8,55,1630284410.0,32.000000
-29,9,55,1630284410.0,32.000000
-30,9,55,1630284410.0,32.000000
-29,9,55,1630284410.0,32.000000
-29,9,55,1630284410.0,32.000000
-29,9,55,1630284410.0,32.000000
-29,9,55,1630284410.0,32.000000
-29,9,55,1630284410.0,32.000000
-29,9,55,1630284410.0,32.000000
-29,9,55,1630284410.0,32.000000
-29,9,55,1630284410.0,32.000000
-29,9,55,1630284410.0,32.000000
-29,9,55,1630284410.0,32.000000
-29,9,56,1630284410.0,32.000000
-29,9,55,1630284410.0,32.000000
-30,9,55,1630284410.0,32.000000
-29,9,55,1630284410.0,32.000000
-29,9,55,1630284410.0,32.000000
-29,9,55,1630284410.0,32.000000
-29,9,55,1630284410.0,32.000000
-29,9,55,1630284410.0,32.000000
-29,9,55,1630284410.0,32.000000
-29,9,55,1630284410.0,32.000000
-29,9,55,1630284410.0,32.000000
-29,9,55,1630284410.0,32.000000
-29,9,56,1630284410.0,32.000000
-29,9,55,1630284410.0,32.000000
-29,8,55,1630284410.0,32.000000
-29,9,55,1630284410.0,32.000000
-29,9,55,1630284410.0,32.000000
-29,9,55,1630284410.0,32.000000
-29,9,55,1630284410.0,32.000000
-29,9,55,1630284410.0,32.000000
-29,9,55,1630284410.0,32.000000
-29,9,55,1630284410.0,32.000000
-29,9,55,1630284410.0,32.000000
-30,9,55,1630284410.0,32.000000
-29,9,55,1630284410.0,32.000000
-29,9,55,1630284410.0,32.000000
-29,9,55,1630284410.0,32.000000
-29,9,55,1630284410.0,32.000000
-29,9,55,1630284410.0,32.000000
-29,9,55,1630284410.0,32.000000
-30,9,55,1630284410.0,32.000000
-29,9,55,1630284410.0,32.000000
-29,8,55,1630284410.0,32.000000
-29,8,56,1630284410.0,32.000000
-29,9,55,1630284410.0,32.000000
-29,9,55,1630284410.0,32.000000
-29,8,55,1630284410.0,32.000000
-29,9,55,1630284410.0,32.000000
-29,9,55,1630284410.0,32.000000
-29,9,55,1630284410.0,32.000000
-29,9,55,1630284410.0,32.000000
-29,9,55,1630284410.0,32.000000
-29,9,55,1630284410.0,32.000000
-29,9,55,1630284410.0,32.000000
-29,9,55,1630284410.0,32.000000
-29,9,55,1630284410.0,32.000000
-29,9,55,1630284410.0,32.000000
-29,9,55,1630284410.0,32.000000
-29,9,55,1630284410.0,32.000000
-29,9,55,1630284410.0,32.000000
-29,9,55,1630284410.0,32.000000
-29,9,55,1630284410.0,32.000000
-30,9,55,1630284410.0,32.000000
-29,9,55,1630284410.0,32.000000
-29,9,55,1630284410.0,32.000000
-30,9,55,1630284410.0,32.000000
-29,9,55,1630284410.0,32.000000
-29,9,55,1630284410.0,32.000000
-30,8,55,1630284410.0,32.000000
-29,8,55,1630284410.0,32.000000
-29,9,55,1630284410.0,32.000000
-29,8,55,1630284410.0,32.000000
-29,9,55,1630284410.0,32.000000
-29,9,55,1630284410.0,32.000000
-29,9,55,1630284410.0,32.000000
-29,9,55,1630284410.0,32.000000
-29,9,55,1630284410.0,32.000000
-29,9,55,1630284410.0,32.000000
-30,9,55,1630284410.0,32.000000
-29,9,55,1630284410.0,32.000000
-29,9,55,1630284410.0,32.000000
-29,9,55,1630284410.0,32.000000
-30,9,55,1630284410.0,32.000000
-29,9,55,1630284410.0,32.000000
-29,9,55,1630284410.0,32.000000
-30,8,55,1630284410.0,32.000000
-28,7,55,1630284410.0,32.000000
-28,8,57,1630284410.0,32.000000
-29,8,56,1630284410.0,32.000000
-28,7,56,1630284410.0,32.000000
-29,8,56,1630284410.0,32.000000
-29,8,56,1630284410.0,32.000000
-27,7,56,1630284410.0,32.000000
-28,8,55,1630284410.0,32.000000
-29,8,56,1630284410.0,32.000000
-29,8,56,1630284410.0,32.000000
-27,8,56,1630284410.0,32.000000
-30,8,55,1630284410.0,32.000000
-30,8,55,1630284410.0,32.000000
-30,8,55,1630284410.0,32.000000
-30,8,55,1630284410.0,32.000000
-30,8,55,1630284410.0,32.000000
-30,8,55,1630284410.0,32.000000
-30,8,55,1630284410.0,32.000000
-30,8,55,1630284410.0,32.000000
-30,8,55,1630284410.0,32.000000
-30,7,55,1630284410.0,32.000000
-30,8,55,1630284410.0,32.000000
-30,8,55,1630284410.0,32.000000
-30,8,55,1630284410.0,32.000000
-30,8,55,1630284410.0,32.000000
-30,8,55,1630284410.0,32.000000
-30,7,55,1630284410.0,32.000000
-30,8,55,1630284410.0,32.000000
-30,8,55,1630284410.0,32.000000
-30,8,55,1630284410.0,32.000000
-30,8,55,1630284410.0,32.000000
-30,8,55,1630284410.0,32.000000
-30,8,55,1630284410.0,32.000000
-29,8,55,1630284410.0,32.000000
-30,8,55,1630284410.0,32.000000
-31,8,55,1630284410.0,32.000000
-31,8,55,1630284410.0,32.000000
-31,8,55,1630284410.0,32.000000
-30,8,55,1630284410.0,32.000000
-31,8,55,1630284410.0,32.000000
-30,8,55,1630284410.0,32.000000
-31,8,55,1630284410.0,32.000000
-31,8,55,1630284410.0,32.000000
-31,8,54,1630284410.0,32.000000
-31,8,54,1630284410.0,32.000000
-31,8,55,1630284410.0,32.000000
-31,8,55,1630284410.0,32.000000
-31,8,55,1630284410.0,32.000000
-31,8,55,1630284410.0,32.000000
-31,8,54,1630284410.0,32.000000
-31,8,54,1630284410.0,32.000000
-31,8,55,1630284410.0,32.000000
-31,8,55,1630284410.0,32.000000
-31,8,54,1630284410.0,32.000000
-31,8,55,1630284410.0,32.000000
-31,8,55,1630284410.0,32.000000
-31,8,54,1630284410.0,32.000000
-30,8,54,1630284410.0,32.000000
-31,8,54,1630284410.0,32.000000
-31,8,55,1630284410.0,32.000000
-31,8,55,1630284410.0,32.000000
-31,8,55,1630284410.0,32.000000
-31,8,55,1630284410.0,32.000000
-31,8,55,1630284410.0,32.000000
-31,8,55,1630284410.0,32.000000
-31,8,55,1630284410.0,32.000000
-31,8,55,1630284410.0,32.000000
-31,8,55,1630284410.0,32.000000
-31,8,54,1630284410.0,32.000000
-31,8,54,1630284410.0,32.000000
-30,8,54,1630284410.0,32.000000
-31,8,55,1630284410.0,32.000000
-31,8,54,1630284410.0,32.000000
-31,8,55,1630284410.0,32.000000
-31,8,54,1630284410.0,32.000000
-31,8,54,1630284410.0,32.000000
-31,8,55,1630284410.0,32.000000
-31,8,54,1630284410.0,32.000000
-31,8,54,1630284410.0,32.000000
-31,8,54,1630284410.0,32.000000
-31,8,54,1630284410.0,32.000000
-31,8,54,1630284410.0,32.000000
-31,8,55,1630284410.0,32.000000
-31,8,54,1630284410.0,32.000000
-31,8,54,1630284410.0,32.000000
-31,8,54,1630284410.0,32.000000
-31,8,55,1630284410.0,32.000000
-31,8,54,1630284410.0,32.000000
-31,8,54,1630284410.0,32.000000
-31,8,55,1630284410.0,32.000000
-31,8,54,1630284410.0,32.000000
-31,8,54,1630284410.0,32.000000
-31,8,54,1630284410.0,32.000000
-31,8,54,1630284410.0,32.000000
-31,8,54,1630284410.0,32.000000
-31,7,54,1630284410.0,32.000000
-31,8,54,1630284410.0,32.000000
-31,8,54,1630284410.0,32.000000
-31,8,54,1630284410.0,32.000000
-31,8,54,1630284410.0,32.000000
-31,8,54,1630284410.0,32.000000
-31,8,54,1630284410.0,32.000000
-31,8,55,1630284410.0,32.000000
-31,7,54,1630284410.0,32.000000
-32,8,54,1630284410.0,32.000000
-31,8,54,1630284410.0,32.000000
-31,8,54,1630284410.0,32.000000
-31,8,55,1630284410.0,32.000000
-31,8,54,1630284410.0,32.000000
-31,8,54,1630284410.0,32.000000
-31,8,54,1630284410.0,32.000000
-31,8,54,1630284410.0,32.000000
-31,8,54,1630284410.0,32.000000
-31,8,54,1630284410.0,32.000000
-31,8,54,1630284410.0,32.000000
-31,8,54,1630284410.0,32.000000
-31,8,54,1630284410.0,32.000000
-31,8,55,1630284410.0,32.000000
-31,8,54,1630284410.0,32.000000
-31,8,54,1630284410.0,32.000000
-31,8,55,1630284410.0,32.000000
-31,8,54,1630284410.0,32.000000
-31,8,54,1630284410.0,32.000000
-31,8,55,1630284410.0,32.000000
-31,8,54,1630284410.0,32.000000
-31,8,54,1630284410.0,32.000000
-31,8,54,1630284410.0,32.000000
-31,8,54,1630284410.0,32.000000
-31,8,54,1630284410.0,32.000000
-31,8,54,1630284410.0,32.000000
-31,8,54,1630284410.0,32.000000
-31,8,54,1630284410.0,32.000000
-31,8,54,1630284410.0,32.000000
-31,8,55,1630284410.0,32.000000
-31,8,54,1630284410.0,32.000000
-31,8,54,1630284410.0,32.000000
-31,8,55,1630284410.0,32.000000
-31,8,54,1630284410.0,32.000000
-31,8,54,1630284410.0,32.000000
-31,8,55,1630284410.0,32.000000
-31,8,54,1630284410.0,32.000000
-31,7,54,1630284410.0,32.000000
-31,8,54,1630284410.0,32.000000
-31,8,55,1630284410.0,32.000000
-31,8,54,1630284410.0,32.000000
-31,8,54,1630284410.0,32.000000
-31,8,54,1630284410.0,32.000000
-31,8,55,1630284410.0,32.000000
-31,8,55,1630284410.0,32.000000
-31,8,54,1630284410.0,32.000000
-31,8,54,1630284410.0,32.000000
-31,8,54,1630284410.0,32.000000
-31,8,54,1630284410.0,32.000000
-31,8,54,1630284410.0,32.000000
-31,8,54,1630284410.0,32.000000
-31,8,54,1630284410.0,32.000000
-31,8,54,1630284410.0,32.000000
-31,8,54,1630284410.0,32.000000
-31,8,54,1630284410.0,32.000000
-31,8,54,1630284410.0,32.000000
-31,8,55,1630284410.0,32.000000
-31,8,54,1630284410.0,32.000000
-31,8,54,1630284410.0,32.000000
-31,8,54,1630284410.0,32.000000
-31,8,55,1630284410.0,32.000000
-31,8,54,1630284410.0,32.000000
-31,8,55,1630284410.0,32.000000
-31,8,55,1630284410.0,32.000000
-31,8,55,1630284410.0,32.000000
-31,8,54,1630284410.0,32.000000
-31,8,54,1630284410.0,32.000000
-31,8,55,1630284410.0,32.000000
-31,8,55,1630284410.0,32.000000
-31,8,54,1630284410.0,32.000000
-30,8,55,1630284410.0,32.000000
-31,8,54,1630284410.0,32.000000
-31,8,54,1630284410.0,32.000000
-31,8,54,1630284410.0,32.000000
-31,8,54,1630284410.0,32.000000
-31,8,54,1630284410.0,32.000000
-31,8,54,1630284410.0,32.000000
-31,8,54,1630284410.0,32.000000
-31,8,54,1630284410.0,32.000000
-31,8,55,1630284410.0,32.000000
-31,8,54,1630284410.0,32.000000
-31,8,54,1630284410.0,32.000000
-31,8,55,1630284410.0,32.000000
-31,8,54,1630284410.0,32.000000
-31,8,55,1630284410.0,32.000000
-31,8,54,1630284410.0,32.000000
-31,8,54,1630284410.0,32.000000
-31,8,55,1630284410.0,32.000000
-31,8,55,1630284410.0,32.000000
-31,8,54,1630284410.0,32.000000
-31,8,54,1630284410.0,32.000000
-31,8,54,1630284410.0,32.000000
-31,8,54,1630284410.0,32.000000
-31,8,54,1630284410.0,32.000000
-31,8,54,1630284410.0,32.000000
-32,8,54,1630284410.0,32.000000
-31,8,54,1630284410.0,32.000000
-32,8,54,1630284410.0,32.000000
-31,8,54,1630284410.0,32.000000
-31,8,54,1630284410.0,32.000000
-31,8,54,1630284410.0,32.000000
-31,8,54,1630284410.0,32.000000
-31,8,54,1630284410.0,32.000000
-31,8,54,1630284410.0,32.000000
-31,8,54,1630284410.0,32.000000
-31,8,54,1630284410.0,32.000000
-31,8,54,1630284410.0,32.000000
-31,8,54,1630284410.0,32.000000
-31,8,54,1630284410.0,32.000000
-31,8,54,1630284410.0,32.000000
-31,8,54,1630284410.0,32.000000
-31,8,54,1630284410.0,32.000000
-32,8,54,1630284410.0,32.000000
-31,8,54,1630284410.0,32.000000
-32,8,54,1630284410.0,32.000000
-31,8,54,1630284410.0,32.000000
-31,8,54,1630284410.0,32.000000
-31,8,54,1630284410.0,32.000000
-31,8,54,1630284410.0,32.000000
-31,8,54,1630284410.0,32.000000
-31,8,54,1630284410.0,32.000000
-32,8,54,1630284410.0,32.000000
-31,8,54,1630284410.0,32.000000
-31,8,54,1630284410.0,32.000000
-31,8,54,1630284410.0,32.000000
-31,8,54,1630284410.0,32.000000
-31,8,54,1630284410.0,32.000000
-32,8,54,1630284410.0,32.000000
-31,8,54,1630284410.0,32.000000
-31,8,54,1630284410.0,32.000000
-31,8,54,1630284410.0,32.000000
-31,8,54,1630284410.0,32.000000
-30,8,54,1630284410.0,32.000000
-31,8,54,1630284410.0,32.000000
-31,8,54,1630284410.0,32.000000
-31,8,55,1630284410.0,32.000000
-31,8,54,1630284410.0,32.000000
-31,9,54,1630284410.0,32.000000
-32,8,54,1630284410.0,32.000000
-32,8,54,1630284410.0,32.000000
-31,8,54,1630284410.0,32.000000
-32,8,54,1630284410.0,32.000000
-32,8,54,1630284410.0,32.000000
-31,8,54,1630284410.0,32.000000
-31,8,54,1630284410.0,32.000000
-32,8,54,1630284410.0,32.000000
-31,8,54,1630284410.0,32.000000
-31,8,54,1630284410.0,32.000000
-32,8,54,1630284410.0,32.000000
-31,8,54,1630284410.0,32.000000
-31,8,54,1630284410.0,32.000000
-32,8,54,1630284410.0,32.000000
-32,8,54,1630284410.0,32.000000
-32,8,54,1630284410.0,32.000000
-32,8,54,1630284410.0,32.000000
-31,8,54,1630284410.0,32.000000
-31,8,54,1630284410.0,32.000000
-32,8,54,1630284410.0,32.000000
-32,8,54,1630284410.0,32.000000
-31,8,54,1630284410.0,32.000000
-32,8,54,1630284410.0,32.000000
-31,8,54,1630284410.0,32.000000
-31,8,54,1630284410.0,32.000000
-32,8,54,1630284410.0,32.000000
-32,8,54,1630284410.0,32.000000
-31,8,54,1630284410.0,32.000000
-32,8,54,1630284410.0,32.000000
-32,8,54,1630284410.0,32.000000
-32,8,54,1630284410.0,32.000000
-32,8,54,1630284410.0,32.000000
-32,8,54,1630284410.0,32.000000
-32,8,54,1630284410.0,32.000000
-32,8,54,1630284410.0,32.000000
-32,8,54,1630284410.0,32.000000
-32,8,54,1630284410.0,32.000000
-32,8,54,1630284410.0,32.000000
-32,8,54,1630284410.0,32.000000
-32,8,54,1630284410.0,32.000000
-32,7,54,1630284410.0,32.000000
-32,8,54,1630284410.0,32.000000
-32,8,54,1630284410.0,32.000000
-32,8,54,1630284410.0,32.000000
-32,8,54,1630284410.0,32.000000
-32,8,54,1630284410.0,32.000000
-32,8,54,1630284410.0,32.000000
-32,8,54,1630284410.0,32.000000
-32,8,54,1630284410.0,32.000000
-32,8,54,1630284410.0,32.000000
-32,8,54,1630284410.0,32.000000
-32,8,54,1630284410.0,32.000000
-32,8,54,1630284410.0,32.000000
-32,8,54,1630284410.0,32.000000
-32,8,54,1630284410.0,32.000000
-32,8,54,1630284410.0,32.000000
-32,8,54,1630284410.0,32.000000
-32,8,54,1630284410.0,32.000000
-31,8,54,1630284410.0,32.000000
-32,8,54,1630284410.0,32.000000
-31,8,54,1630284410.0,32.000000
-32,8,54,1630284410.0,32.000000
-32,8,54,1630284410.0,32.000000
-32,8,54,1630284410.0,32.000000
-32,8,54,1630284410.0,32.000000
-32,8,54,1630284410.0,32.000000
-31,8,54,1630284410.0,32.000000
-32,8,54,1630284410.0,32.000000
-32,8,54,1630284410.0,32.000000
-32,8,54,1630284410.0,32.000000
-31,8,54,1630284410.0,32.000000
-32,8,54,1630284410.0,32.000000
-32,8,54,1630284410.0,32.000000
-31,8,54,1630284410.0,32.000000
-32,8,54,1630284410.0,32.000000
-32,8,54,1630284410.0,32.000000
-31,8,54,1630284410.0,32.000000
-32,8,54,1630284410.0,32.000000
-32,8,54,1630284410.0,32.000000
-32,8,54,1630284410.0,32.000000
-31,8,54,1630284410.0,32.000000
-32,8,54,1630284410.0,32.000000
-32,9,54,1630284410.0,32.000000
-31,8,54,1630284410.0,32.000000
-31,7,54,1630284410.0,32.000000
-32,8,54,1630284410.0,32.000000
-32,9,54,1630284410.0,32.000000
-32,8,54,1630284410.0,32.000000
-32,8,54,1630284410.0,32.000000
-32,8,54,1630284410.0,32.000000
-31,8,54,1630284410.0,32.000000
-32,8,54,1630284410.0,32.000000
-32,8,54,1630284410.0,32.000000
-31,8,54,1630284410.0,32.000000
-31,8,54,1630284410.0,32.000000
-31,8,54,1630284410.0,32.000000
-31,8,54,1630284410.0,32.000000
-32,8,54,1630284410.0,32.000000
-32,8,54,1630284410.0,32.000000
-32,8,54,1630284410.0,32.000000
-32,8,54,1630284410.0,32.000000
-32,8,54,1630284410.0,32.000000
-32,8,54,1630284410.0,32.000000
-32,8,54,1630284410.0,32.000000
-32,8,54,1630284410.0,32.000000
-32,8,54,1630284410.0,32.000000
-32,8,54,1630284410.0,32.000000
-32,8,54,1630284410.0,32.000000
-32,8,54,1630284410.0,32.000000
-32,8,54,1630284410.0,32.000000
-32,8,54,1630284410.0,32.000000
-32,8,54,1630284410.0,32.000000
-32,8,54,1630284410.0,32.000000
-32,8,54,1630284410.0,32.000000
-32,8,54,1630284410.0,32.000000
-32,8,54,1630284410.0,32.000000
-32,8,54,1630284410.0,32.000000
-32,8,54,1630284410.0,32.000000
-32,8,54,1630284410.0,32.000000
-32,8,54,1630284410.0,32.000000
-32,8,54,1630284410.0,32.000000
-32,8,54,1630284410.0,32.000000
-32,8,54,1630284410.0,32.000000
-32,8,54,1630284410.0,32.000000
-32,8,54,1630284410.0,32.000000
-32,8,54,1630284410.0,32.000000
-32,8,54,1630284410.0,32.000000
-32,8,54,1630284410.0,32.000000
-32,8,54,1630284410.0,32.000000
-32,8,54,1630284410.0,32.000000
-32,8,54,1630284410.0,32.000000
-32,8,54,1630284410.0,32.000000
-32,8,54,1630284410.0,32.000000
-32,8,54,1630284410.0,32.000000
-32,8,54,1630284410.0,32.000000
-32,8,54,1630284410.0,32.000000
-32,8,54,1630284410.0,32.000000
-32,8,54,1630284410.0,32.000000
-32,8,54,1630284410.0,32.000000
-32,8,54,1630284410.0,32.000000
-32,8,54,1630284410.0,32.000000
-32,8,54,1630284410.0,32.000000
-32,8,54,1630284410.0,32.000000
-32,8,53,1630284410.0,32.000000
-32,8,54,1630284410.0,32.000000
-31,8,54,1630284410.0,32.000000
-32,9,54,1630284410.0,32.000000
-32,9,54,1630284410.0,32.000000
-32,8,54,1630284410.0,32.000000
-32,8,54,1630284410.0,32.000000
-32,8,54,1630284410.0,32.000000
-32,8,54,1630284410.0,32.000000
-32,8,54,1630284410.0,32.000000
-32,8,54,1630284410.0,32.000000
-32,8,54,1630284410.0,32.000000
-32,8,54,1630284410.0,32.000000
-32,8,54,1630284410.0,32.000000
-32,8,54,1630284410.0,32.000000
-32,8,54,1630284410.0,32.000000
-32,8,54,1630284410.0,32.000000
-32,8,54,1630284410.0,32.000000
-32,8,54,1630284410.0,32.000000
-32,8,54,1630284410.0,32.000000
-32,8,53,1630284410.0,32.000000
-32,8,54,1630284410.0,32.000000
-32,8,54,1630284410.0,32.000000
-32,8,54,1630284410.0,32.000000
-32,8,54,1630284410.0,32.000000
-32,8,54,1630284410.0,32.000000
-32,8,54,1630284410.0,32.000000
-32,8,54,1630284410.0,32.000000
-32,8,54,1630284410.0,32.000000
-32,8,54,1630284410.0,32.000000
-31,7,54,1630284410.0,32.000000
-31,7,54,1630284410.0,32.000000
-32,8,54,1630284410.0,32.000000
-32,8,54,1630284410.0,32.000000
-32,8,54,1630284410.0,32.000000
-32,8,54,1630284410.0,32.000000
-32,8,54,1630284410.0,32.000000
-32,7,54,1630284410.0,32.000000
-32,8,54,1630284410.0,32.000000
-32,8,54,1630284410.0,32.000000
-32,8,54,1630284410.0,32.000000
-31,8,54,1630284410.0,32.000000
-32,8,54,1630284410.0,32.000000
-32,8,54,1630284410.0,32.000000
-32,8,54,1630284410.0,32.000000
-32,8,54,1630284410.0,32.000000
-32,8,54,1630284410.0,32.000000
-32,8,54,1630284410.0,32.000000
-32,8,54,1630284410.0,32.000000
-32,8,54,1630284410.0,32.000000
-32,8,54,1630284410.0,32.000000
-32,8,54,1630284410.0,32.000000
-31,8,54,1630284410.0,32.000000
-31,8,54,1630284410.0,32.000000
-31,8,54,1630284410.0,32.000000
-32,8,54,1630284410.0,32.000000
-32,8,54,1630284410.0,32.000000
-32,8,54,1630284410.0,32.000000
-32,7,54,1630284410.0,32.000000
-32,7,54,1630284410.0,32.000000
-32,7,54,1630284410.0,32.000000
-32,7,54,1630284410.0,32.000000
-32,8,54,1630284410.0,32.000000
-32,8,54,1630284410.0,32.000000
-32,8,54,1630284410.0,32.000000
-32,8,54,1630284410.0,32.000000
-32,8,54,1630284410.0,32.000000
-32,8,54,1630284410.0,32.000000
-32,8,54,1630284410.0,32.000000
-32,8,54,1630284410.0,32.000000
-32,8,54,1630284410.0,32.000000
-32,7,54,1630284410.0,32.000000
-32,8,54,1630284410.0,32.000000
-32,8,54,1630284410.0,32.000000
-32,8,54,1630284410.0,32.000000
-32,8,54,1630284410.0,32.000000
-32,8,54,1630284410.0,32.000000
-32,8,54,1630284410.0,32.000000
-32,8,53,1630284410.0,32.000000
-32,8,54,1630284410.0,32.000000
-32,8,54,1630284410.0,32.000000
-32,8,54,1630284410.0,32.000000
-32,8,54,1630284410.0,32.000000
-32,8,54,1630284410.0,32.000000
-32,8,54,1630284410.0,32.000000
-32,8,54,1630284410.0,32.000000
-32,8,54,1630284410.0,32.000000
-32,8,54,1630284410.0,32.000000
-32,8,54,1630284410.0,32.000000
-32,8,54,1630284410.0,32.000000
-32,7,54,1630284410.0,32.000000
-32,7,54,1630284410.0,32.000000
-32,8,54,1630284410.0,32.000000
-32,7,54,1630284410.0,32.000000
-32,8,54,1630284410.0,32.000000
-32,8,54,1630284410.0,32.000000
-32,7,54,1630284410.0,32.000000
-32,8,54,1630284410.0,32.000000
-32,8,54,1630284410.0,32.000000
-32,7,54,1630284410.0,32.000000
-32,7,54,1630284410.0,32.000000
-32,8,54,1630284410.0,32.000000
-33,7,54,1630284410.0,32.000000
-32,8,54,1630284410.0,32.000000
-32,8,54,1630284410.0,32.000000
-33,8,54,1630284410.0,32.000000
-32,8,54,1630284410.0,32.000000
-32,8,54,1630284410.0,32.000000
-32,8,54,1630284410.0,32.000000
-32,7,54,1630284410.0,32.000000
-33,8,54,1630284410.0,32.000000
-32,8,54,1630284410.0,32.000000
-32,7,54,1630284410.0,32.000000
-32,8,54,1630284410.0,32.000000
-32,7,54,1630284410.0,32.000000
-32,8,54,1630284410.0,32.000000
-32,8,54,1630284410.0,32.000000
-32,8,54,1630284410.0,32.000000
-32,8,54,1630284410.0,32.000000
-32,7,54,1630284410.0,32.000000
-32,8,54,1630284410.0,32.000000
-32,8,54,1630284410.0,32.000000
-32,7,54,1630284410.0,32.000000
-32,8,54,1630284410.0,32.000000
-32,8,54,1630284410.0,32.000000
-32,8,54,1630284410.0,32.000000
-32,7,54,1630284410.0,32.000000
-32,7,54,1630284410.0,32.000000
-32,8,54,1630284410.0,32.000000
-32,8,54,1630284410.0,32.000000
-32,8,54,1630284410.0,32.000000
-32,8,54,1630284410.0,32.000000
-32,8,54,1630284410.0,32.000000
-32,8,54,1630284410.0,32.000000
-32,8,54,1630284410.0,32.000000
-32,7,54,1630284410.0,32.000000
-32,8,54,1630284410.0,32.000000
-32,8,54,1630284410.0,32.000000
-32,8,54,1630284410.0,32.000000
-32,8,53,1630284410.0,32.000000
-32,8,54,1630284410.0,32.000000
-32,8,54,1630284410.0,32.000000
-32,8,54,1630284410.0,32.000000
-32,8,54,1630284410.0,32.000000
-32,8,54,1630284410.0,32.000000
-32,7,54,1630284410.0,32.000000
-32,7,54,1630284410.0,32.000000
-32,8,54,1630284410.0,32.000000
-32,8,54,1630284410.0,32.000000
-32,7,54,1630284410.0,32.000000
-32,8,54,1630284410.0,32.000000
-32,8,54,1630284410.0,32.000000
-32,8,54,1630284410.0,32.000000
-32,8,54,1630284410.0,32.000000
-32,8,54,1630284410.0,32.000000
-32,8,54,1630284410.0,32.000000
-32,8,54,1630284410.0,32.000000
-32,8,54,1630284410.0,32.000000
-32,8,54,1630284410.0,32.000000
-32,8,54,1630284410.0,32.000000
-32,7,54,1630284410.0,32.000000
-32,8,54,1630284410.0,32.000000
-32,8,54,1630284410.0,32.000000
-32,8,54,1630284410.0,32.000000
-32,8,53,1630284410.0,32.000000
-32,8,54,1630284410.0,32.000000
-32,7,54,1630284410.0,32.000000
-32,8,54,1630284410.0,32.000000
-32,8,54,1630284410.0,32.000000
-32,8,54,1630284410.0,32.000000
-32,8,54,1630284410.0,32.000000
-32,8,54,1630284410.0,32.000000
-32,8,54,1630284410.0,32.000000
-32,8,54,1630284410.0,32.000000
-32,8,54,1630284410.0,32.000000
-32,8,54,1630284410.0,32.000000
-32,8,54,1630284410.0,32.000000
-32,8,54,1630284410.0,32.000000
-32,8,54,1630284410.0,32.000000
-32,8,54,1630284410.0,32.000000
-32,8,54,1630284410.0,32.000000
-32,7,54,1630284410.0,32.000000
-32,8,54,1630284410.0,32.000000
-32,8,54,1630284410.0,32.000000
-32,8,54,1630284410.0,32.000000
-32,7,54,1630284410.0,32.000000
-32,8,54,1630284410.0,32.000000
-32,8,54,1630284410.0,32.000000
-32,8,54,1630284410.0,32.000000
-32,8,54,1630284410.0,32.000000
-32,8,54,1630284410.0,32.000000
-32,8,54,1630284410.0,32.000000
-32,7,54,1630284410.0,32.000000
-32,8,54,1630284410.0,32.000000
-32,8,54,1630284410.0,32.000000
-32,8,54,1630284410.0,32.000000
-32,7,54,1630284410.0,32.000000
-32,7,54,1630284410.0,32.000000
-32,7,54,1630284410.0,32.000000
-32,8,54,1630284410.0,32.000000
-32,7,54,1630284410.0,32.000000
-32,7,54,1630284410.0,32.000000
-32,7,54,1630284410.0,32.000000
-32,8,54,1630284410.0,32.000000
-32,8,54,1630284410.0,32.000000
-32,7,54,1630284410.0,32.000000
-32,7,54,1630284410.0,32.000000
-32,8,54,1630284410.0,32.000000
-32,7,54,1630284410.0,32.000000
-32,8,54,1630284410.0,32.000000
-32,7,54,1630284410.0,32.000000
-32,7,54,1630284410.0,32.000000
-32,7,54,1630284410.0,32.000000
-33,7,54,1630284410.0,32.000000
-33,7,54,1630284410.0,32.000000
-32,7,54,1630284410.0,32.000000
-32,7,54,1630284410.0,32.000000
-32,7,54,1630284410.0,32.000000
-32,8,54,1630284410.0,32.000000
-32,8,54,1630284410.0,32.000000
-32,7,54,1630284410.0,32.000000
-32,8,54,1630284410.0,32.000000
-32,8,54,1630284410.0,32.000000
-32,7,54,1630284410.0,32.000000
-32,7,54,1630284410.0,32.000000
-32,8,54,1630284410.0,32.000000
-32,7,54,1630284410.0,32.000000
-32,7,54,1630284410.0,32.000000
-32,7,54,1630284410.0,32.000000
-32,7,54,1630284410.0,32.000000
-32,7,54,1630284410.0,32.000000
-32,7,54,1630284410.0,32.000000
-32,7,54,1630284410.0,32.000000
-32,7,54,1630284410.0,32.000000
-32,7,54,1630284410.0,32.000000
-32,8,54,1630284410.0,32.000000
-32,7,54,1630284410.0,32.000000
-32,7,54,1630284410.0,32.000000
-32,7,54,1630284410.0,32.000000
-32,8,54,1630284410.0,32.000000
-32,7,54,1630284410.0,32.000000
-32,7,54,1630284410.0,32.000000
-32,8,54,1630284410.0,32.000000
-32,7,54,1630284410.0,32.000000
-32,7,54,1630284410.0,32.000000
-32,7,54,1630284410.0,32.000000
-32,8,54,1630284410.0,32.000000
-32,8,54,1630284410.0,32.000000
-32,7,54,1630284410.0,32.000000
-32,7,54,1630284410.0,32.000000
-32,7,54,1630284410.0,32.000000
-32,8,54,1630284410.0,32.000000
-32,8,54,1630284410.0,32.000000
-32,8,54,1630284410.0,32.000000
-32,7,54,1630284410.0,32.000000
-32,7,54,1630284410.0,32.000000
-32,7,54,1630284410.0,32.000000
-32,7,54,1630284410.0,32.000000
-32,7,54,1630284410.0,32.000000
-32,8,54,1630284410.0,32.000000
-32,7,54,1630284410.0,32.000000
-32,7,54,1630284410.0,32.000000
-32,8,54,1630284410.0,32.000000
-32,7,54,1630284410.0,32.000000
-32,7,54,1630284410.0,32.000000
-32,7,54,1630284410.0,32.000000
-32,7,54,1630284410.0,32.000000
-32,8,54,1630284410.0,32.000000
-32,7,54,1630284410.0,32.000000
-32,7,54,1630284410.0,32.000000
-32,8,54,1630284410.0,32.000000
-32,7,54,1630284410.0,32.000000
-32,8,54,1630284410.0,32.000000
-32,7,54,1630284410.0,32.000000
-32,8,54,1630284410.0,32.000000
-32,7,54,1630284410.0,32.000000
-32,8,54,1630284410.0,32.000000
-32,8,54,1630284410.0,32.000000
-32,7,54,1630284410.0,32.000000
-32,8,54,1630284410.0,32.000000
-32,8,54,1630284410.0,32.000000
-32,8,54,1630284410.0,32.000000
-32,8,54,1630284410.0,32.000000
-32,7,54,1630284410.0,32.000000
-32,8,54,1630284410.0,32.000000
-32,7,53,1630284410.0,32.000000
-32,8,54,1630284410.0,32.000000
-32,8,54,1630284410.0,32.000000
-32,8,54,1630284410.0,32.000000
-32,8,54,1630284410.0,32.000000
-32,8,54,1630284410.0,32.000000
-32,8,54,1630284410.0,32.000000
-32,7,54,1630284410.0,32.000000
-32,7,54,1630284410.0,32.000000
-32,7,54,1630284410.0,32.000000
-32,8,54,1630284410.0,32.000000
-32,8,54,1630284410.0,32.000000
-32,8,54,1630284410.0,32.000000
-32,7,54,1630284410.0,32.000000
-32,8,54,1630284410.0,32.000000
-32,8,54,1630284410.0,32.000000
-32,8,54,1630284410.0,32.000000
-32,8,54,1630284410.0,32.000000
-32,8,54,1630284410.0,32.000000
-33,8,54,1630284410.0,32.000000
-32,8,54,1630284410.0,32.000000
-32,8,54,1630284410.0,32.000000
-33,8,54,1630284410.0,32.000000
