ACC_X,ACC_Y,ACC_Z,start_time_unix,sampling_rate
-22,-19,46,1630317320.0,32.000000
-12,-29,37,1630317320.0,32.000000
-8,-33,34,1630317320.0,32.000000
-2,-39,32,1630317320.0,32.000000
-1,-39,34,1630317320.0,32.000000
2,-40,41,1630317320.0,32.000000
6,-44,42,1630317320.0,32.000000
6,-43,43,1630317320.0,32.000000
-10,-41,40,1630317320.0,32.000000
-2,-40,49,1630317320.0,32.000000
-2,-41,57,1630317320.0,32.000000
-12,-43,50,1630317320.0,32.000000
-10,-44,51,1630317320.0,32.000000
-2,-41,55,1630317320.0,32.000000
0,-40,57,1630317320.0,32.000000
-6,-41,49,1630317320.0,32.000000
-13,-39,37,1630317320.0,32.000000
-9,-35,42,1630317320.0,32.000000
-8,-34,56,1630317320.0,32.000000
-8,-33,59,1630317320.0,32.000000
-15,-33,54,1630317320.0,32.000000
-16,-34,57,1630317320.0,32.000000
-16,-35,57,1630317320.0,32.000000
-17,-35,53,1630317320.0,32.000000
-18,-36,51,1630317320.0,32.000000
-16,-35,52,1630317320.0,32.000000
-17,-35,52,1630317320.0,32.000000
-15,-35,51,1630317320.0,32.000000
-16,-34,50,1630317320.0,32.000000
-17,-34,51,1630317320.0,32.000000
-16,-34,52,1630317320.0,32.000000
-17,-34,52,1630317320.0,32.000000
-18,-34,53,1630317320.0,32.000000
-19,-34,52,1630317320.0,32.000000
-19,-34,52,1630317320.0,32.000000
-18,-34,52,1630317320.0,32.000000
-19,-34,53,1630317320.0,32.000000
-20,-34,52,1630317320.0,32.000000
-19,-34,53,1630317320.0,32.000000
-19,-34,53,1630317320.0,32.000000
-20,-34,53,1630317320.0,32.000000
-19,-34,52,1630317320.0,32.000000
-20,-34,52,1630317320.0,32.000000
-20,-34,51,1630317320.0,32.000000
-20,-33,51,1630317320.0,32.000000
-20,-33,51,1630317320.0,32.000000
-20,-33,52,1630317320.0,32.000000
-19,-33,51,1630317320.0,32.000000
-19,-33,52,1630317320.0,32.000000
-19,-33,52,1630317320.0,32.000000
-19,-33,50,1630317320.0,32.000000
-19,-33,50,1630317320.0,32.000000
-19,-33,50,1630317320.0,32.000000
-19,-32,49,1630317320.0,32.000000
-20,-32,48,1630317320.0,32.000000
-20,-31,48,1630317320.0,32.000000
-20,-31,47,1630317320.0,32.000000
-20,-30,47,1630317320.0,32.000000
-21,-31,46,1630317320.0,32.000000
-23,-31,46,1630317320.0,32.000000
-23,-31,46,1630317320.0,32.000000
-24,-31,47,1630317320.0,32.000000
-24,-30,47,1630317320.0,32.000000
-25,-29,47,1630317320.0,32.000000
-30,-29,47,1630317320.0,32.000000
-33,-27,50,1630317320.0,32.000000
-35,-27,51,1630317320.0,32.000000
-39,-26,48,1630317320.0,32.000000
-37,-26,47,1630317320.0,32.000000
-37,-24,48,1630317320.0,32.000000
-45,-21,44,1630317320.0,32.000000
-43,-21,44,1630317320.0,32.000000
-47,-18,47,1630317320.0,32.000000
-50,-17,49,1630317320.0,32.000000
-52,-15,55,1630317320.0,32.000000
-50,-15,56,1630317320.0,32.000000
-49,-15,53,1630317320.0,32.000000
-42,-16,49,1630317320.0,32.000000
-40,-15,48,1630317320.0,32.000000
-38,-13,49,1630317320.0,32.000000
-41,-11,51,1630317320.0,32.000000
-44,-10,52,1630317320.0,32.000000
-48,-9,50,1630317320.0,32.000000
-48,-9,47,1630317320.0,32.000000
-49,-10,47,1630317320.0,32.000000
-48,-10,46,1630317320.0,32.000000
-46,-10,46,1630317320.0,32.000000
-46,-10,47,1630317320.0,32.000000
-44,-10,48,1630317320.0,32.000000
-44,-11,47,1630317320.0,32.000000
-43,-12,48,1630317320.0,32.000000
-43,-12,48,1630317320.0,32.000000
-43,-12,48,1630317320.0,32.000000
-43,-11,48,1630317320.0,32.000000
-43,-10,48,1630317320.0,32.000000
-43,-10,48,1630317320.0,32.000000
-43,-10,48,1630317320.0,32.000000
-44,-10,48,1630317320.0,32.000000
-44,-10,48,1630317320.0,32.000000
-43,-10,48,1630317320.0,32.000000
-43,-10,48,1630317320.0,32.000000
-43,-9,49,1630317320.0,32.000000
-44,-8,50,1630317320.0,32.000000
-45,-7,50,1630317320.0,32.000000
-46,-6,50,1630317320.0,32.000000
-47,-6,48,1630317320.0,32.000000
-44,-8,49,1630317320.0,32.000000
-44,-8,49,1630317320.0,32.000000
-42,-9,49,1630317320.0,32.000000
-42,-9,49,1630317320.0,32.000000
-41,-9,49,1630317320.0,32.000000
-41,-10,49,1630317320.0,32.000000
-41,-10,49,1630317320.0,32.000000
-41,-10,49,1630317320.0,32.000000
-41,-11,49,1630317320.0,32.000000
-41,-11,49,1630317320.0,32.000000
-42,-10,50,1630317320.0,32.000000
-43,-9,50,1630317320.0,32.000000
-43,-8,50,1630317320.0,32.000000
-43,-9,50,1630317320.0,32.000000
-42,-9,49,1630317320.0,32.000000
-42,-10,49,1630317320.0,32.000000
-43,-9,49,1630317320.0,32.000000
-43,-8,50,1630317320.0,32.000000
-43,-8,49,1630317320.0,32.000000
-43,-9,50,1630317320.0,32.000000
-44,-10,49,1630317320.0,32.000000
-43,-10,49,1630317320.0,32.000000
-42,-10,49,1630317320.0,32.000000
-44,-10,48,1630317320.0,32.000000
-43,-10,49,1630317320.0,32.000000
-44,-10,49,1630317320.0,32.000000
-44,-9,49,1630317320.0,32.000000
-44,-10,49,1630317320.0,32.000000
-44,-10,49,1630317320.0,32.000000
-43,-10,48,1630317320.0,32.000000
-43,-12,47,1630317320.0,32.000000
-43,-12,47,1630317320.0,32.000000
-43,-12,47,1630317320.0,32.000000
-44,-11,48,1630317320.0,32.000000
-44,-10,48,1630317320.0,32.000000
-46,-10,48,1630317320.0,32.000000
-45,-11,48,1630317320.0,32.000000
-44,-11,48,1630317320.0,32.000000
-43,-11,48,1630317320.0,32.000000
-43,-11,48,1630317320.0,32.000000
-43,-10,48,1630317320.0,32.000000
-43,-10,49,1630317320.0,32.000000
-44,-10,48,1630317320.0,32.000000
-44,-10,48,1630317320.0,32.000000
-44,-11,47,1630317320.0,32.000000
-44,-11,48,1630317320.0,32.000000
-43,-11,46,1630317320.0,32.000000
-43,-10,48,1630317320.0,32.000000
-44,-11,48,1630317320.0,32.000000
-44,-10,48,1630317320.0,32.000000
-44,-10,48,1630317320.0,32.000000
-44,-11,48,1630317320.0,32.000000
-44,-10,48,1630317320.0,32.000000
-44,-10,48,1630317320.0,32.000000
-44,-10,48,1630317320.0,32.000000
-44,-10,48,1630317320.0,32.000000
-44,-10,48,1630317320.0,32.000000
-44,-10,48,1630317320.0,32.000000
-43,-10,49,1630317320.0,32.000000
-44,-8,54,1630317320.0,32.000000
-45,-10,47,1630317320.0,32.000000
-44,-10,48,1630317320.0,32.000000
-44,-10,48,1630317320.0,32.000000
-44,-10,48,1630317320.0,32.000000
-44,-10,49,1630317320.0,32.000000
-44,-9,49,1630317320.0,32.000000
-43,-9,49,1630317320.0,32.000000
-43,-9,49,1630317320.0,32.000000
-44,-10,48,1630317320.0,32.000000
-43,-10,49,1630317320.0,32.000000
-44,-10,48,1630317320.0,32.000000
-43,-10,49,1630317320.0,32.000000
-44,-10,48,1630317320.0,32.000000
-44,-10,48,1630317320.0,32.000000
-44,-10,49,1630317320.0,32.000000
-44,-10,47,1630317320.0,32.000000
-44,-10,48,1630317320.0,32.000000
-44,-10,49,1630317320.0,32.000000
-44,-10,48,1630317320.0,32.000000
-44,-10,48,1630317320.0,32.000000
-44,-10,48,1630317320.0,32.000000
-45,-10,47,1630317320.0,32.000000
-44,-10,48,1630317320.0,32.000000
-44,-11,48,1630317320.0,32.000000
-45,-10,47,1630317320.0,32.000000
-44,-10,47,1630317320.0,32.000000
-45,-10,48,1630317320.0,32.000000
-44,-10,48,1630317320.0,32.000000
-44,-11,48,1630317320.0,32.000000
-44,-10,48,1630317320.0,32.000000
-44,-10,48,1630317320.0,32.000000
-45,-10,48,1630317320.0,32.000000
-44,-10,48,1630317320.0,32.000000
-44,-10,48,1630317320.0,32.000000
-44,-10,48,1630317320.0,32.000000
-44,-10,48,1630317320.0,32.000000
-44,-10,48,1630317320.0,32.000000
-44,-10,48,1630317320.0,32.000000
-44,-10,48,1630317320.0,32.000000
-43,-10,48,1630317320.0,32.000000
-44,-10,48,1630317320.0,32.000000
-44,-10,48,1630317320.0,32.000000
-44,-11,48,1630317320.0,32.000000
-44,-11,47,1630317320.0,32.000000
-45,-11,47,1630317320.0,32.000000
-44,-11,47,1630317320.0,32.000000
-44,-11,48,1630317320.0,32.000000
-45,-11,47,1630317320.0,32.000000
-44,-11,47,1630317320.0,32.000000
-44,-11,47,1630317320.0,32.000000
-43,-11,47,1630317320.0,32.000000
-45,-11,47,1630317320.0,32.000000
-45,-11,47,1630317320.0,32.000000
-44,-11,47,1630317320.0,32.000000
-45,-8,48,1630317320.0,32.000000
-46,-8,48,1630317320.0,32.000000
-45,-9,48,1630317320.0,32.000000
-45,-9,48,1630317320.0,32.000000
-44,-9,47,1630317320.0,32.000000
-44,-9,48,1630317320.0,32.000000
-44,-9,48,1630317320.0,32.000000
-44,-8,48,1630317320.0,32.000000
-42,-10,45,1630317320.0,32.000000
-43,-4,52,1630317320.0,32.000000
-45,-7,49,1630317320.0,32.000000
-45,-8,48,1630317320.0,32.000000
-44,-7,49,1630317320.0,32.000000
-45,-8,48,1630317320.0,32.000000
-45,-7,49,1630317320.0,32.000000
-44,-7,48,1630317320.0,32.000000
-45,-8,46,1630317320.0,32.000000
-44,-9,48,1630317320.0,32.000000
-45,-9,47,1630317320.0,32.000000
-44,-8,48,1630317320.0,32.000000
-44,-7,50,1630317320.0,32.000000
-44,-7,48,1630317320.0,32.000000
-42,-6,51,1630317320.0,32.000000
-43,-5,51,1630317320.0,32.000000
-43,-4,51,1630317320.0,32.000000
-42,-5,50,1630317320.0,32.000000
-43,-7,49,1630317320.0,32.000000
-43,-10,48,1630317320.0,32.000000
-44,-11,47,1630317320.0,32.000000
-44,-7,49,1630317320.0,32.000000
-45,-4,50,1630317320.0,32.000000
-44,-4,51,1630317320.0,32.000000
-42,-6,49,1630317320.0,32.000000
-42,-6,50,1630317320.0,32.000000
-41,-6,50,1630317320.0,32.000000
-41,-6,50,1630317320.0,32.000000
-44,-4,50,1630317320.0,32.000000
-44,-3,49,1630317320.0,32.000000
-44,-2,49,1630317320.0,32.000000
-43,0,51,1630317320.0,32.000000
-43,1,52,1630317320.0,32.000000
-40,2,54,1630317320.0,32.000000
-40,0,52,1630317320.0,32.000000
-40,0,53,1630317320.0,32.000000
-41,-3,51,1630317320.0,32.000000
-42,-2,51,1630317320.0,32.000000
-43,-1,50,1630317320.0,32.000000
-42,1,52,1630317320.0,32.000000
-42,1,53,1630317320.0,32.000000
-41,0,52,1630317320.0,32.000000
-41,-2,51,1630317320.0,32.000000
-40,-4,51,1630317320.0,32.000000
-43,-2,51,1630317320.0,32.000000
-44,-1,51,1630317320.0,32.000000
-41,-7,44,1630317320.0,32.000000
-38,2,61,1630317320.0,32.000000
-36,-3,52,1630317320.0,32.000000
-39,-2,52,1630317320.0,32.000000
-41,-2,52,1630317320.0,32.000000
-45,-3,48,1630317320.0,32.000000
-44,-3,49,1630317320.0,32.000000
-46,-6,47,1630317320.0,32.000000
-43,-4,49,1630317320.0,32.000000
-41,-3,51,1630317320.0,32.000000
-40,1,55,1630317320.0,32.000000
-40,2,55,1630317320.0,32.000000
-44,2,55,1630317320.0,32.000000
-44,1,56,1630317320.0,32.000000
-42,-6,59,1630317320.0,32.000000
-88,3,69,1630317320.0,32.000000
-87,3,62,1630317320.0,32.000000
-75,-7,27,1630317320.0,32.000000
-58,-12,0,1630317320.0,32.000000
-34,-60,-73,1630317320.0,32.000000
-36,-59,-72,1630317320.0,32.000000
-42,-47,-62,1630317320.0,32.000000
-40,-25,-31,1630317320.0,32.000000
-45,-14,-19,1630317320.0,32.000000
-38,-9,15,1630317320.0,32.000000
-38,-16,34,1630317320.0,32.000000
-43,-19,36,1630317320.0,32.000000
-71,-22,26,1630317320.0,32.000000
-77,-25,22,1630317320.0,32.000000
-78,-29,15,1630317320.0,32.000000
-77,-32,3,1630317320.0,32.000000
-63,-34,-3,1630317320.0,32.000000
-25,-43,-14,1630317320.0,32.000000
-11,-52,-16,1630317320.0,32.000000
0,-67,-13,1630317320.0,32.000000
-4,-66,-1,1630317320.0,32.000000
-10,-59,9,1630317320.0,32.000000
4,-49,36,1630317320.0,32.000000
-8,-37,44,1630317320.0,32.000000
-35,-26,36,1630317320.0,32.000000
-35,-28,32,1630317320.0,32.000000
-46,-24,30,1630317320.0,32.000000
-56,-21,35,1630317320.0,32.000000
-56,-20,41,1630317320.0,32.000000
-59,-16,43,1630317320.0,32.000000
-58,-17,47,1630317320.0,32.000000
-59,-18,50,1630317320.0,32.000000
-59,-19,56,1630317320.0,32.000000
-59,-18,56,1630317320.0,32.000000
-51,-18,53,1630317320.0,32.000000
-47,-17,50,1630317320.0,32.000000
-41,-17,44,1630317320.0,32.000000
-44,-14,46,1630317320.0,32.000000
-45,-10,48,1630317320.0,32.000000
-51,-9,45,1630317320.0,32.000000
-58,-9,46,1630317320.0,32.000000
-49,-8,45,1630317320.0,32.000000
-50,-9,45,1630317320.0,32.000000
-49,-9,45,1630317320.0,32.000000
-48,-9,45,1630317320.0,32.000000
-47,-10,45,1630317320.0,32.000000
-47,-11,44,1630317320.0,32.000000
-47,-12,44,1630317320.0,32.000000
-46,-11,44,1630317320.0,32.000000
-47,-11,46,1630317320.0,32.000000
-46,-11,47,1630317320.0,32.000000
-47,-11,46,1630317320.0,32.000000
-44,-10,49,1630317320.0,32.000000
-45,-9,50,1630317320.0,32.000000
-45,-7,48,1630317320.0,32.000000
-43,-7,49,1630317320.0,32.000000
-44,-7,48,1630317320.0,32.000000
-44,-10,48,1630317320.0,32.000000
-44,-10,48,1630317320.0,32.000000
-44,-10,48,1630317320.0,32.000000
-44,-9,48,1630317320.0,32.000000
-45,-7,49,1630317320.0,32.000000
-44,-6,49,1630317320.0,32.000000
-44,-8,47,1630317320.0,32.000000
-43,-11,48,1630317320.0,32.000000
-44,-11,47,1630317320.0,32.000000
-43,-11,47,1630317320.0,32.000000
-44,-10,48,1630317320.0,32.000000
-44,-8,49,1630317320.0,32.000000
-44,-8,49,1630317320.0,32.000000
-44,-9,49,1630317320.0,32.000000
-43,-11,48,1630317320.0,32.000000
-43,-11,48,1630317320.0,32.000000
-44,-10,48,1630317320.0,32.000000
-44,-10,48,1630317320.0,32.000000
-44,-10,48,1630317320.0,32.000000
-44,-11,48,1630317320.0,32.000000
-44,-11,48,1630317320.0,32.000000
-44,-11,47,1630317320.0,32.000000
-44,-10,48,1630317320.0,32.000000
-45,-10,48,1630317320.0,32.000000
-44,-10,48,1630317320.0,32.000000
-44,-10,48,1630317320.0,32.000000
-44,-10,49,1630317320.0,32.000000
-44,-10,49,1630317320.0,32.000000
-43,-10,49,1630317320.0,32.000000
-44,-11,48,1630317320.0,32.000000
-44,-11,48,1630317320.0,32.000000
-44,-11,47,1630317320.0,32.000000
-44,-11,48,1630317320.0,32.000000
-44,-10,49,1630317320.0,32.000000
-43,-11,49,1630317320.0,32.000000
-43,-11,48,1630317320.0,32.000000
-44,-11,49,1630317320.0,32.000000
-43,-10,49,1630317320.0,32.000000
-43,-11,48,1630317320.0,32.000000
-44,-11,48,1630317320.0,32.000000
-43,-11,48,1630317320.0,32.000000
-45,-11,47,1630317320.0,32.000000
-45,-11,47,1630317320.0,32.000000
-45,-11,47,1630317320.0,32.000000
-45,-11,48,1630317320.0,32.000000
-44,-10,47,1630317320.0,32.000000
-44,-11,48,1630317320.0,32.000000
-44,-11,48,1630317320.0,32.000000
-44,-11,47,1630317320.0,32.000000
-45,-11,47,1630317320.0,32.000000
-45,-11,48,1630317320.0,32.000000
-44,-11,48,1630317320.0,32.000000
-44,-10,48,1630317320.0,32.000000
-44,-11,48,1630317320.0,32.000000
-44,-11,48,1630317320.0,32.000000
-44,-11,47,1630317320.0,32.000000
-45,-11,47,1630317320.0,32.000000
-44,-11,47,1630317320.0,32.000000
-45,-11,47,1630317320.0,32.000000
-44,-11,48,1630317320.0,32.000000
-44,-10,48,1630317320.0,32.000000
-44,-10,48,1630317320.0,32.000000
-44,-10,48,1630317320.0,32.000000
-45,-10,47,1630317320.0,32.000000
-45,-11,47,1630317320.0,32.000000
-45,-10,47,1630317320.0,32.000000
-45,-10,48,1630317320.0,32.000000
-45,-10,48,1630317320.0,32.000000
-43,-11,46,1630317320.0,32.000000
-44,-11,46,1630317320.0,32.000000
-43,-12,45,1630317320.0,32.000000
-43,-7,52,1630317320.0,32.000000
-44,-10,48,1630317320.0,32.000000
-44,-10,48,1630317320.0,32.000000
-45,-9,48,1630317320.0,32.000000
-44,-11,48,1630317320.0,32.000000
-44,-11,46,1630317320.0,32.000000
-44,-11,46,1630317320.0,32.000000
-44,-11,48,1630317320.0,32.000000
-45,-10,48,1630317320.0,32.000000
-45,-10,48,1630317320.0,32.000000
-45,-10,48,1630317320.0,32.000000
-44,-10,48,1630317320.0,32.000000
-44,-11,47,1630317320.0,32.000000
-44,-11,47,1630317320.0,32.000000
-44,-11,47,1630317320.0,32.000000
-45,-11,47,1630317320.0,32.000000
-45,-11,47,1630317320.0,32.000000
-45,-10,47,1630317320.0,32.000000
-45,-10,47,1630317320.0,32.000000
-45,-10,47,1630317320.0,32.000000
-44,-11,48,1630317320.0,32.000000
-45,-10,48,1630317320.0,32.000000
-44,-11,48,1630317320.0,32.000000
-44,-11,48,1630317320.0,32.000000
-44,-10,48,1630317320.0,32.000000
-44,-10,48,1630317320.0,32.000000
-44,-10,48,1630317320.0,32.000000
-44,-10,48,1630317320.0,32.000000
-44,-10,48,1630317320.0,32.000000
-44,-10,48,1630317320.0,32.000000
-45,-11,47,1630317320.0,32.000000
-45,-11,47,1630317320.0,32.000000
-45,-11,48,1630317320.0,32.000000
-44,-10,47,1630317320.0,32.000000
-45,-10,47,1630317320.0,32.000000
-45,-10,47,1630317320.0,32.000000
-45,-10,48,1630317320.0,32.000000
-44,-10,48,1630317320.0,32.000000
-44,-10,48,1630317320.0,32.000000
-45,-10,47,1630317320.0,32.000000
-44,-11,48,1630317320.0,32.000000
-44,-11,47,1630317320.0,32.000000
-45,-10,47,1630317320.0,32.000000
-44,-10,48,1630317320.0,32.000000
-45,-10,47,1630317320.0,32.000000
-45,-10,47,1630317320.0,32.000000
-46,-10,47,1630317320.0,32.000000
-44,-11,48,1630317320.0,32.000000
-44,-10,47,1630317320.0,32.000000
-45,-10,47,1630317320.0,32.000000
-45,-10,47,1630317320.0,32.000000
-45,-11,47,1630317320.0,32.000000
-45,-11,47,1630317320.0,32.000000
-44,-10,48,1630317320.0,32.000000
-45,-10,47,1630317320.0,32.000000
-45,-10,47,1630317320.0,32.000000
-45,-11,47,1630317320.0,32.000000
-46,-10,47,1630317320.0,32.000000
-44,-11,47,1630317320.0,32.000000
-45,-10,47,1630317320.0,32.000000
-45,-10,47,1630317320.0,32.000000
-45,-11,46,1630317320.0,32.000000
-45,-11,46,1630317320.0,32.000000
-46,-11,46,1630317320.0,32.000000
-45,-11,47,1630317320.0,32.000000
-45,-10,47,1630317320.0,32.000000
-45,-10,48,1630317320.0,32.000000
-45,-10,47,1630317320.0,32.000000
-45,-10,47,1630317320.0,32.000000
-44,-10,48,1630317320.0,32.000000
-45,-10,48,1630317320.0,32.000000
-45,-10,48,1630317320.0,32.000000
-45,-10,48,1630317320.0,32.000000
-45,-10,48,1630317320.0,32.000000
-45,-11,47,1630317320.0,32.000000
-44,-11,47,1630317320.0,32.000000
-44,-11,48,1630317320.0,32.000000
-45,-10,48,1630317320.0,32.000000
-45,-11,47,1630317320.0,32.000000
-44,-11,46,1630317320.0,32.000000
-44,-10,46,1630317320.0,32.000000
-45,-10,48,1630317320.0,32.000000
-45,-10,48,1630317320.0,32.000000
-45,-10,48,1630317320.0,32.000000
-44,-10,48,1630317320.0,32.000000
-44,-11,47,1630317320.0,32.000000
-45,-11,47,1630317320.0,32.000000
-45,-11,46,1630317320.0,32.000000
-45,-10,47,1630317320.0,32.000000
-45,-10,47,1630317320.0,32.000000
-45,-10,48,1630317320.0,32.000000
-45,-10,47,1630317320.0,32.000000
-45,-10,47,1630317320.0,32.000000
-45,-10,48,1630317320.0,32.000000
-45,-10,47,1630317320.0,32.000000
-45,-10,47,1630317320.0,32.000000
-45,-10,47,1630317320.0,32.000000
-45,-10,47,1630317320.0,32.000000
-45,-10,48,1630317320.0,32.000000
-45,-10,48,1630317320.0,32.000000
-45,-10,47,1630317320.0,32.000000
-44,-10,46,1630317320.0,32.000000
-44,-10,47,1630317320.0,32.000000
-45,-10,47,1630317320.0,32.000000
-45,-10,48,1630317320.0,32.000000
-45,-10,48,1630317320.0,32.000000
-45,-10,47,1630317320.0,32.000000
-45,-10,47,1630317320.0,32.000000
-44,-10,47,1630317320.0,32.000000
-45,-10,47,1630317320.0,32.000000
-45,-10,47,1630317320.0,32.000000
-45,-10,47,1630317320.0,32.000000
-45,-10,47,1630317320.0,32.000000
-44,-10,44,1630317320.0,32.000000
-47,-10,51,1630317320.0,32.000000
-46,-11,47,1630317320.0,32.000000
-45,-11,47,1630317320.0,32.000000
-45,-10,47,1630317320.0,32.000000
-45,-11,47,1630317320.0,32.000000
-45,-10,47,1630317320.0,32.000000
-45,-10,47,1630317320.0,32.000000
-45,-10,48,1630317320.0,32.000000
-44,-10,48,1630317320.0,32.000000
-45,-10,48,1630317320.0,32.000000
-45,-10,48,1630317320.0,32.000000
-45,-11,47,1630317320.0,32.000000
-45,-10,48,1630317320.0,32.000000
-45,-10,47,1630317320.0,32.000000
-44,-10,47,1630317320.0,32.000000
-45,-10,47,1630317320.0,32.000000
-45,-10,47,1630317320.0,32.000000
-45,-10,47,1630317320.0,32.000000
-45,-10,47,1630317320.0,32.000000
-44,-10,48,1630317320.0,32.000000
-45,-10,48,1630317320.0,32.000000
-45,-10,47,1630317320.0,32.000000
-45,-10,47,1630317320.0,32.000000
-45,-10,47,1630317320.0,32.000000
-45,-10,47,1630317320.0,32.000000
-45,-10,47,1630317320.0,32.000000
-45,-10,47,1630317320.0,32.000000
-45,-10,48,1630317320.0,32.000000
-45,-10,47,1630317320.0,32.000000
-45,-10,47,1630317320.0,32.000000
-45,-11,47,1630317320.0,32.000000
-45,-11,47,1630317320.0,32.000000
-45,-11,47,1630317320.0,32.000000
-44,-11,47,1630317320.0,32.000000
-45,-10,47,1630317320.0,32.000000
-45,-10,47,1630317320.0,32.000000
-45,-10,47,1630317320.0,32.000000
-45,-10,47,1630317320.0,32.000000
-45,-10,47,1630317320.0,32.000000
-45,-10,47,1630317320.0,32.000000
-45,-11,47,1630317320.0,32.000000
-45,-10,47,1630317320.0,32.000000
-45,-10,47,1630317320.0,32.000000
-45,-10,47,1630317320.0,32.000000
-45,-10,48,1630317320.0,32.000000
-45,-10,47,1630317320.0,32.000000
-45,-11,47,1630317320.0,32.000000
-45,-10,48,1630317320.0,32.000000
-45,-11,46,1630317320.0,32.000000
-47,-10,46,1630317320.0,32.000000
-45,-9,49,1630317320.0,32.000000
-45,-10,47,1630317320.0,32.000000
-46,-10,47,1630317320.0,32.000000
-45,-10,48,1630317320.0,32.000000
-45,-10,47,1630317320.0,32.000000
-45,-10,48,1630317320.0,32.000000
-45,-9,49,1630317320.0,32.000000
-45,-9,49,1630317320.0,32.000000
-45,-11,47,1630317320.0,32.000000
-44,-11,46,1630317320.0,32.000000
-43,-12,45,1630317320.0,32.000000
-44,-11,47,1630317320.0,32.000000
-45,-10,48,1630317320.0,32.000000
-46,-9,49,1630317320.0,32.000000
-46,-9,48,1630317320.0,32.000000
-44,-11,47,1630317320.0,32.000000
-44,-11,47,1630317320.0,32.000000
-45,-11,46,1630317320.0,32.000000
-46,-11,46,1630317320.0,32.000000
-46,-11,46,1630317320.0,32.000000
-46,-10,47,1630317320.0,32.000000
-45,-10,48,1630317320.0,32.000000
-44,-10,48,1630317320.0,32.000000
-45,-10,47,1630317320.0,32.000000
-44,-10,48,1630317320.0,32.000000
-45,-11,47,1630317320.0,32.000000
-45,-10,47,1630317320.0,32.000000
-46,-11,47,1630317320.0,32.000000
-45,-10,47,1630317320.0,32.000000
-45,-10,47,1630317320.0,32.000000
-45,-10,47,1630317320.0,32.000000
-45,-10,47,1630317320.0,32.000000
-45,-10,47,1630317320.0,32.000000
-45,-10,47,1630317320.0,32.000000
-45,-11,47,1630317320.0,32.000000
-45,-10,47,1630317320.0,32.000000
-45,-11,47,1630317320.0,32.000000
-45,-10,47,1630317320.0,32.000000
-45,-10,47,1630317320.0,32.000000
-45,-10,47,1630317320.0,32.000000
-45,-10,47,1630317320.0,32.000000
-45,-10,47,1630317320.0,32.000000
-45,-10,47,1630317320.0,32.000000
-45,-10,47,1630317320.0,32.000000
-45,-10,47,1630317320.0,32.000000
-45,-10,47,1630317320.0,32.000000
-45,-10,47,1630317320.0,32.000000
-46,-10,47,1630317320.0,32.000000
-44,-10,48,1630317320.0,32.000000
-45,-10,48,1630317320.0,32.000000
-45,-10,48,1630317320.0,32.000000
-45,-10,47,1630317320.0,32.000000
-45,-10,47,1630317320.0,32.000000
-45,-10,47,1630317320.0,32.000000
-45,-10,47,1630317320.0,32.000000
-45,-10,47,1630317320.0,32.000000
-45,-11,47,1630317320.0,32.000000
-45,-10,47,1630317320.0,32.000000
-45,-10,47,1630317320.0,32.000000
-45,-10,47,1630317320.0,32.000000
-45,-10,47,1630317320.0,32.000000
-45,-10,47,1630317320.0,32.000000
-46,-11,51,1630317320.0,32.000000
-49,-12,45,1630317320.0,32.000000
-44,-10,48,1630317320.0,32.000000
-45,-10,47,1630317320.0,32.000000
-44,-10,48,1630317320.0,32.000000
-45,-10,47,1630317320.0,32.000000
-45,-10,47,1630317320.0,32.000000
-45,-10,47,1630317320.0,32.000000
-45,-10,48,1630317320.0,32.000000
-45,-10,48,1630317320.0,32.000000
-45,-10,48,1630317320.0,32.000000
-45,-10,48,1630317320.0,32.000000
-45,-10,48,1630317320.0,32.000000
-45,-10,47,1630317320.0,32.000000
-45,-10,47,1630317320.0,32.000000
-45,-11,46,1630317320.0,32.000000
-45,-11,45,1630317320.0,32.000000
-44,-12,44,1630317320.0,32.000000
-46,-12,45,1630317320.0,32.000000
-45,-10,47,1630317320.0,32.000000
-46,-6,50,1630317320.0,32.000000
-45,-6,50,1630317320.0,32.000000
-44,-6,52,1630317320.0,32.000000
-42,-7,50,1630317320.0,32.000000
-42,-8,50,1630317320.0,32.000000
-43,-9,48,1630317320.0,32.000000
-43,-10,47,1630317320.0,32.000000
-45,-9,47,1630317320.0,32.000000
-46,-8,47,1630317320.0,32.000000
-46,-8,47,1630317320.0,32.000000
-45,-8,48,1630317320.0,32.000000
-45,-8,48,1630317320.0,32.000000
-44,-8,49,1630317320.0,32.000000
-44,-8,49,1630317320.0,32.000000
-44,-8,49,1630317320.0,32.000000
-44,-9,48,1630317320.0,32.000000
-44,-9,48,1630317320.0,32.000000
-44,-9,47,1630317320.0,32.000000
-44,-9,48,1630317320.0,32.000000
-45,-10,47,1630317320.0,32.000000
-45,-9,47,1630317320.0,32.000000
-45,-9,47,1630317320.0,32.000000
-45,-9,48,1630317320.0,32.000000
-45,-9,48,1630317320.0,32.000000
-44,-9,48,1630317320.0,32.000000
-44,-9,48,1630317320.0,32.000000
-44,-9,48,1630317320.0,32.000000
-45,-9,48,1630317320.0,32.000000
-44,-9,48,1630317320.0,32.000000
-44,-10,44,1630317320.0,32.000000
-43,-9,46,1630317320.0,32.000000
-46,-8,48,1630317320.0,32.000000
-44,-8,48,1630317320.0,32.000000
-44,-9,48,1630317320.0,32.000000
-44,-8,48,1630317320.0,32.000000
-44,-9,49,1630317320.0,32.000000
-44,-9,48,1630317320.0,32.000000
-44,-8,48,1630317320.0,32.000000
-44,-8,49,1630317320.0,32.000000
-44,-9,49,1630317320.0,32.000000
-44,-9,49,1630317320.0,32.000000
-44,-9,47,1630317320.0,32.000000
-45,-9,47,1630317320.0,32.000000
-45,-9,47,1630317320.0,32.000000
-45,-9,47,1630317320.0,32.000000
-45,-9,48,1630317320.0,32.000000
-44,-9,48,1630317320.0,32.000000
-44,-9,48,1630317320.0,32.000000
-44,-9,48,1630317320.0,32.000000
-45,-9,48,1630317320.0,32.000000
-47,-9,47,1630317320.0,32.000000
-45,-9,47,1630317320.0,32.000000
-44,-10,47,1630317320.0,32.000000
-45,-10,47,1630317320.0,32.000000
-46,-10,46,1630317320.0,32.000000
-46,-9,47,1630317320.0,32.000000
-43,-8,49,1630317320.0,32.000000
-45,-9,48,1630317320.0,32.000000
-44,-9,48,1630317320.0,32.000000
-45,-9,48,1630317320.0,32.000000
-45,-9,48,1630317320.0,32.000000
-45,-9,47,1630317320.0,32.000000
-45,-9,47,1630317320.0,32.000000
-45,-9,47,1630317320.0,32.000000
-45,-9,48,1630317320.0,32.000000
-45,-9,48,1630317320.0,32.000000
-45,-9,47,1630317320.0,32.000000
-45,-9,47,1630317320.0,32.000000
-45,-9,47,1630317320.0,32.000000
-45,-9,47,1630317320.0,32.000000
-45,-9,47,1630317320.0,32.000000
-45,-9,47,1630317320.0,32.000000
-45,-9,48,1630317320.0,32.000000
-45,-9,48,1630317320.0,32.000000
-45,-9,47,1630317320.0,32.000000
-45,-9,47,1630317320.0,32.000000
-45,-9,48,1630317320.0,32.000000
-45,-9,48,1630317320.0,32.000000
-45,-9,47,1630317320.0,32.000000
-45,-9,48,1630317320.0,32.000000
-45,-9,48,1630317320.0,32.000000
-45,-9,47,1630317320.0,32.000000
-45,-9,47,1630317320.0,32.000000
-45,-9,47,1630317320.0,32.000000
-45,-9,48,1630317320.0,32.000000
-45,-9,48,1630317320.0,32.000000
-45,-9,48,1630317320.0,32.000000
-45,-9,48,1630317320.0,32.000000
-45,-9,47,1630317320.0,32.000000
-45,-9,47,1630317320.0,32.000000
-45,-9,47,1630317320.0,32.000000
-45,-9,47,1630317320.0,32.000000
-45,-9,48,1630317320.0,32.000000
-44,-9,48,1630317320.0,32.000000
-45,-9,47,1630317320.0,32.000000
-45,-9,47,1630317320.0,32.000000
-45,-9,48,1630317320.0,32.000000
-45,-9,47,1630317320.0,32.000000
-45,-9,47,1630317320.0,32.000000
-45,-9,48,1630317320.0,32.000000
-45,-9,48,1630317320.0,32.000000
-45,-9,48,1630317320.0,32.000000
-45,-9,48,1630317320.0,32.000000
-45,-10,47,1630317320.0,32.000000
-45,-9,47,1630317320.0,32.000000
-45,-9,48,1630317320.0,32.000000
-44,-9,48,1630317320.0,32.000000
-45,-9,48,1630317320.0,32.000000
-44,-9,48,1630317320.0,32.000000
-45,-9,48,1630317320.0,32.000000
-44,-9,48,1630317320.0,32.000000
-44,-9,48,1630317320.0,32.000000
-44,-9,48,1630317320.0,32.000000
-44,-9,48,1630317320.0,32.000000
-44,-9,49,1630317320.0,32.000000
-44,-10,49,1630317320.0,32.000000
-45,-9,49,1630317320.0,32.000000
-45,-9,47,1630317320.0,32.000000
-43,-10,46,1630317320.0,32.000000
-44,-9,47,1630317320.0,32.000000
-44,-9,48,1630317320.0,32.000000
-45,-9,48,1630317320.0,32.000000
-45,-9,48,1630317320.0,32.000000
-45,-9,48,1630317320.0,32.000000
-45,-10,47,1630317320.0,32.000000
-45,-10,46,1630317320.0,32.000000
-44,-10,47,1630317320.0,32.000000
-44,-10,47,1630317320.0,32.000000
-45,-9,48,1630317320.0,32.000000
-45,-9,48,1630317320.0,32.000000
-45,-9,48,1630317320.0,32.000000
-45,-9,47,1630317320.0,32.000000
-44,-10,48,1630317320.0,32.000000
-44,-10,48,1630317320.0,32.000000
-45,-10,47,1630317320.0,32.000000
-45,-10,47,1630317320.0,32.000000
-45,-9,47,1630317320.0,32.000000
-46,-10,47,1630317320.0,32.000000
-45,-9,47,1630317320.0,32.000000
-45,-9,48,1630317320.0,32.000000
-44,-9,48,1630317320.0,32.000000
-45,-10,47,1630317320.0,32.000000
-45,-10,47,1630317320.0,32.000000
-45,-10,47,1630317320.0,32.000000
-45,-10,47,1630317320.0,32.000000
-45,-10,47,1630317320.0,32.000000
-45,-10,47,1630317320.0,32.000000
-45,-9,47,1630317320.0,32.000000
-45,-9,48,1630317320.0,32.000000
-45,-9,48,1630317320.0,32.000000
-45,-9,48,1630317320.0,32.000000
-45,-10,47,1630317320.0,32.000000
-45,-10,48,1630317320.0,32.000000
-45,-10,47,1630317320.0,32.000000
-45,-10,47,1630317320.0,32.000000
-45,-10,47,1630317320.0,32.000000
-45,-9,47,1630317320.0,32.000000
-44,-10,48,1630317320.0,32.000000
-45,-10,48,1630317320.0,32.000000
-45,-9,47,1630317320.0,32.000000
-45,-10,47,1630317320.0,32.000000
-45,-10,48,1630317320.0,32.000000
-45,-9,48,1630317320.0,32.000000
-45,-10,47,1630317320.0,32.000000
-45,-10,47,1630317320.0,32.000000
-45,-9,48,1630317320.0,32.000000
-45,-9,48,1630317320.0,32.000000
-45,-10,47,1630317320.0,32.000000
-45,-10,47,1630317320.0,32.000000
-45,-9,47,1630317320.0,32.000000
-45,-10,47,1630317320.0,32.000000
-45,-10,47,1630317320.0,32.000000
-45,-10,48,1630317320.0,32.000000
-45,-9,47,1630317320.0,32.000000
-45,-9,48,1630317320.0,32.000000
-45,-9,48,1630317320.0,32.000000
-45,-9,48,1630317320.0,32.000000
-45,-10,47,1630317320.0,32.000000
-45,-9,47,1630317320.0,32.000000
-45,-10,47,1630317320.0,32.000000
-45,-9,47,1630317320.0,32.000000
-45,-9,48,1630317320.0,32.000000
-45,-9,48,1630317320.0,32.000000
-45,-10,48,1630317320.0,32.000000
-45,-9,47,1630317320.0,32.000000
-45,-9,47,1630317320.0,32.000000
-45,-9,47,1630317320.0,32.000000
-44,-9,48,1630317320.0,32.000000
-45,-9,47,1630317320.0,32.000000
-45,-9,48,1630317320.0,32.000000
-45,-9,47,1630317320.0,32.000000
-45,-9,48,1630317320.0,32.000000
-45,-9,48,1630317320.0,32.000000
-45,-9,47,1630317320.0,32.000000
-45,-9,48,1630317320.0,32.000000
-45,-9,48,1630317320.0,32.000000
-45,-9,48,1630317320.0,32.000000
-45,-9,47,1630317320.0,32.000000
-45,-9,47,1630317320.0,32.000000
-45,-9,48,1630317320.0,32.000000
-45,-9,47,1630317320.0,32.000000
-45,-9,48,1630317320.0,32.000000
-45,-9,47,1630317320.0,32.000000
-45,-9,47,1630317320.0,32.000000
-45,-9,47,1630317320.0,32.000000
-45,-9,48,1630317320.0,32.000000
-45,-9,47,1630317320.0,32.000000
-45,-9,47,1630317320.0,32.000000
-45,-9,48,1630317320.0,32.000000
-45,-9,47,1630317320.0,32.000000
-45,-9,47,1630317320.0,32.000000
-45,-9,47,1630317320.0,32.000000
-45,-10,48,1630317320.0,32.000000
-45,-9,47,1630317320.0,32.000000
-45,-9,48,1630317320.0,32.000000
-45,-9,47,1630317320.0,32.000000
-45,-9,47,1630317320.0,32.000000
-45,-9,47,1630317320.0,32.000000
-45,-10,47,1630317320.0,32.000000
-44,-9,48,1630317320.0,32.000000
-45,-9,48,1630317320.0,32.000000
-45,-9,48,1630317320.0,32.000000
-45,-9,48,1630317320.0,32.000000
-45,-9,47,1630317320.0,32.000000
-45,-10,47,1630317320.0,32.000000
-44,-10,48,1630317320.0,32.000000
-45,-10,48,1630317320.0,32.000000
-45,-10,47,1630317320.0,32.000000
-44,-10,46,1630317320.0,32.000000
-45,-9,47,1630317320.0,32.000000
-44,-9,48,1630317320.0,32.000000
-44,-9,49,1630317320.0,32.000000
-44,-9,49,1630317320.0,32.000000
-44,-9,48,1630317320.0,32.000000
-45,-11,47,1630317320.0,32.000000
-46,-11,48,1630317320.0,32.000000
-46,-10,46,1630317320.0,32.000000
-44,-11,46,1630317320.0,32.000000
-44,-11,46,1630317320.0,32.000000
-44,-9,47,1630317320.0,32.000000
-45,-8,48,1630317320.0,32.000000
-45,-9,49,1630317320.0,32.000000
-45,-10,48,1630317320.0,32.000000
-45,-11,47,1630317320.0,32.000000
-44,-11,47,1630317320.0,32.000000
-44,-11,46,1630317320.0,32.000000
-45,-11,47,1630317320.0,32.000000
-46,-10,48,1630317320.0,32.000000
-46,-10,48,1630317320.0,32.000000
-45,-10,47,1630317320.0,32.000000
-44,-10,47,1630317320.0,32.000000
-45,-9,48,1630317320.0,32.000000
-45,-8,48,1630317320.0,32.000000
-45,-10,48,1630317320.0,32.000000
-44,-11,47,1630317320.0,32.000000
-45,-11,47,1630317320.0,32.000000
-45,-11,47,1630317320.0,32.000000
-45,-10,47,1630317320.0,32.000000
-46,-10,46,1630317320.0,32.000000
-46,-10,47,1630317320.0,32.000000
-45,-10,47,1630317320.0,32.000000
-46,-9,48,1630317320.0,32.000000
-46,-9,48,1630317320.0,32.000000
-44,-10,47,1630317320.0,32.000000
-44,-10,46,1630317320.0,32.000000
-43,-10,47,1630317320.0,32.000000
-44,-10,48,1630317320.0,32.000000
-45,-9,49,1630317320.0,32.000000
-45,-9,48,1630317320.0,32.000000
-45,-10,47,1630317320.0,32.000000
-45,-10,47,1630317320.0,32.000000
-45,-10,48,1630317320.0,32.000000
-44,-10,48,1630317320.0,32.000000
-45,-9,48,1630317320.0,32.000000
-46,-9,48,1630317320.0,32.000000
-45,-10,47,1630317320.0,32.000000
-44,-10,46,1630317320.0,32.000000
-44,-10,47,1630317320.0,32.000000
-45,-9,48,1630317320.0,32.000000
-45,-10,48,1630317320.0,32.000000
-44,-10,48,1630317320.0,32.000000
-44,-10,47,1630317320.0,32.000000
-45,-11,47,1630317320.0,32.000000
-45,-10,46,1630317320.0,32.000000
-45,-10,47,1630317320.0,32.000000
-45,-10,47,1630317320.0,32.000000
-45,-9,48,1630317320.0,32.000000
-45,-9,48,1630317320.0,32.000000
-45,-10,48,1630317320.0,32.000000
-44,-10,48,1630317320.0,32.000000
-45,-10,48,1630317320.0,32.000000
-45,-10,48,1630317320.0,32.000000
-45,-10,47,1630317320.0,32.000000
-45,-10,48,1630317320.0,32.000000
-45,-10,48,1630317320.0,32.000000
-44,-10,48,1630317320.0,32.000000
-44,-10,48,1630317320.0,32.000000
-44,-10,48,1630317320.0,32.000000
-44,-10,48,1630317320.0,32.000000
-45,-10,47,1630317320.0,32.000000
-45,-10,47,1630317320.0,32.000000
-45,-11,47,1630317320.0,32.000000
-45,-11,47,1630317320.0,32.000000
-44,-10,46,1630317320.0,32.000000
-45,-10,47,1630317320.0,32.000000
-44,-9,49,1630317320.0,32.000000
-44,-8,50,1630317320.0,32.000000
-44,-8,50,1630317320.0,32.000000
-44,-9,48,1630317320.0,32.000000
-44,-10,47,1630317320.0,32.000000
-45,-10,47,1630317320.0,32.000000
-46,-10,46,1630317320.0,32.000000
-46,-10,47,1630317320.0,32.000000
-45,-9,48,1630317320.0,32.000000
-44,-10,48,1630317320.0,32.000000
-44,-9,48,1630317320.0,32.000000
-44,-10,48,1630317320.0,32.000000
-44,-10,47,1630317320.0,32.000000
-45,-10,47,1630317320.0,32.000000
-45,-10,47,1630317320.0,32.000000
-44,-10,48,1630317320.0,32.000000
-45,-10,47,1630317320.0,32.000000
-45,-10,47,1630317320.0,32.000000
-46,-10,47,1630317320.0,32.000000
-44,-9,48,1630317320.0,32.000000
-45,-9,48,1630317320.0,32.000000
-45,-9,48,1630317320.0,32.000000
-44,-10,48,1630317320.0,32.000000
-45,-9,48,1630317320.0,32.000000
-45,-9,47,1630317320.0,32.000000
-45,-9,47,1630317320.0,32.000000
-45,-9,47,1630317320.0,32.000000
-45,-10,47,1630317320.0,32.000000
-45,-10,47,1630317320.0,32.000000
-45,-9,47,1630317320.0,32.000000
-45,-10,46,1630317320.0,32.000000
-46,-9,47,1630317320.0,32.000000
-45,-8,47,1630317320.0,32.000000
-46,-8,47,1630317320.0,32.000000
-46,-8,48,1630317320.0,32.000000
-44,-8,49,1630317320.0,32.000000
-46,-8,47,1630317320.0,32.000000
-44,-9,48,1630317320.0,32.000000
-43,-8,48,1630317320.0,32.000000
-46,-9,47,1630317320.0,32.000000
-46,-10,48,1630317320.0,32.000000
-45,-9,48,1630317320.0,32.000000
-45,-10,47,1630317320.0,32.000000
-43,-10,48,1630317320.0,32.000000
-44,-12,48,1630317320.0,32.000000
-41,-10,49,1630317320.0,32.000000
-41,-11,49,1630317320.0,32.000000
-41,-10,51,1630317320.0,32.000000
-40,-9,50,1630317320.0,32.000000
-44,-10,48,1630317320.0,32.000000
-45,-10,47,1630317320.0,32.000000
-45,-10,47,1630317320.0,32.000000
-43,-9,48,1630317320.0,32.000000
-44,-10,49,1630317320.0,32.000000
-43,-9,50,1630317320.0,32.000000
-42,-9,50,1630317320.0,32.000000
-41,-9,51,1630317320.0,32.000000
-41,-10,50,1630317320.0,32.000000
-41,-10,49,1630317320.0,32.000000
-43,-9,50,1630317320.0,32.000000
-43,-8,49,1630317320.0,32.000000
-44,-9,48,1630317320.0,32.000000
-44,-10,49,1630317320.0,32.000000
-42,-10,49,1630317320.0,32.000000
-43,-10,48,1630317320.0,32.000000
-44,-11,48,1630317320.0,32.000000
-45,-7,48,1630317320.0,32.000000
-43,-7,49,1630317320.0,32.000000
-45,-5,50,1630317320.0,32.000000
-44,-3,51,1630317320.0,32.000000
-43,-4,51,1630317320.0,32.000000
-43,-4,51,1630317320.0,32.000000
-43,-6,50,1630317320.0,32.000000
-43,-6,50,1630317320.0,32.000000
-43,-6,49,1630317320.0,32.000000
-43,-6,49,1630317320.0,32.000000
-43,-7,49,1630317320.0,32.000000
-44,-8,48,1630317320.0,32.000000
-44,-7,48,1630317320.0,32.000000
-44,-8,48,1630317320.0,32.000000
-44,-8,49,1630317320.0,32.000000
-44,-7,49,1630317320.0,32.000000
-43,-8,49,1630317320.0,32.000000
-44,-8,49,1630317320.0,32.000000
-46,-8,47,1630317320.0,32.000000
-43,-8,49,1630317320.0,32.000000
-45,-8,49,1630317320.0,32.000000
-46,-6,51,1630317320.0,32.000000
-43,-6,54,1630317320.0,32.000000
-35,-6,57,1630317320.0,32.000000
-28,-7,58,1630317320.0,32.000000
-26,-8,57,1630317320.0,32.000000
-21,-11,58,1630317320.0,32.000000
-20,-12,59,1630317320.0,32.000000
-17,-12,60,1630317320.0,32.000000
-17,-11,59,1630317320.0,32.000000
-17,-10,61,1630317320.0,32.000000
-18,-9,62,1630317320.0,32.000000
-18,-9,63,1630317320.0,32.000000
-18,-9,63,1630317320.0,32.000000
-18,-9,62,1630317320.0,32.000000
-16,-9,62,1630317320.0,32.000000
-18,-10,62,1630317320.0,32.000000
-17,-10,62,1630317320.0,32.000000
-15,-9,62,1630317320.0,32.000000
-15,-9,62,1630317320.0,32.000000
-12,-8,63,1630317320.0,32.000000
-10,-9,63,1630317320.0,32.000000
-10,-9,62,1630317320.0,32.000000
-8,-9,63,1630317320.0,32.000000
-7,-8,63,1630317320.0,32.000000
-5,-7,64,1630317320.0,32.000000
-3,-8,64,1630317320.0,32.000000
-1,-9,65,1630317320.0,32.000000
2,-7,74,1630317320.0,32.000000
2,-5,78,1630317320.0,32.000000
-2,2,83,1630317320.0,32.000000
-17,13,81,1630317320.0,32.000000
-23,-1,63,1630317320.0,32.000000
-10,-16,41,1630317320.0,32.000000
-28,-19,37,1630317320.0,32.000000
-24,-22,49,1630317320.0,32.000000
-22,-25,48,1630317320.0,32.000000
-27,-29,46,1630317320.0,32.000000
-26,-33,48,1630317320.0,32.000000
-23,-34,49,1630317320.0,32.000000
-20,-36,52,1630317320.0,32.000000
-21,-35,54,1630317320.0,32.000000
-20,-34,54,1630317320.0,32.000000
-23,-29,54,1630317320.0,32.000000
-25,-26,56,1630317320.0,32.000000
-28,-23,58,1630317320.0,32.000000
-32,-23,59,1630317320.0,32.000000
-39,-23,54,1630317320.0,32.000000
-38,-24,55,1630317320.0,32.000000
-40,-28,51,1630317320.0,32.000000
-38,-37,46,1630317320.0,32.000000
-33,-39,46,1630317320.0,32.000000
-30,-46,44,1630317320.0,32.000000
-37,-45,31,1630317320.0,32.000000
-29,-43,35,1630317320.0,32.000000
-18,-39,43,1630317320.0,32.000000
-17,-37,42,1630317320.0,32.000000
-11,-43,41,1630317320.0,32.000000
-17,-43,45,1630317320.0,32.000000
-12,-44,41,1630317320.0,32.000000
-12,-50,39,1630317320.0,32.000000
-17,-50,37,1630317320.0,32.000000
-16,-52,36,1630317320.0,32.000000
-13,-54,32,1630317320.0,32.000000
-13,-52,31,1630317320.0,32.000000
-6,-50,33,1630317320.0,32.000000
-4,-47,36,1630317320.0,32.000000
-2,-47,37,1630317320.0,32.000000
-4,-47,37,1630317320.0,32.000000
-18,-45,41,1630317320.0,32.000000
-19,-45,39,1630317320.0,32.000000
-17,-45,39,1630317320.0,32.000000
-18,-46,40,1630317320.0,32.000000
-14,-47,41,1630317320.0,32.000000
-8,-45,44,1630317320.0,32.000000
-7,-45,45,1630317320.0,32.000000
-8,-45,46,1630317320.0,32.000000
-11,-45,46,1630317320.0,32.000000
-11,-45,46,1630317320.0,32.000000
-10,-46,44,1630317320.0,32.000000
-10,-45,44,1630317320.0,32.000000
-12,-45,44,1630317320.0,32.000000
-19,-45,46,1630317320.0,32.000000
-21,-46,47,1630317320.0,32.000000
-18,-50,46,1630317320.0,32.000000
-8,-48,46,1630317320.0,32.000000
-10,-44,42,1630317320.0,32.000000
-11,-41,37,1630317320.0,32.000000
-6,-41,38,1630317320.0,32.000000
-12,-40,45,1630317320.0,32.000000
-14,-40,50,1630317320.0,32.000000
-10,-37,49,1630317320.0,32.000000
-22,-30,52,1630317320.0,32.000000
-25,-27,52,1630317320.0,32.000000
-17,-29,46,1630317320.0,32.000000
-18,-27,48,1630317320.0,32.000000
-34,-17,57,1630317320.0,32.000000
-26,-21,54,1630317320.0,32.000000
-21,-23,52,1630317320.0,32.000000
-23,-19,55,1630317320.0,32.000000
-30,-16,54,1630317320.0,32.000000
-30,-14,55,1630317320.0,32.000000
-30,-11,55,1630317320.0,32.000000
-31,-11,56,1630317320.0,32.000000
-39,-12,50,1630317320.0,32.000000
-41,-11,50,1630317320.0,32.000000
-38,-13,50,1630317320.0,32.000000
-39,-14,54,1630317320.0,32.000000
-43,-14,60,1630317320.0,32.000000
-46,-13,69,1630317320.0,32.000000
-42,-12,63,1630317320.0,32.000000
-37,-10,58,1630317320.0,32.000000
-31,-7,54,1630317320.0,32.000000
-31,-7,54,1630317320.0,32.000000
-35,-5,58,1630317320.0,32.000000
-34,-5,59,1630317320.0,32.000000
-36,-6,58,1630317320.0,32.000000
-35,-7,56,1630317320.0,32.000000
-35,-9,55,1630317320.0,32.000000
-34,-12,53,1630317320.0,32.000000
-35,-11,54,1630317320.0,32.000000
-35,-10,54,1630317320.0,32.000000
-34,-8,55,1630317320.0,32.000000
-36,-7,56,1630317320.0,32.000000
-35,-6,57,1630317320.0,32.000000
-32,-7,57,1630317320.0,32.000000
-31,-7,58,1630317320.0,32.000000
-30,-8,57,1630317320.0,32.000000
-30,-8,58,1630317320.0,32.000000
-29,-9,58,1630317320.0,32.000000
-27,-10,58,1630317320.0,32.000000
-27,-10,59,1630317320.0,32.000000
-31,-9,56,1630317320.0,32.000000
-31,-8,57,1630317320.0,32.000000
-30,-9,57,1630317320.0,32.000000
-29,-8,57,1630317320.0,32.000000
-29,-8,58,1630317320.0,32.000000
-27,-8,59,1630317320.0,32.000000
-26,-8,60,1630317320.0,32.000000
-25,-7,60,1630317320.0,32.000000
-25,-7,60,1630317320.0,32.000000
-25,-8,60,1630317320.0,32.000000
-25,-8,60,1630317320.0,32.000000
-25,-8,59,1630317320.0,32.000000
-23,-8,60,1630317320.0,32.000000
-20,-7,61,1630317320.0,32.000000
-34,-10,57,1630317320.0,32.000000
-30,-9,57,1630317320.0,32.000000
-29,-9,57,1630317320.0,32.000000
-31,-9,57,1630317320.0,32.000000
-30,-9,57,1630317320.0,32.000000
-30,-9,57,1630317320.0,32.000000
-30,-9,57,1630317320.0,32.000000
-30,-9,58,1630317320.0,32.000000
-30,-9,58,1630317320.0,32.000000
-30,-9,57,1630317320.0,32.000000
-29,-9,58,1630317320.0,32.000000
-29,-9,58,1630317320.0,32.000000
-29,-9,58,1630317320.0,32.000000
-29,-9,58,1630317320.0,32.000000
-29,-9,58,1630317320.0,32.000000
-31,-9,56,1630317320.0,32.000000
-30,-10,57,1630317320.0,32.000000
-30,-9,57,1630317320.0,32.000000
-30,-9,57,1630317320.0,32.000000
-29,-9,58,1630317320.0,32.000000
-29,-9,58,1630317320.0,32.000000
-29,-9,58,1630317320.0,32.000000
-30,-9,58,1630317320.0,32.000000
-29,-9,58,1630317320.0,32.000000
-30,-9,57,1630317320.0,32.000000
-29,-9,57,1630317320.0,32.000000
-30,-9,58,1630317320.0,32.000000
-29,-9,57,1630317320.0,32.000000
-30,-9,58,1630317320.0,32.000000
-30,-9,57,1630317320.0,32.000000
-30,-9,58,1630317320.0,32.000000
-30,-8,58,1630317320.0,32.000000
-31,-9,57,1630317320.0,32.000000
-30,-9,58,1630317320.0,32.000000
-29,-9,58,1630317320.0,32.000000
-28,-9,58,1630317320.0,32.000000
-28,-9,58,1630317320.0,32.000000
-28,-10,58,1630317320.0,32.000000
-28,-10,58,1630317320.0,32.000000
-29,-10,58,1630317320.0,32.000000
-33,-9,58,1630317320.0,32.000000
-36,-9,59,1630317320.0,32.000000
-34,-7,61,1630317320.0,32.000000
-37,-7,64,1630317320.0,32.000000
-35,-8,67,1630317320.0,32.000000
-16,-14,66,1630317320.0,32.000000
-10,-17,66,1630317320.0,32.000000
-3,-19,63,1630317320.0,32.000000
-1,-17,63,1630317320.0,32.000000
1,-16,57,1630317320.0,32.000000
9,-13,56,1630317320.0,32.000000
13,-13,57,1630317320.0,32.000000
14,-11,55,1630317320.0,32.000000
18,-10,55,1630317320.0,32.000000
23,-10,53,1630317320.0,32.000000
24,-10,52,1630317320.0,32.000000
27,-10,55,1630317320.0,32.000000
25,-7,61,1630317320.0,32.000000
27,-7,62,1630317320.0,32.000000
23,-8,62,1630317320.0,32.000000
20,-8,63,1630317320.0,32.000000
16,-12,62,1630317320.0,32.000000
13,-15,61,1630317320.0,32.000000
14,-14,62,1630317320.0,32.000000
14,-14,60,1630317320.0,32.000000
14,-13,60,1630317320.0,32.000000
17,-12,59,1630317320.0,32.000000
14,-15,56,1630317320.0,32.000000
9,-15,57,1630317320.0,32.000000
2,-15,56,1630317320.0,32.000000
4,-17,54,1630317320.0,32.000000
-10,-13,57,1630317320.0,32.000000
-19,-12,57,1630317320.0,32.000000
-17,-12,57,1630317320.0,32.000000
-27,-10,60,1630317320.0,32.000000
-31,-11,62,1630317320.0,32.000000
-33,-13,65,1630317320.0,32.000000
-34,-13,65,1630317320.0,32.000000
-33,-13,62,1630317320.0,32.000000
-31,-11,56,1630317320.0,32.000000
-31,-10,55,1630317320.0,32.000000
-30,-9,55,1630317320.0,32.000000
-32,-8,59,1630317320.0,32.000000
-34,-7,59,1630317320.0,32.000000
-35,-6,59,1630317320.0,32.000000
-35,-5,58,1630317320.0,32.000000
-31,-6,58,1630317320.0,32.000000
-33,-8,56,1630317320.0,32.000000
-32,-8,57,1630317320.0,32.000000
-34,-8,56,1630317320.0,32.000000
-35,-8,55,1630317320.0,32.000000
-36,-7,55,1630317320.0,32.000000
-36,-7,55,1630317320.0,32.000000
-37,-6,54,1630317320.0,32.000000
-36,-6,55,1630317320.0,32.000000
-35,-6,55,1630317320.0,32.000000
-35,-6,55,1630317320.0,32.000000
-34,-6,55,1630317320.0,32.000000
-33,-7,56,1630317320.0,32.000000
-33,-7,56,1630317320.0,32.000000
-34,-6,56,1630317320.0,32.000000
-33,-6,56,1630317320.0,32.000000
-34,-6,56,1630317320.0,32.000000
-34,-7,56,1630317320.0,32.000000
-35,-7,56,1630317320.0,32.000000
-34,-6,55,1630317320.0,32.000000
-34,-6,56,1630317320.0,32.000000
-34,-6,56,1630317320.0,32.000000
-33,-7,56,1630317320.0,32.000000
-34,-7,56,1630317320.0,32.000000
-34,-7,56,1630317320.0,32.000000
-32,-7,57,1630317320.0,32.000000
-31,-7,58,1630317320.0,32.000000
-28,-6,59,1630317320.0,32.000000
-26,-6,60,1630317320.0,32.000000
-25,-6,60,1630317320.0,32.000000
-27,-6,59,1630317320.0,32.000000
-28,-6,59,1630317320.0,32.000000
-30,-6,59,1630317320.0,32.000000
-27,-6,59,1630317320.0,32.000000
-26,-6,59,1630317320.0,32.000000
-26,-7,59,1630317320.0,32.000000
-28,-7,59,1630317320.0,32.000000
-26,-7,59,1630317320.0,32.000000
-26,-8,59,1630317320.0,32.000000
-27,-7,59,1630317320.0,32.000000
-25,-7,60,1630317320.0,32.000000
-25,-7,60,1630317320.0,32.000000
-25,-7,60,1630317320.0,32.000000
-24,-7,61,1630317320.0,32.000000
-22,-7,61,1630317320.0,32.000000
-19,-6,63,1630317320.0,32.000000
-16,-6,63,1630317320.0,32.000000
-16,-6,62,1630317320.0,32.000000
-15,-7,62,1630317320.0,32.000000
-15,-6,63,1630317320.0,32.000000
-14,-6,63,1630317320.0,32.000000
-14,-6,62,1630317320.0,32.000000
-9,-7,63,1630317320.0,32.000000
-8,-6,64,1630317320.0,32.000000
-7,-6,65,1630317320.0,32.000000
-3,-6,64,1630317320.0,32.000000
-3,-6,64,1630317320.0,32.000000
-4,-6,64,1630317320.0,32.000000
-3,-6,64,1630317320.0,32.000000
-4,-6,64,1630317320.0,32.000000
-4,-5,64,1630317320.0,32.000000
-4,-6,64,1630317320.0,32.000000
-4,-6,64,1630317320.0,32.000000
-5,-6,64,1630317320.0,32.000000
-3,-6,64,1630317320.0,32.000000
-4,-6,64,1630317320.0,32.000000
-4,-6,64,1630317320.0,32.000000
-3,-5,64,1630317320.0,32.000000
-4,-4,64,1630317320.0,32.000000
-1,-6,66,1630317320.0,32.000000
-2,-5,66,1630317320.0,32.000000
-7,-6,64,1630317320.0,32.000000
-6,-7,62,1630317320.0,32.000000
-10,-6,62,1630317320.0,32.000000
-12,-5,64,1630317320.0,32.000000
-10,-6,64,1630317320.0,32.000000
-2,-7,63,1630317320.0,32.000000
-15,-4,62,1630317320.0,32.000000
-33,-6,62,1630317320.0,32.000000
-20,-8,62,1630317320.0,32.000000
-32,-8,55,1630317320.0,32.000000
-32,-9,55,1630317320.0,32.000000
-28,-7,56,1630317320.0,32.000000
-32,-6,55,1630317320.0,32.000000
-31,-6,59,1630317320.0,32.000000
-27,-5,62,1630317320.0,32.000000
-25,-3,61,1630317320.0,32.000000
-34,-5,58,1630317320.0,32.000000
-26,-5,61,1630317320.0,32.000000
-34,-6,54,1630317320.0,32.000000
-34,-7,53,1630317320.0,32.000000
-35,-6,54,1630317320.0,32.000000
-47,-5,49,1630317320.0,32.000000
-47,-6,49,1630317320.0,32.000000
-43,-5,51,1630317320.0,32.000000
-43,-6,51,1630317320.0,32.000000
-43,-7,49,1630317320.0,32.000000
-41,-8,51,1630317320.0,32.000000
-41,-8,50,1630317320.0,32.000000
-42,-7,50,1630317320.0,32.000000
-43,-7,50,1630317320.0,32.000000
-43,-7,49,1630317320.0,32.000000
-43,-7,50,1630317320.0,32.000000
-42,-7,50,1630317320.0,32.000000
-42,-7,50,1630317320.0,32.000000
-43,-7,49,1630317320.0,32.000000
-42,-7,50,1630317320.0,32.000000
-42,-8,50,1630317320.0,32.000000
-43,-8,49,1630317320.0,32.000000
-43,-7,49,1630317320.0,32.000000
-43,-7,50,1630317320.0,32.000000
-43,-8,49,1630317320.0,32.000000
-43,-7,50,1630317320.0,32.000000
-43,-7,49,1630317320.0,32.000000
-43,-7,50,1630317320.0,32.000000
-43,-8,49,1630317320.0,32.000000
-43,-7,49,1630317320.0,32.000000
-43,-7,49,1630317320.0,32.000000
-43,-7,49,1630317320.0,32.000000
-43,-7,49,1630317320.0,32.000000
-44,-7,49,1630317320.0,32.000000
-44,-7,49,1630317320.0,32.000000
-44,-7,49,1630317320.0,32.000000
-44,-7,50,1630317320.0,32.000000
-44,-8,50,1630317320.0,32.000000
-43,-8,49,1630317320.0,32.000000
-41,-8,47,1630317320.0,32.000000
-41,-7,47,1630317320.0,32.000000
-44,-7,49,1630317320.0,32.000000
-44,-7,50,1630317320.0,32.000000
-44,-8,50,1630317320.0,32.000000
-43,-8,49,1630317320.0,32.000000
-43,-7,50,1630317320.0,32.000000
-43,-8,49,1630317320.0,32.000000
-44,-9,48,1630317320.0,32.000000
-44,-8,49,1630317320.0,32.000000
-44,-8,49,1630317320.0,32.000000
-44,-7,50,1630317320.0,32.000000
-43,-7,50,1630317320.0,32.000000
-43,-8,49,1630317320.0,32.000000
-43,-8,48,1630317320.0,32.000000
-43,-7,49,1630317320.0,32.000000
-44,-8,49,1630317320.0,32.000000
-44,-8,49,1630317320.0,32.000000
-44,-8,49,1630317320.0,32.000000
-44,-8,49,1630317320.0,32.000000
-43,-8,49,1630317320.0,32.000000
-44,-8,48,1630317320.0,32.000000
-43,-8,49,1630317320.0,32.000000
-44,-8,49,1630317320.0,32.000000
-44,-8,49,1630317320.0,32.000000
-44,-8,49,1630317320.0,32.000000
-43,-7,49,1630317320.0,32.000000
-43,-8,49,1630317320.0,32.000000
-44,-8,49,1630317320.0,32.000000
-44,-8,49,1630317320.0,32.000000
-44,-8,49,1630317320.0,32.000000
-44,-8,49,1630317320.0,32.000000
-43,-8,49,1630317320.0,32.000000
-44,-8,48,1630317320.0,32.000000
-44,-8,49,1630317320.0,32.000000
-44,-8,49,1630317320.0,32.000000
-44,-8,49,1630317320.0,32.000000
-44,-8,49,1630317320.0,32.000000
-44,-8,49,1630317320.0,32.000000
-44,-8,49,1630317320.0,32.000000
-44,-8,49,1630317320.0,32.000000
-44,-8,49,1630317320.0,32.000000
-44,-8,49,1630317320.0,32.000000
-44,-8,49,1630317320.0,32.000000
-44,-7,49,1630317320.0,32.000000
-44,-8,49,1630317320.0,32.000000
-44,-7,49,1630317320.0,32.000000
-44,-8,49,1630317320.0,32.000000
-44,-8,49,1630317320.0,32.000000
-44,-8,48,1630317320.0,32.000000
-43,-7,49,1630317320.0,32.000000
-44,-8,48,1630317320.0,32.000000
-44,-8,49,1630317320.0,32.000000
-44,-8,50,1630317320.0,32.000000
-45,-8,49,1630317320.0,32.000000
-44,-9,48,1630317320.0,32.000000
-41,-8,47,1630317320.0,32.000000
-43,-6,49,1630317320.0,32.000000
-44,-6,50,1630317320.0,32.000000
-44,-8,50,1630317320.0,32.000000
-43,-8,48,1630317320.0,32.000000
-43,-8,49,1630317320.0,32.000000
-44,-8,49,1630317320.0,32.000000
-44,-8,50,1630317320.0,32.000000
-44,-8,49,1630317320.0,32.000000
-43,-8,48,1630317320.0,32.000000
-44,-8,49,1630317320.0,32.000000
-44,-8,49,1630317320.0,32.000000
-44,-8,49,1630317320.0,32.000000
-44,-8,49,1630317320.0,32.000000
-44,-8,49,1630317320.0,32.000000
-44,-8,49,1630317320.0,32.000000
-44,-8,48,1630317320.0,32.000000
-44,-8,49,1630317320.0,32.000000
-44,-8,48,1630317320.0,32.000000
-44,-8,48,1630317320.0,32.000000
-44,-8,49,1630317320.0,32.000000
-44,-8,49,1630317320.0,32.000000
-44,-8,49,1630317320.0,32.000000
-44,-8,49,1630317320.0,32.000000
-44,-8,49,1630317320.0,32.000000
-44,-8,49,1630317320.0,32.000000
-44,-8,49,1630317320.0,32.000000
-44,-8,49,1630317320.0,32.000000
-44,-8,49,1630317320.0,32.000000
-44,-8,49,1630317320.0,32.000000
-44,-8,49,1630317320.0,32.000000
-44,-8,48,1630317320.0,32.000000
-44,-8,49,1630317320.0,32.000000
-44,-8,49,1630317320.0,32.000000
-44,-8,49,1630317320.0,32.000000
-44,-8,49,1630317320.0,32.000000
-44,-8,49,1630317320.0,32.000000
-44,-8,49,1630317320.0,32.000000
-44,-8,49,1630317320.0,32.000000
-44,-8,49,1630317320.0,32.000000
-44,-8,49,1630317320.0,32.000000
-44,-8,49,1630317320.0,32.000000
-44,-8,49,1630317320.0,32.000000
-44,-8,48,1630317320.0,32.000000
-44,-8,49,1630317320.0,32.000000
-44,-8,49,1630317320.0,32.000000
-44,-8,49,1630317320.0,32.000000
-44,-8,48,1630317320.0,32.000000
-44,-8,49,1630317320.0,32.000000
-44,-8,49,1630317320.0,32.000000
-44,-8,49,1630317320.0,32.000000
-44,-8,49,1630317320.0,32.000000
-44,-8,49,1630317320.0,32.000000
-44,-8,49,1630317320.0,32.000000
-44,-8,49,1630317320.0,32.000000
-44,-8,49,1630317320.0,32.000000
-44,-8,48,1630317320.0,32.000000
-44,-8,49,1630317320.0,32.000000
-44,-8,49,1630317320.0,32.000000
-44,-8,49,1630317320.0,32.000000
-44,-8,49,1630317320.0,32.000000
-44,-8,49,1630317320.0,32.000000
-44,-8,49,1630317320.0,32.000000
-44,-8,49,1630317320.0,32.000000
-44,-8,49,1630317320.0,32.000000
-44,-8,48,1630317320.0,32.000000
-44,-8,49,1630317320.0,32.000000
-44,-8,49,1630317320.0,32.000000
-44,-8,48,1630317320.0,32.000000
-44,-8,48,1630317320.0,32.000000
-44,-8,49,1630317320.0,32.000000
-44,-8,49,1630317320.0,32.000000
-44,-7,49,1630317320.0,32.000000
-44,-8,49,1630317320.0,32.000000
-44,-8,49,1630317320.0,32.000000
-44,-8,48,1630317320.0,32.000000
-44,-8,48,1630317320.0,32.000000
-44,-8,48,1630317320.0,32.000000
-44,-8,49,1630317320.0,32.000000
-44,-8,48,1630317320.0,32.000000
-43,-8,49,1630317320.0,32.000000
-43,-8,49,1630317320.0,32.000000
-43,-8,49,1630317320.0,32.000000
-42,-8,49,1630317320.0,32.000000
-42,-8,49,1630317320.0,32.000000
-43,-8,49,1630317320.0,32.000000
-43,-8,50,1630317320.0,32.000000
-44,-8,48,1630317320.0,32.000000
-43,-9,49,1630317320.0,32.000000
-43,-10,49,1630317320.0,32.000000
-43,-10,49,1630317320.0,32.000000
-44,-8,49,1630317320.0,32.000000
-43,-8,50,1630317320.0,32.000000
-43,-8,50,1630317320.0,32.000000
-43,-8,50,1630317320.0,32.000000
-44,-8,49,1630317320.0,32.000000
-43,-8,49,1630317320.0,32.000000
-43,-8,48,1630317320.0,32.000000
-43,-8,48,1630317320.0,32.000000
-43,-8,49,1630317320.0,32.000000
-43,-7,50,1630317320.0,32.000000
-43,-7,51,1630317320.0,32.000000
-43,-8,53,1630317320.0,32.000000
-44,-8,51,1630317320.0,32.000000
-42,-9,47,1630317320.0,32.000000
-41,-9,47,1630317320.0,32.000000
-42,-7,48,1630317320.0,32.000000
-43,-7,51,1630317320.0,32.000000
-43,-8,51,1630317320.0,32.000000
-43,-8,50,1630317320.0,32.000000
-42,-8,49,1630317320.0,32.000000
-42,-7,50,1630317320.0,32.000000
-43,-8,50,1630317320.0,32.000000
-43,-8,50,1630317320.0,32.000000
-43,-8,50,1630317320.0,32.000000
-43,-8,50,1630317320.0,32.000000
-43,-8,50,1630317320.0,32.000000
-42,-8,49,1630317320.0,32.000000
-42,-8,49,1630317320.0,32.000000
-42,-7,49,1630317320.0,32.000000
-43,-6,50,1630317320.0,32.000000
-43,-8,50,1630317320.0,32.000000
-43,-8,50,1630317320.0,32.000000
-43,-8,49,1630317320.0,32.000000
-43,-8,49,1630317320.0,32.000000
-43,-8,49,1630317320.0,32.000000
-43,-8,49,1630317320.0,32.000000
-43,-8,50,1630317320.0,32.000000
-43,-8,50,1630317320.0,32.000000
-43,-8,50,1630317320.0,32.000000
-43,-8,49,1630317320.0,32.000000
-43,-8,49,1630317320.0,32.000000
-43,-8,50,1630317320.0,32.000000
-43,-8,49,1630317320.0,32.000000
-43,-8,50,1630317320.0,32.000000
-43,-8,49,1630317320.0,32.000000
-43,-8,49,1630317320.0,32.000000
-43,-8,49,1630317320.0,32.000000
-43,-7,50,1630317320.0,32.000000
-43,-8,49,1630317320.0,32.000000
-43,-8,49,1630317320.0,32.000000
-43,-8,49,1630317320.0,32.000000
-43,-8,49,1630317320.0,32.000000
-43,-8,49,1630317320.0,32.000000
-43,-8,50,1630317320.0,32.000000
-43,-8,50,1630317320.0,32.000000
-43,-8,49,1630317320.0,32.000000
-43,-8,49,1630317320.0,32.000000
-43,-8,50,1630317320.0,32.000000
-43,-8,50,1630317320.0,32.000000
-43,-8,50,1630317320.0,32.000000
-42,-9,49,1630317320.0,32.000000
-41,-9,49,1630317320.0,32.000000
-42,-7,49,1630317320.0,32.000000
-42,-7,50,1630317320.0,32.000000
-43,-8,50,1630317320.0,32.000000
-43,-9,50,1630317320.0,32.000000
-43,-8,49,1630317320.0,32.000000
-43,-8,49,1630317320.0,32.000000
-44,-9,49,1630317320.0,32.000000
-43,-8,50,1630317320.0,32.000000
-43,-8,49,1630317320.0,32.000000
-43,-8,50,1630317320.0,32.000000
-43,-8,50,1630317320.0,32.000000
-43,-8,49,1630317320.0,32.000000
-43,-8,50,1630317320.0,32.000000
-43,-8,49,1630317320.0,32.000000
-43,-8,49,1630317320.0,32.000000
-43,-8,49,1630317320.0,32.000000
-43,-8,49,1630317320.0,32.000000
-43,-8,49,1630317320.0,32.000000
-43,-8,49,1630317320.0,32.000000
-43,-8,49,1630317320.0,32.000000
-43,-8,49,1630317320.0,32.000000
-43,-8,49,1630317320.0,32.000000
-43,-8,49,1630317320.0,32.000000
-43,-8,49,1630317320.0,32.000000
-43,-8,49,1630317320.0,32.000000
-43,-8,49,1630317320.0,32.000000
-43,-8,49,1630317320.0,32.000000
-43,-8,49,1630317320.0,32.000000
-43,-8,49,1630317320.0,32.000000
-43,-8,49,1630317320.0,32.000000
-43,-8,49,1630317320.0,32.000000
-43,-8,49,1630317320.0,32.000000
-43,-8,49,1630317320.0,32.000000
-43,-8,49,1630317320.0,32.000000
-43,-8,49,1630317320.0,32.000000
-43,-8,49,1630317320.0,32.000000
-43,-8,49,1630317320.0,32.000000
-43,-8,50,1630317320.0,32.000000
-43,-8,49,1630317320.0,32.000000
-43,-8,49,1630317320.0,32.000000
-43,-8,49,1630317320.0,32.000000
-43,-8,49,1630317320.0,32.000000
-43,-8,49,1630317320.0,32.000000
-43,-8,49,1630317320.0,32.000000
-43,-8,49,1630317320.0,32.000000
-43,-8,49,1630317320.0,32.000000
-43,-8,49,1630317320.0,32.000000
-43,-8,49,1630317320.0,32.000000
-43,-8,49,1630317320.0,32.000000
-43,-8,49,1630317320.0,32.000000
-43,-8,49,1630317320.0,32.000000
-43,-8,49,1630317320.0,32.000000
-43,-8,49,1630317320.0,32.000000
-43,-8,49,1630317320.0,32.000000
-44,-8,49,1630317320.0,32.000000
-43,-8,49,1630317320.0,32.000000
-43,-8,49,1630317320.0,32.000000
-43,-8,49,1630317320.0,32.000000
-43,-8,49,1630317320.0,32.000000
-43,-8,49,1630317320.0,32.000000
-43,-8,49,1630317320.0,32.000000
-43,-8,50,1630317320.0,32.000000
-43,-8,50,1630317320.0,32.000000
-43,-8,49,1630317320.0,32.000000
-43,-8,48,1630317320.0,32.000000
-44,-8,48,1630317320.0,32.000000
-43,-8,49,1630317320.0,32.000000
-43,-8,49,1630317320.0,32.000000
-43,-8,49,1630317320.0,32.000000
-43,-8,49,1630317320.0,32.000000
-43,-8,49,1630317320.0,32.000000
-43,-8,49,1630317320.0,32.000000
-43,-8,49,1630317320.0,32.000000
-43,-8,49,1630317320.0,32.000000
-43,-8,49,1630317320.0,32.000000
-43,-8,49,1630317320.0,32.000000
-43,-8,49,1630317320.0,32.000000
-43,-8,50,1630317320.0,32.000000
-43,-8,50,1630317320.0,32.000000
-43,-8,50,1630317320.0,32.000000
-43,-8,50,1630317320.0,32.000000
-43,-9,48,1630317320.0,32.000000
-44,-10,47,1630317320.0,32.000000
-44,-9,47,1630317320.0,32.000000
-43,-9,49,1630317320.0,32.000000
-42,-8,51,1630317320.0,32.000000
-46,-8,47,1630317320.0,32.000000
-45,-8,48,1630317320.0,32.000000
-47,-8,47,1630317320.0,32.000000
-44,-9,49,1630317320.0,32.000000
-44,-8,50,1630317320.0,32.000000
-43,-8,49,1630317320.0,32.000000
-44,-8,48,1630317320.0,32.000000
-44,-9,48,1630317320.0,32.000000
-46,-9,46,1630317320.0,32.000000
-45,-8,47,1630317320.0,32.000000
-45,-9,48,1630317320.0,32.000000
-43,-8,50,1630317320.0,32.000000
-43,-8,49,1630317320.0,32.000000
-44,-8,48,1630317320.0,32.000000
-44,-8,48,1630317320.0,32.000000
-44,-9,48,1630317320.0,32.000000
-47,-10,45,1630317320.0,32.000000
-46,-9,46,1630317320.0,32.000000
-47,-9,45,1630317320.0,32.000000
-45,-9,47,1630317320.0,32.000000
-45,-8,48,1630317320.0,32.000000
-44,-8,49,1630317320.0,32.000000
-44,-9,49,1630317320.0,32.000000
-45,-9,48,1630317320.0,32.000000
-45,-9,47,1630317320.0,32.000000
-45,-9,47,1630317320.0,32.000000
-45,-9,47,1630317320.0,32.000000
-45,-9,47,1630317320.0,32.000000
-46,-9,47,1630317320.0,32.000000
-46,-9,47,1630317320.0,32.000000
-45,-9,48,1630317320.0,32.000000
-45,-9,47,1630317320.0,32.000000
-46,-10,46,1630317320.0,32.000000
-46,-10,45,1630317320.0,32.000000
-47,-10,45,1630317320.0,32.000000
-46,-10,46,1630317320.0,32.000000
-46,-10,46,1630317320.0,32.000000
-45,-10,47,1630317320.0,32.000000
-46,-10,46,1630317320.0,32.000000
-46,-10,47,1630317320.0,32.000000
-46,-10,47,1630317320.0,32.000000
-45,-10,47,1630317320.0,32.000000
-46,-10,46,1630317320.0,32.000000
-46,-10,47,1630317320.0,32.000000
-46,-10,47,1630317320.0,32.000000
-46,-10,46,1630317320.0,32.000000
-46,-10,46,1630317320.0,32.000000
-46,-10,46,1630317320.0,32.000000
-46,-10,46,1630317320.0,32.000000
-46,-10,46,1630317320.0,32.000000
-46,-10,46,1630317320.0,32.000000
-46,-10,46,1630317320.0,32.000000
-46,-10,47,1630317320.0,32.000000
-46,-10,46,1630317320.0,32.000000
-46,-10,46,1630317320.0,32.000000
-46,-10,46,1630317320.0,32.000000
-46,-10,47,1630317320.0,32.000000
-46,-10,47,1630317320.0,32.000000
-46,-10,46,1630317320.0,32.000000
-46,-10,47,1630317320.0,32.000000
-46,-10,46,1630317320.0,32.000000
-46,-10,46,1630317320.0,32.000000
-46,-10,46,1630317320.0,32.000000
-46,-10,46,1630317320.0,32.000000
-46,-10,47,1630317320.0,32.000000
-46,-10,46,1630317320.0,32.000000
-46,-10,46,1630317320.0,32.000000
-46,-10,46,1630317320.0,32.000000
-46,-10,46,1630317320.0,32.000000
-46,-10,46,1630317320.0,32.000000
-46,-10,46,1630317320.0,32.000000
-46,-10,46,1630317320.0,32.000000
-46,-10,46,1630317320.0,32.000000
-46,-10,46,1630317320.0,32.000000
-47,-10,45,1630317320.0,32.000000
-48,-9,47,1630317320.0,32.000000
-50,-7,47,1630317320.0,32.000000
-52,-11,46,1630317320.0,32.000000
-48,-11,50,1630317320.0,32.000000
-56,-8,51,1630317320.0,32.000000
-57,-7,56,1630317320.0,32.000000
-54,-9,57,1630317320.0,32.000000
-59,-12,61,1630317320.0,32.000000
-63,-16,62,1630317320.0,32.000000
-64,-23,61,1630317320.0,32.000000
-56,-16,50,1630317320.0,32.000000
-54,-35,42,1630317320.0,32.000000
-30,-35,36,1630317320.0,32.000000
-17,-38,32,1630317320.0,32.000000
3,-42,26,1630317320.0,32.000000
4,-43,24,1630317320.0,32.000000
14,-43,22,1630317320.0,32.000000
24,-43,21,1630317320.0,32.000000
27,-44,23,1630317320.0,32.000000
35,-42,29,1630317320.0,32.000000
34,-42,30,1630317320.0,32.000000
25,-43,31,1630317320.0,32.000000
25,-47,30,1630317320.0,32.000000
23,-49,28,1630317320.0,32.000000
17,-50,31,1630317320.0,32.000000
13,-50,30,1630317320.0,32.000000
18,-55,25,1630317320.0,32.000000
21,-54,21,1630317320.0,32.000000
29,-52,22,1630317320.0,32.000000
27,-46,31,1630317320.0,32.000000
29,-46,36,1630317320.0,32.000000
27,-53,21,1630317320.0,32.000000
28,-50,17,1630317320.0,32.000000
29,-50,17,1630317320.0,32.000000
32,-46,21,1630317320.0,32.000000
33,-49,20,1630317320.0,32.000000
33,-56,17,1630317320.0,32.000000
35,-53,21,1630317320.0,32.000000
34,-53,21,1630317320.0,32.000000
36,-51,14,1630317320.0,32.000000
31,-47,14,1630317320.0,32.000000
29,-45,18,1630317320.0,32.000000
32,-49,16,1630317320.0,32.000000
25,-49,20,1630317320.0,32.000000
23,-51,27,1630317320.0,32.000000
25,-50,25,1630317320.0,32.000000
30,-50,25,1630317320.0,32.000000
34,-57,19,1630317320.0,32.000000
33,-56,18,1630317320.0,32.000000
34,-55,19,1630317320.0,32.000000
32,-54,18,1630317320.0,32.000000
35,-53,14,1630317320.0,32.000000
34,-50,16,1630317320.0,32.000000
33,-47,20,1630317320.0,32.000000
30,-49,15,1630317320.0,32.000000
29,-49,15,1630317320.0,32.000000
30,-50,18,1630317320.0,32.000000
30,-50,17,1630317320.0,32.000000
20,-50,25,1630317320.0,32.000000
28,-50,23,1630317320.0,32.000000
35,-51,17,1630317320.0,32.000000
40,-52,21,1630317320.0,32.000000
35,-51,22,1630317320.0,32.000000
32,-54,13,1630317320.0,32.000000
33,-55,12,1630317320.0,32.000000
34,-54,13,1630317320.0,32.000000
35,-52,21,1630317320.0,32.000000
35,-50,20,1630317320.0,32.000000
28,-50,18,1630317320.0,32.000000
24,-50,12,1630317320.0,32.000000
24,-49,12,1630317320.0,32.000000
24,-52,15,1630317320.0,32.000000
32,-52,20,1630317320.0,32.000000
37,-53,21,1630317320.0,32.000000
20,-50,27,1630317320.0,32.000000
12,-48,34,1630317320.0,32.000000
31,-55,24,1630317320.0,32.000000
37,-57,17,1630317320.0,32.000000
32,-52,25,1630317320.0,32.000000
31,-53,20,1630317320.0,32.000000
31,-53,17,1630317320.0,32.000000
30,-54,18,1630317320.0,32.000000
31,-54,20,1630317320.0,32.000000
27,-50,24,1630317320.0,32.000000
27,-51,21,1630317320.0,32.000000
25,-48,13,1630317320.0,32.000000
29,-43,31,1630317320.0,32.000000
31,-49,32,1630317320.0,32.000000
15,-50,36,1630317320.0,32.000000
9,-50,40,1630317320.0,32.000000
28,-56,20,1630317320.0,32.000000
25,-53,29,1630317320.0,32.000000
23,-53,32,1630317320.0,32.000000
26,-54,25,1630317320.0,32.000000
21,-56,22,1630317320.0,32.000000
22,-47,25,1630317320.0,32.000000
18,-48,30,1630317320.0,32.000000
19,-50,28,1630317320.0,32.000000
18,-49,38,1630317320.0,32.000000
16,-51,39,1630317320.0,32.000000
17,-55,29,1630317320.0,32.000000
15,-51,32,1630317320.0,32.000000
17,-49,34,1630317320.0,32.000000
12,-48,37,1630317320.0,32.000000
11,-48,40,1630317320.0,32.000000
14,-50,38,1630317320.0,32.000000
19,-51,29,1630317320.0,32.000000
14,-53,28,1630317320.0,32.000000
15,-53,29,1630317320.0,32.000000
19,-52,33,1630317320.0,32.000000
22,-52,33,1630317320.0,32.000000
16,-49,28,1630317320.0,32.000000
14,-48,26,1630317320.0,32.000000
17,-50,28,1630317320.0,32.000000
18,-49,31,1630317320.0,32.000000
23,-50,31,1630317320.0,32.000000
22,-49,28,1630317320.0,32.000000
26,-50,27,1630317320.0,32.000000
33,-50,30,1630317320.0,32.000000
31,-49,29,1630317320.0,32.000000
23,-51,30,1630317320.0,32.000000
20,-54,27,1630317320.0,32.000000
22,-50,27,1630317320.0,32.000000
14,-50,27,1630317320.0,32.000000
11,-49,27,1630317320.0,32.000000
4,-55,28,1630317320.0,32.000000
1,-54,27,1630317320.0,32.000000
1,-52,24,1630317320.0,32.000000
1,-51,28,1630317320.0,32.000000
-4,-50,32,1630317320.0,32.000000
-24,-47,30,1630317320.0,32.000000
-33,-46,28,1630317320.0,32.000000
-49,-38,28,1630317320.0,32.000000
-59,-38,21,1630317320.0,32.000000
-53,-39,18,1630317320.0,32.000000
-46,-33,24,1630317320.0,32.000000
-58,-29,22,1630317320.0,32.000000
-60,-26,26,1630317320.0,32.000000
-54,-23,32,1630317320.0,32.000000
-54,-20,33,1630317320.0,32.000000
-56,-20,30,1630317320.0,32.000000
-56,-18,32,1630317320.0,32.000000
-57,-16,34,1630317320.0,32.000000
-55,-17,34,1630317320.0,32.000000
-53,-17,34,1630317320.0,32.000000
-52,-18,39,1630317320.0,32.000000
-60,-16,46,1630317320.0,32.000000
-55,-19,44,1630317320.0,32.000000
-53,-7,39,1630317320.0,32.000000
-58,-7,40,1630317320.0,32.000000
-56,-5,39,1630317320.0,32.000000
-56,-5,39,1630317320.0,32.000000
-58,-4,39,1630317320.0,32.000000
-60,-4,40,1630317320.0,32.000000
-57,-3,36,1630317320.0,32.000000
-52,-2,40,1630317320.0,32.000000
-51,-2,42,1630317320.0,32.000000
-49,-5,44,1630317320.0,32.000000
-48,-5,45,1630317320.0,32.000000
-47,-5,47,1630317320.0,32.000000
-46,-5,47,1630317320.0,32.000000
-48,-4,46,1630317320.0,32.000000
-48,-3,46,1630317320.0,32.000000
-48,-3,46,1630317320.0,32.000000
-48,-4,46,1630317320.0,32.000000
-48,-3,45,1630317320.0,32.000000
-49,-5,44,1630317320.0,32.000000
-48,-4,45,1630317320.0,32.000000
-47,-3,46,1630317320.0,32.000000
-47,-4,46,1630317320.0,32.000000
-47,-5,46,1630317320.0,32.000000
-47,-4,46,1630317320.0,32.000000
-47,-5,46,1630317320.0,32.000000
-48,-5,46,1630317320.0,32.000000
-47,-4,46,1630317320.0,32.000000
-48,-4,46,1630317320.0,32.000000
-48,-5,45,1630317320.0,32.000000
-48,-5,45,1630317320.0,32.000000
-48,-4,46,1630317320.0,32.000000
-48,-4,46,1630317320.0,32.000000
-48,-5,45,1630317320.0,32.000000
-48,-5,45,1630317320.0,32.000000
-48,-5,45,1630317320.0,32.000000
-47,-5,46,1630317320.0,32.000000
-48,-6,45,1630317320.0,32.000000
-48,-5,45,1630317320.0,32.000000
-47,-5,46,1630317320.0,32.000000
-47,-5,46,1630317320.0,32.000000
-47,-6,45,1630317320.0,32.000000
-48,-6,45,1630317320.0,32.000000
-48,-5,46,1630317320.0,32.000000
-48,-5,45,1630317320.0,32.000000
-48,-6,45,1630317320.0,32.000000
-47,-6,45,1630317320.0,32.000000
-48,-5,46,1630317320.0,32.000000
-47,-5,46,1630317320.0,32.000000
-48,-5,46,1630317320.0,32.000000
-47,-5,46,1630317320.0,32.000000
-47,-5,46,1630317320.0,32.000000
-48,-6,45,1630317320.0,32.000000
-48,-6,45,1630317320.0,32.000000
-48,-5,45,1630317320.0,32.000000
-48,-6,45,1630317320.0,32.000000
-48,-6,45,1630317320.0,32.000000
-47,-7,45,1630317320.0,32.000000
-48,-6,45,1630317320.0,32.000000
-48,-6,45,1630317320.0,32.000000
-48,-6,45,1630317320.0,32.000000
-48,-7,45,1630317320.0,32.000000
-47,-7,45,1630317320.0,32.000000
-47,-7,46,1630317320.0,32.000000
-47,-7,46,1630317320.0,32.000000
-47,-8,45,1630317320.0,32.000000
-48,-8,46,1630317320.0,32.000000
-45,-11,46,1630317320.0,32.000000
-47,-12,48,1630317320.0,32.000000
-47,-11,47,1630317320.0,32.000000
-43,-11,49,1630317320.0,32.000000
-33,-8,50,1630317320.0,32.000000
-45,-2,50,1630317320.0,32.000000
-61,-3,42,1630317320.0,32.000000
-65,0,37,1630317320.0,32.000000
-60,-3,38,1630317320.0,32.000000
-38,-10,50,1630317320.0,32.000000
-39,-11,49,1630317320.0,32.000000
-52,-10,43,1630317320.0,32.000000
-57,-3,42,1630317320.0,32.000000
-45,-7,47,1630317320.0,32.000000
-44,-8,50,1630317320.0,32.000000
-45,-9,47,1630317320.0,32.000000
-47,-8,48,1630317320.0,32.000000
-51,-8,45,1630317320.0,32.000000
-42,-11,48,1630317320.0,32.000000
-43,-11,50,1630317320.0,32.000000
-40,-12,49,1630317320.0,32.000000
-42,-12,48,1630317320.0,32.000000
-40,-13,47,1630317320.0,32.000000
-39,-14,47,1630317320.0,32.000000
-44,-12,48,1630317320.0,32.000000
-43,-10,50,1630317320.0,32.000000
-42,-10,51,1630317320.0,32.000000
-39,-11,50,1630317320.0,32.000000
-39,-11,51,1630317320.0,32.000000
-40,-10,50,1630317320.0,32.000000
-44,-9,49,1630317320.0,32.000000
-38,-9,54,1630317320.0,32.000000
-43,-8,49,1630317320.0,32.000000
-43,-8,51,1630317320.0,32.000000
-45,-4,56,1630317320.0,32.000000
-41,-1,64,1630317320.0,32.000000
-38,11,74,1630317320.0,32.000000
-29,18,59,1630317320.0,32.000000
-23,21,60,1630317320.0,32.000000
-44,11,64,1630317320.0,32.000000
-48,4,57,1630317320.0,32.000000
-37,-2,51,1630317320.0,32.000000
-32,-10,48,1630317320.0,32.000000
-35,-13,48,1630317320.0,32.000000
-31,-15,48,1630317320.0,32.000000
-29,-19,47,1630317320.0,32.000000
-27,-28,44,1630317320.0,32.000000
-24,-31,47,1630317320.0,32.000000
-22,-32,47,1630317320.0,32.000000
-22,-38,47,1630317320.0,32.000000
-22,-38,49,1630317320.0,32.000000
-25,-31,52,1630317320.0,32.000000
-21,-38,48,1630317320.0,32.000000
-27,-29,57,1630317320.0,32.000000
-12,-12,66,1630317320.0,32.000000
-10,-13,65,1630317320.0,32.000000
-18,-13,55,1630317320.0,32.000000
-20,-10,64,1630317320.0,32.000000
-18,-10,69,1630317320.0,32.000000
-30,-11,62,1630317320.0,32.000000
-34,-11,59,1630317320.0,32.000000
-35,-10,68,1630317320.0,32.000000
-35,-12,60,1630317320.0,32.000000
-35,-11,54,1630317320.0,32.000000
-33,-11,52,1630317320.0,32.000000
-33,-11,52,1630317320.0,32.000000
-36,-12,50,1630317320.0,32.000000
-34,-13,53,1630317320.0,32.000000
-29,-12,56,1630317320.0,32.000000
-32,-11,58,1630317320.0,32.000000
-33,-11,58,1630317320.0,32.000000
-33,-10,58,1630317320.0,32.000000
-32,-6,58,1630317320.0,32.000000
-32,-4,58,1630317320.0,32.000000
-34,-1,54,1630317320.0,32.000000
-33,1,53,1630317320.0,32.000000
-35,7,54,1630317320.0,32.000000
-35,9,54,1630317320.0,32.000000
-30,11,51,1630317320.0,32.000000
-35,16,52,1630317320.0,32.000000
-37,17,55,1630317320.0,32.000000
-29,14,54,1630317320.0,32.000000
-30,10,51,1630317320.0,32.000000
-44,9,54,1630317320.0,32.000000
-49,3,60,1630317320.0,32.000000
-41,1,55,1630317320.0,32.000000
-43,6,49,1630317320.0,32.000000
-43,6,51,1630317320.0,32.000000
-42,6,51,1630317320.0,32.000000
-46,6,52,1630317320.0,32.000000
-44,7,52,1630317320.0,32.000000
-43,6,50,1630317320.0,32.000000
-43,6,51,1630317320.0,32.000000
-42,5,50,1630317320.0,32.000000
-45,7,48,1630317320.0,32.000000
-44,8,49,1630317320.0,32.000000
-43,8,50,1630317320.0,32.000000
-43,8,50,1630317320.0,32.000000
-43,8,50,1630317320.0,32.000000
-43,8,49,1630317320.0,32.000000
-45,7,49,1630317320.0,32.000000
-45,10,50,1630317320.0,32.000000
-45,12,51,1630317320.0,32.000000
-46,15,52,1630317320.0,32.000000
-52,20,53,1630317320.0,32.000000
-51,21,54,1630317320.0,32.000000
-39,15,53,1630317320.0,32.000000
-31,13,53,1630317320.0,32.000000
-32,10,51,1630317320.0,32.000000
-32,8,53,1630317320.0,32.000000
-32,8,55,1630317320.0,32.000000
-38,7,54,1630317320.0,32.000000
-40,6,52,1630317320.0,32.000000
-32,3,53,1630317320.0,32.000000
-32,3,51,1630317320.0,32.000000
-28,1,52,1630317320.0,32.000000
-24,-1,55,1630317320.0,32.000000
-16,-3,56,1630317320.0,32.000000
0,-10,55,1630317320.0,32.000000
10,-11,62,1630317320.0,32.000000
-8,-8,70,1630317320.0,32.000000
-15,-7,70,1630317320.0,32.000000
-19,-9,64,1630317320.0,32.000000
-13,-3,68,1630317320.0,32.000000
-11,0,68,1630317320.0,32.000000
-5,2,66,1630317320.0,32.000000
5,5,67,1630317320.0,32.000000
7,8,69,1630317320.0,32.000000
6,14,67,1630317320.0,32.000000
9,19,66,1630317320.0,32.000000
8,28,65,1630317320.0,32.000000
5,29,62,1630317320.0,32.000000
4,29,65,1630317320.0,32.000000
8,24,77,1630317320.0,32.000000
15,29,80,1630317320.0,32.000000
15,13,45,1630317320.0,32.000000
14,11,62,1630317320.0,32.000000
7,12,71,1630317320.0,32.000000
9,11,53,1630317320.0,32.000000
12,16,53,1630317320.0,32.000000
4,21,64,1630317320.0,32.000000
17,9,54,1630317320.0,32.000000
8,16,52,1630317320.0,32.000000
12,20,60,1630317320.0,32.000000
13,19,61,1630317320.0,32.000000
15,18,56,1630317320.0,32.000000
17,20,58,1630317320.0,32.000000
16,18,58,1630317320.0,32.000000
17,19,62,1630317320.0,32.000000
16,17,61,1630317320.0,32.000000
21,20,61,1630317320.0,32.000000
20,18,59,1630317320.0,32.000000
17,16,60,1630317320.0,32.000000
21,20,57,1630317320.0,32.000000
18,18,60,1630317320.0,32.000000
21,16,58,1630317320.0,32.000000
19,18,55,1630317320.0,32.000000
19,19,60,1630317320.0,32.000000
19,18,57,1630317320.0,32.000000
20,20,55,1630317320.0,32.000000
22,21,55,1630317320.0,32.000000
21,22,55,1630317320.0,32.000000
19,23,53,1630317320.0,32.000000
15,21,53,1630317320.0,32.000000
22,26,59,1630317320.0,32.000000
21,25,58,1630317320.0,32.000000
20,24,57,1630317320.0,32.000000
17,25,59,1630317320.0,32.000000
16,23,56,1630317320.0,32.000000
19,25,56,1630317320.0,32.000000
21,24,53,1630317320.0,32.000000
20,27,57,1630317320.0,32.000000
8,37,62,1630317320.0,32.000000
13,37,69,1630317320.0,32.000000
30,24,45,1630317320.0,32.000000
27,23,47,1630317320.0,32.000000
26,23,49,1630317320.0,32.000000
27,24,57,1630317320.0,32.000000
30,23,62,1630317320.0,32.000000
23,22,65,1630317320.0,32.000000
23,24,74,1630317320.0,32.000000
24,21,75,1630317320.0,32.000000
18,14,71,1630317320.0,32.000000
15,8,61,1630317320.0,32.000000
-5,3,44,1630317320.0,32.000000
-17,-6,49,1630317320.0,32.000000
-2,-9,59,1630317320.0,32.000000
6,-10,54,1630317320.0,32.000000
6,-17,46,1630317320.0,32.000000
-10,-14,63,1630317320.0,32.000000
-18,-26,51,1630317320.0,32.000000
-6,-26,54,1630317320.0,32.000000
-4,-27,51,1630317320.0,32.000000
-12,-25,52,1630317320.0,32.000000
-21,-19,57,1630317320.0,32.000000
-19,-15,57,1630317320.0,32.000000
-21,-13,55,1630317320.0,32.000000
-24,-9,61,1630317320.0,32.000000
-23,-7,63,1630317320.0,32.000000
-20,0,64,1630317320.0,32.000000
-12,0,62,1630317320.0,32.000000
-9,-1,60,1630317320.0,32.000000
-16,1,52,1630317320.0,32.000000
-17,1,54,1630317320.0,32.000000
-24,2,66,1630317320.0,32.000000
-39,0,83,1630317320.0,32.000000
-39,-1,74,1630317320.0,32.000000
-29,-5,60,1630317320.0,32.000000
-26,-5,61,1630317320.0,32.000000
-22,-6,61,1630317320.0,32.000000
-26,-13,63,1630317320.0,32.000000
-23,-4,63,1630317320.0,32.000000
-18,-3,66,1630317320.0,32.000000
-25,-1,61,1630317320.0,32.000000
-25,-2,59,1630317320.0,32.000000
-27,2,60,1630317320.0,32.000000
-33,3,57,1630317320.0,32.000000
-27,1,59,1630317320.0,32.000000
-27,0,60,1630317320.0,32.000000
-25,1,61,1630317320.0,32.000000
-29,-2,59,1630317320.0,32.000000
-29,-2,59,1630317320.0,32.000000
-27,-1,59,1630317320.0,32.000000
-28,-1,61,1630317320.0,32.000000
-27,0,60,1630317320.0,32.000000
-27,0,61,1630317320.0,32.000000
-23,3,64,1630317320.0,32.000000
-24,2,63,1630317320.0,32.000000
-25,4,59,1630317320.0,32.000000
-24,5,69,1630317320.0,32.000000
-13,8,73,1630317320.0,32.000000
-12,4,69,1630317320.0,32.000000
2,3,66,1630317320.0,32.000000
5,6,59,1630317320.0,32.000000
-5,-4,59,1630317320.0,32.000000
-6,1,62,1630317320.0,32.000000
-6,-1,58,1630317320.0,32.000000
-7,0,63,1630317320.0,32.000000
-3,1,64,1630317320.0,32.000000
-2,-8,52,1630317320.0,32.000000
-10,-11,44,1630317320.0,32.000000
-32,-11,48,1630317320.0,32.000000
-30,-10,65,1630317320.0,32.000000
-49,11,69,1630317320.0,32.000000
-34,-27,47,1630317320.0,32.000000
-28,-18,58,1630317320.0,32.000000
-27,-16,60,1630317320.0,32.000000
-25,-16,59,1630317320.0,32.000000
-23,-20,66,1630317320.0,32.000000
-13,-17,63,1630317320.0,32.000000
-17,-13,61,1630317320.0,32.000000
-33,-11,56,1630317320.0,32.000000
-36,-9,55,1630317320.0,32.000000
-31,-10,56,1630317320.0,32.000000
-25,-12,59,1630317320.0,32.000000
-25,-13,59,1630317320.0,32.000000
-25,-13,59,1630317320.0,32.000000
-26,-13,59,1630317320.0,32.000000
-25,-12,58,1630317320.0,32.000000
-27,-12,59,1630317320.0,32.000000
-29,-11,58,1630317320.0,32.000000
-30,-9,59,1630317320.0,32.000000
-28,-9,59,1630317320.0,32.000000
-29,-12,54,1630317320.0,32.000000
-22,-12,58,1630317320.0,32.000000
-28,-15,57,1630317320.0,32.000000
-23,-18,53,1630317320.0,32.000000
-32,-13,53,1630317320.0,32.000000
-39,-10,60,1630317320.0,32.000000
-33,-13,57,1630317320.0,32.000000
-30,-9,56,1630317320.0,32.000000
-35,-7,54,1630317320.0,32.000000
-44,-9,48,1630317320.0,32.000000
-48,-12,45,1630317320.0,32.000000
-40,-11,50,1630317320.0,32.000000
-38,-12,53,1630317320.0,32.000000
-41,-11,50,1630317320.0,32.000000
-42,-11,50,1630317320.0,32.000000
-40,-11,50,1630317320.0,32.000000
-41,-11,50,1630317320.0,32.000000
-42,-11,50,1630317320.0,32.000000
-41,-11,50,1630317320.0,32.000000
-42,-11,50,1630317320.0,32.000000
-42,-11,49,1630317320.0,32.000000
-42,-11,50,1630317320.0,32.000000
-42,-11,50,1630317320.0,32.000000
-42,-11,49,1630317320.0,32.000000
-42,-11,49,1630317320.0,32.000000
-41,-11,50,1630317320.0,32.000000
-41,-11,50,1630317320.0,32.000000
-43,-11,49,1630317320.0,32.000000
-42,-11,49,1630317320.0,32.000000
-42,-11,50,1630317320.0,32.000000
-43,-11,49,1630317320.0,32.000000
-42,-11,49,1630317320.0,32.000000
-43,-12,49,1630317320.0,32.000000
-43,-11,48,1630317320.0,32.000000
-43,-11,49,1630317320.0,32.000000
-43,-11,49,1630317320.0,32.000000
-43,-11,49,1630317320.0,32.000000
-43,-11,49,1630317320.0,32.000000
-42,-11,49,1630317320.0,32.000000
-42,-11,49,1630317320.0,32.000000
-42,-12,49,1630317320.0,32.000000
-42,-12,49,1630317320.0,32.000000
-43,-12,49,1630317320.0,32.000000
-43,-11,49,1630317320.0,32.000000
-43,-11,48,1630317320.0,32.000000
-43,-10,48,1630317320.0,32.000000
-43,-11,49,1630317320.0,32.000000
-42,-11,50,1630317320.0,32.000000
-41,-13,50,1630317320.0,32.000000
-42,-14,49,1630317320.0,32.000000
-43,-12,48,1630317320.0,32.000000
-43,-12,49,1630317320.0,32.000000
-43,-11,48,1630317320.0,32.000000
-43,-11,49,1630317320.0,32.000000
-43,-11,48,1630317320.0,32.000000
-43,-12,48,1630317320.0,32.000000
-43,-11,48,1630317320.0,32.000000
-43,-11,49,1630317320.0,32.000000
-43,-11,48,1630317320.0,32.000000
-43,-11,49,1630317320.0,32.000000
-42,-11,49,1630317320.0,32.000000
-43,-11,49,1630317320.0,32.000000
-42,-12,49,1630317320.0,32.000000
-43,-11,49,1630317320.0,32.000000
-43,-11,49,1630317320.0,32.000000
-42,-11,49,1630317320.0,32.000000
-42,-11,49,1630317320.0,32.000000
-42,-11,49,1630317320.0,32.000000
-43,-11,49,1630317320.0,32.000000
-43,-11,49,1630317320.0,32.000000
-43,-11,49,1630317320.0,32.000000
-43,-11,49,1630317320.0,32.000000
-43,-11,49,1630317320.0,32.000000
-43,-11,49,1630317320.0,32.000000
-43,-11,49,1630317320.0,32.000000
-43,-12,49,1630317320.0,32.000000
-42,-11,49,1630317320.0,32.000000
-43,-12,48,1630317320.0,32.000000
-43,-11,49,1630317320.0,32.000000
-42,-11,49,1630317320.0,32.000000
-42,-11,49,1630317320.0,32.000000
-43,-11,49,1630317320.0,32.000000
-43,-11,49,1630317320.0,32.000000
-43,-11,49,1630317320.0,32.000000
-42,-11,49,1630317320.0,32.000000
-42,-11,49,1630317320.0,32.000000
-43,-11,49,1630317320.0,32.000000
-43,-11,49,1630317320.0,32.000000
-43,-11,49,1630317320.0,32.000000
-43,-11,49,1630317320.0,32.000000
-43,-11,49,1630317320.0,32.000000
-43,-11,49,1630317320.0,32.000000
-43,-11,49,1630317320.0,32.000000
-43,-12,48,1630317320.0,32.000000
-43,-11,48,1630317320.0,32.000000
-43,-11,48,1630317320.0,32.000000
-43,-11,48,1630317320.0,32.000000
-43,-11,49,1630317320.0,32.000000
-43,-11,48,1630317320.0,32.000000
-43,-11,48,1630317320.0,32.000000
-43,-11,49,1630317320.0,32.000000
-43,-11,48,1630317320.0,32.000000
-43,-11,49,1630317320.0,32.000000
-43,-11,49,1630317320.0,32.000000
-43,-11,49,1630317320.0,32.000000
-43,-11,48,1630317320.0,32.000000
-43,-11,49,1630317320.0,32.000000
-43,-11,49,1630317320.0,32.000000
-43,-11,49,1630317320.0,32.000000
-43,-11,49,1630317320.0,32.000000
-43,-11,49,1630317320.0,32.000000
-43,-11,49,1630317320.0,32.000000
-43,-11,49,1630317320.0,32.000000
-43,-11,49,1630317320.0,32.000000
-43,-11,48,1630317320.0,32.000000
-43,-11,49,1630317320.0,32.000000
-43,-11,48,1630317320.0,32.000000
-43,-11,49,1630317320.0,32.000000
-43,-11,49,1630317320.0,32.000000
-43,-11,49,1630317320.0,32.000000
-43,-11,48,1630317320.0,32.000000
-43,-11,48,1630317320.0,32.000000
-43,-11,48,1630317320.0,32.000000
-43,-11,49,1630317320.0,32.000000
-43,-11,49,1630317320.0,32.000000
-43,-11,49,1630317320.0,32.000000
-43,-11,48,1630317320.0,32.000000
-43,-11,48,1630317320.0,32.000000
-43,-11,49,1630317320.0,32.000000
-43,-11,49,1630317320.0,32.000000
-43,-12,49,1630317320.0,32.000000
-43,-11,49,1630317320.0,32.000000
-43,-11,48,1630317320.0,32.000000
-43,-11,48,1630317320.0,32.000000
-43,-11,49,1630317320.0,32.000000
-43,-11,49,1630317320.0,32.000000
-43,-11,49,1630317320.0,32.000000
-43,-11,49,1630317320.0,32.000000
-43,-11,48,1630317320.0,32.000000
-43,-11,48,1630317320.0,32.000000
-44,-11,49,1630317320.0,32.000000
-43,-11,48,1630317320.0,32.000000
-43,-12,48,1630317320.0,32.000000
-43,-11,48,1630317320.0,32.000000
-43,-11,49,1630317320.0,32.000000
-43,-11,49,1630317320.0,32.000000
-43,-11,48,1630317320.0,32.000000
-43,-11,48,1630317320.0,32.000000
-43,-11,49,1630317320.0,32.000000
-43,-11,48,1630317320.0,32.000000
-43,-11,49,1630317320.0,32.000000
-43,-11,49,1630317320.0,32.000000
-43,-11,48,1630317320.0,32.000000
-43,-11,49,1630317320.0,32.000000
-43,-11,48,1630317320.0,32.000000
-43,-11,48,1630317320.0,32.000000
-43,-11,48,1630317320.0,32.000000
-43,-11,49,1630317320.0,32.000000
-43,-11,49,1630317320.0,32.000000
-43,-11,48,1630317320.0,32.000000
-43,-11,49,1630317320.0,32.000000
-43,-11,49,1630317320.0,32.000000
-43,-11,48,1630317320.0,32.000000
-43,-11,49,1630317320.0,32.000000
-43,-11,49,1630317320.0,32.000000
-43,-11,48,1630317320.0,32.000000
-43,-11,49,1630317320.0,32.000000
-43,-11,49,1630317320.0,32.000000
-43,-11,48,1630317320.0,32.000000
-43,-11,48,1630317320.0,32.000000
-43,-11,48,1630317320.0,32.000000
-43,-11,49,1630317320.0,32.000000
-43,-11,48,1630317320.0,32.000000
-43,-11,49,1630317320.0,32.000000
-43,-11,48,1630317320.0,32.000000
-43,-11,49,1630317320.0,32.000000
-43,-11,48,1630317320.0,32.000000
-43,-11,48,1630317320.0,32.000000
-43,-11,49,1630317320.0,32.000000
-43,-11,49,1630317320.0,32.000000
-43,-11,49,1630317320.0,32.000000
-43,-11,49,1630317320.0,32.000000
-43,-12,48,1630317320.0,32.000000
-43,-11,48,1630317320.0,32.000000
-44,-11,48,1630317320.0,32.000000
-43,-11,49,1630317320.0,32.000000
-43,-11,49,1630317320.0,32.000000
-43,-11,48,1630317320.0,32.000000
-43,-11,49,1630317320.0,32.000000
-43,-11,49,1630317320.0,32.000000
-43,-11,49,1630317320.0,32.000000
-43,-11,49,1630317320.0,32.000000
-43,-11,49,1630317320.0,32.000000
-43,-11,48,1630317320.0,32.000000
-43,-11,49,1630317320.0,32.000000
-43,-11,49,1630317320.0,32.000000
-43,-11,49,1630317320.0,32.000000
-43,-11,49,1630317320.0,32.000000
-43,-11,49,1630317320.0,32.000000
-43,-11,49,1630317320.0,32.000000
-43,-11,49,1630317320.0,32.000000
-43,-11,49,1630317320.0,32.000000
-43,-11,48,1630317320.0,32.000000
-43,-12,49,1630317320.0,32.000000
-43,-11,49,1630317320.0,32.000000
-43,-11,49,1630317320.0,32.000000
-43,-11,48,1630317320.0,32.000000
-43,-11,49,1630317320.0,32.000000
-43,-11,49,1630317320.0,32.000000
-43,-11,49,1630317320.0,32.000000
-43,-11,49,1630317320.0,32.000000
-43,-11,49,1630317320.0,32.000000
-43,-11,49,1630317320.0,32.000000
-43,-11,48,1630317320.0,32.000000
-43,-11,49,1630317320.0,32.000000
-43,-11,49,1630317320.0,32.000000
-43,-11,49,1630317320.0,32.000000
-44,-11,48,1630317320.0,32.000000
-43,-11,49,1630317320.0,32.000000
-43,-11,49,1630317320.0,32.000000
-43,-11,49,1630317320.0,32.000000
-43,-11,49,1630317320.0,32.000000
-43,-11,49,1630317320.0,32.000000
-43,-11,49,1630317320.0,32.000000
-43,-11,49,1630317320.0,32.000000
-42,-11,49,1630317320.0,32.000000
-43,-11,49,1630317320.0,32.000000
-43,-11,49,1630317320.0,32.000000
-43,-12,49,1630317320.0,32.000000
-43,-12,49,1630317320.0,32.000000
-43,-11,49,1630317320.0,32.000000
-42,-11,49,1630317320.0,32.000000
-43,-11,48,1630317320.0,32.000000
-43,-11,48,1630317320.0,32.000000
-43,-12,49,1630317320.0,32.000000
-43,-11,49,1630317320.0,32.000000
-43,-11,48,1630317320.0,32.000000
-43,-11,49,1630317320.0,32.000000
-43,-11,49,1630317320.0,32.000000
-43,-11,49,1630317320.0,32.000000
-43,-11,49,1630317320.0,32.000000
-43,-11,49,1630317320.0,32.000000
-43,-11,49,1630317320.0,32.000000
-43,-11,49,1630317320.0,32.000000
-43,-11,48,1630317320.0,32.000000
-43,-11,49,1630317320.0,32.000000
-43,-11,49,1630317320.0,32.000000
-43,-11,49,1630317320.0,32.000000
-43,-11,49,1630317320.0,32.000000
-43,-11,49,1630317320.0,32.000000
-43,-11,49,1630317320.0,32.000000
-43,-11,48,1630317320.0,32.000000
-43,-11,48,1630317320.0,32.000000
-43,-11,49,1630317320.0,32.000000
-43,-11,49,1630317320.0,32.000000
-43,-11,48,1630317320.0,32.000000
-43,-11,49,1630317320.0,32.000000
-43,-11,48,1630317320.0,32.000000
-43,-11,49,1630317320.0,32.000000
-43,-11,49,1630317320.0,32.000000
-43,-11,49,1630317320.0,32.000000
-43,-11,48,1630317320.0,32.000000
-43,-11,49,1630317320.0,32.000000
-43,-11,49,1630317320.0,32.000000
-43,-11,48,1630317320.0,32.000000
-43,-11,49,1630317320.0,32.000000
-43,-11,49,1630317320.0,32.000000
-43,-11,49,1630317320.0,32.000000
-43,-11,49,1630317320.0,32.000000
-43,-11,49,1630317320.0,32.000000
-43,-11,48,1630317320.0,32.000000
-43,-11,49,1630317320.0,32.000000
-43,-11,49,1630317320.0,32.000000
-43,-11,48,1630317320.0,32.000000
-43,-11,49,1630317320.0,32.000000
-43,-11,49,1630317320.0,32.000000
-43,-11,48,1630317320.0,32.000000
-43,-11,49,1630317320.0,32.000000
-43,-11,49,1630317320.0,32.000000
-43,-11,49,1630317320.0,32.000000
-43,-11,49,1630317320.0,32.000000
-43,-11,49,1630317320.0,32.000000
-43,-11,49,1630317320.0,32.000000
-43,-11,48,1630317320.0,32.000000
-43,-11,49,1630317320.0,32.000000
-43,-11,48,1630317320.0,32.000000
-43,-12,49,1630317320.0,32.000000
-43,-11,49,1630317320.0,32.000000
-43,-11,49,1630317320.0,32.000000
-43,-11,49,1630317320.0,32.000000
-43,-11,48,1630317320.0,32.000000
-43,-11,48,1630317320.0,32.000000
-43,-11,49,1630317320.0,32.000000
-43,-11,49,1630317320.0,32.000000
-43,-11,49,1630317320.0,32.000000
-43,-11,49,1630317320.0,32.000000
-43,-11,49,1630317320.0,32.000000
-43,-11,49,1630317320.0,32.000000
-43,-11,49,1630317320.0,32.000000
-43,-11,49,1630317320.0,32.000000
-43,-11,49,1630317320.0,32.000000
-43,-11,49,1630317320.0,32.000000
-43,-11,49,1630317320.0,32.000000
-43,-11,49,1630317320.0,32.000000
-43,-11,49,1630317320.0,32.000000
-43,-11,49,1630317320.0,32.000000
-43,-11,49,1630317320.0,32.000000
-43,-11,49,1630317320.0,32.000000
-43,-11,49,1630317320.0,32.000000
-43,-11,49,1630317320.0,32.000000
-43,-11,49,1630317320.0,32.000000
-43,-11,49,1630317320.0,32.000000
-43,-11,49,1630317320.0,32.000000
-43,-11,49,1630317320.0,32.000000
-43,-11,49,1630317320.0,32.000000
-43,-11,49,1630317320.0,32.000000
-43,-11,49,1630317320.0,32.000000
-43,-11,49,1630317320.0,32.000000
-43,-11,49,1630317320.0,32.000000
-43,-11,49,1630317320.0,32.000000
-43,-11,49,1630317320.0,32.000000
-43,-11,49,1630317320.0,32.000000
-43,-11,49,1630317320.0,32.000000
-43,-11,49,1630317320.0,32.000000
-43,-11,49,1630317320.0,32.000000
-43,-11,49,1630317320.0,32.000000
-43,-11,49,1630317320.0,32.000000
-43,-12,49,1630317320.0,32.000000
-43,-11,49,1630317320.0,32.000000
-43,-11,49,1630317320.0,32.000000
-43,-11,49,1630317320.0,32.000000
-43,-11,49,1630317320.0,32.000000
-43,-11,49,1630317320.0,32.000000
-43,-11,49,1630317320.0,32.000000
-43,-11,49,1630317320.0,32.000000
-43,-11,49,1630317320.0,32.000000
-43,-11,49,1630317320.0,32.000000
-43,-11,49,1630317320.0,32.000000
-43,-11,49,1630317320.0,32.000000
-43,-12,49,1630317320.0,32.000000
-43,-11,49,1630317320.0,32.000000
-43,-11,49,1630317320.0,32.000000
-43,-11,49,1630317320.0,32.000000
-43,-11,49,1630317320.0,32.000000
-43,-11,49,1630317320.0,32.000000
-43,-11,49,1630317320.0,32.000000
-43,-11,49,1630317320.0,32.000000
-43,-11,49,1630317320.0,32.000000
-43,-11,49,1630317320.0,32.000000
-43,-11,49,1630317320.0,32.000000
-43,-11,49,1630317320.0,32.000000
-43,-11,49,1630317320.0,32.000000
-43,-11,49,1630317320.0,32.000000
-43,-11,49,1630317320.0,32.000000
-43,-11,49,1630317320.0,32.000000
-43,-11,49,1630317320.0,32.000000
-43,-11,49,1630317320.0,32.000000
-43,-11,49,1630317320.0,32.000000
-43,-11,49,1630317320.0,32.000000
-42,-11,49,1630317320.0,32.000000
-43,-11,49,1630317320.0,32.000000
-43,-11,49,1630317320.0,32.000000
-43,-11,49,1630317320.0,32.000000
-43,-11,49,1630317320.0,32.000000
-43,-11,49,1630317320.0,32.000000
-43,-11,49,1630317320.0,32.000000
-43,-11,49,1630317320.0,32.000000
-43,-11,49,1630317320.0,32.000000
-43,-11,49,1630317320.0,32.000000
-43,-11,49,1630317320.0,32.000000
-43,-11,49,1630317320.0,32.000000
-43,-11,49,1630317320.0,32.000000
-43,-11,49,1630317320.0,32.000000
-43,-11,49,1630317320.0,32.000000
-43,-11,49,1630317320.0,32.000000
-43,-11,49,1630317320.0,32.000000
-43,-11,49,1630317320.0,32.000000
-43,-11,49,1630317320.0,32.000000
-43,-11,49,1630317320.0,32.000000
-43,-11,49,1630317320.0,32.000000
-43,-11,49,1630317320.0,32.000000
-43,-11,49,1630317320.0,32.000000
-43,-11,49,1630317320.0,32.000000
-43,-11,49,1630317320.0,32.000000
-43,-11,49,1630317320.0,32.000000
-43,-11,49,1630317320.0,32.000000
-43,-11,49,1630317320.0,32.000000
-43,-11,49,1630317320.0,32.000000
-43,-11,49,1630317320.0,32.000000
-43,-11,49,1630317320.0,32.000000
-43,-11,49,1630317320.0,32.000000
-43,-11,49,1630317320.0,32.000000
-43,-11,49,1630317320.0,32.000000
-43,-11,49,1630317320.0,32.000000
-43,-11,49,1630317320.0,32.000000
-43,-11,49,1630317320.0,32.000000
-43,-11,49,1630317320.0,32.000000
-43,-11,49,1630317320.0,32.000000
-43,-11,49,1630317320.0,32.000000
-43,-11,49,1630317320.0,32.000000
-43,-11,49,1630317320.0,32.000000
-43,-11,49,1630317320.0,32.000000
-43,-11,49,1630317320.0,32.000000
-43,-11,49,1630317320.0,32.000000
-42,-11,49,1630317320.0,32.000000
-43,-11,49,1630317320.0,32.000000
-43,-11,49,1630317320.0,32.000000
-43,-11,49,1630317320.0,32.000000
-43,-11,49,1630317320.0,32.000000
-43,-11,49,1630317320.0,32.000000
-42,-11,49,1630317320.0,32.000000
-42,-11,49,1630317320.0,32.000000
-43,-11,49,1630317320.0,32.000000
-43,-11,49,1630317320.0,32.000000
-42,-11,49,1630317320.0,32.000000
-42,-11,49,1630317320.0,32.000000
-43,-11,49,1630317320.0,32.000000
-42,-11,49,1630317320.0,32.000000
-42,-11,49,1630317320.0,32.000000
-43,-12,49,1630317320.0,32.000000
-43,-11,49,1630317320.0,32.000000
-43,-11,49,1630317320.0,32.000000
-42,-11,49,1630317320.0,32.000000
-43,-12,49,1630317320.0,32.000000
-43,-12,49,1630317320.0,32.000000
-43,-11,49,1630317320.0,32.000000
-43,-11,49,1630317320.0,32.000000
-43,-12,49,1630317320.0,32.000000
-43,-11,49,1630317320.0,32.000000
-42,-11,49,1630317320.0,32.000000
-43,-11,49,1630317320.0,32.000000
-43,-11,49,1630317320.0,32.000000
-43,-11,49,1630317320.0,32.000000
-42,-11,49,1630317320.0,32.000000
-43,-11,49,1630317320.0,32.000000
-43,-12,49,1630317320.0,32.000000
-42,-11,49,1630317320.0,32.000000
-42,-11,49,1630317320.0,32.000000
-43,-11,49,1630317320.0,32.000000
-42,-11,49,1630317320.0,32.000000
-43,-11,49,1630317320.0,32.000000
-43,-11,49,1630317320.0,32.000000
-43,-11,49,1630317320.0,32.000000
-43,-11,49,1630317320.0,32.000000
-43,-11,49,1630317320.0,32.000000
-43,-11,49,1630317320.0,32.000000
-43,-11,49,1630317320.0,32.000000
-43,-11,49,1630317320.0,32.000000
-43,-11,49,1630317320.0,32.000000
-43,-11,49,1630317320.0,32.000000
-42,-11,49,1630317320.0,32.000000
-43,-11,49,1630317320.0,32.000000
-43,-12,49,1630317320.0,32.000000
-43,-11,49,1630317320.0,32.000000
-43,-11,49,1630317320.0,32.000000
-43,-11,49,1630317320.0,32.000000
-42,-11,49,1630317320.0,32.000000
-43,-11,49,1630317320.0,32.000000
-43,-11,49,1630317320.0,32.000000
-42,-11,49,1630317320.0,32.000000
-43,-11,49,1630317320.0,32.000000
-42,-11,49,1630317320.0,32.000000
-43,-11,49,1630317320.0,32.000000
-43,-11,49,1630317320.0,32.000000
-43,-11,49,1630317320.0,32.000000
-42,-11,49,1630317320.0,32.000000
-43,-11,49,1630317320.0,32.000000
-42,-11,49,1630317320.0,32.000000
-43,-11,49,1630317320.0,32.000000
-43,-11,49,1630317320.0,32.000000
-43,-11,49,1630317320.0,32.000000
-42,-11,49,1630317320.0,32.000000
-43,-11,49,1630317320.0,32.000000
-43,-11,49,1630317320.0,32.000000
-42,-11,49,1630317320.0,32.000000
-42,-11,49,1630317320.0,32.000000
-43,-11,49,1630317320.0,32.000000
-42,-11,49,1630317320.0,32.000000
-42,-11,49,1630317320.0,32.000000
-42,-11,49,1630317320.0,32.000000
-42,-11,49,1630317320.0,32.000000
-42,-11,49,1630317320.0,32.000000
-42,-11,49,1630317320.0,32.000000
-43,-11,49,1630317320.0,32.000000
-42,-11,49,1630317320.0,32.000000
-42,-11,49,1630317320.0,32.000000
-42,-11,49,1630317320.0,32.000000
-43,-11,48,1630317320.0,32.000000
-45,-11,47,1630317320.0,32.000000
-52,-12,41,1630317320.0,32.000000
-49,-7,40,1630317320.0,32.000000
-34,-5,63,1630317320.0,32.000000
-28,-13,68,1630317320.0,32.000000
0,-15,74,1630317320.0,32.000000
6,-17,73,1630317320.0,32.000000
15,-17,74,1630317320.0,32.000000
13,-18,67,1630317320.0,32.000000
10,-20,66,1630317320.0,32.000000
13,-26,65,1630317320.0,32.000000
18,-27,66,1630317320.0,32.000000
21,-32,57,1630317320.0,32.000000
19,-35,62,1630317320.0,32.000000
18,-36,63,1630317320.0,32.000000
13,-37,56,1630317320.0,32.000000
6,-36,49,1630317320.0,32.000000
-4,-38,33,1630317320.0,32.000000
-22,-37,15,1630317320.0,32.000000
-24,-41,6,1630317320.0,32.000000
12,-38,23,1630317320.0,32.000000
13,-43,25,1630317320.0,32.000000
11,-39,38,1630317320.0,32.000000
18,-38,54,1630317320.0,32.000000
26,-41,57,1630317320.0,32.000000
50,-43,66,1630317320.0,32.000000
47,-42,53,1630317320.0,32.000000
-31,-32,-21,1630317320.0,32.000000
-11,-28,35,1630317320.0,32.000000
0,-35,62,1630317320.0,32.000000
9,-32,69,1630317320.0,32.000000
4,-34,54,1630317320.0,32.000000
-11,-31,36,1630317320.0,32.000000
-1,-22,52,1630317320.0,32.000000
6,-19,62,1630317320.0,32.000000
-7,-14,68,1630317320.0,32.000000
-10,-11,71,1630317320.0,32.000000
-7,-8,67,1630317320.0,32.000000
-19,-3,59,1630317320.0,32.000000
-28,0,68,1630317320.0,32.000000
-24,-1,71,1630317320.0,32.000000
-24,-2,69,1630317320.0,32.000000
-25,-3,64,1630317320.0,32.000000
-27,-2,62,1630317320.0,32.000000
-29,-1,60,1630317320.0,32.000000
-32,0,58,1630317320.0,32.000000
-33,0,57,1630317320.0,32.000000
-36,2,59,1630317320.0,32.000000
-36,2,60,1630317320.0,32.000000
-35,1,59,1630317320.0,32.000000
-33,0,59,1630317320.0,32.000000
-31,-1,60,1630317320.0,32.000000
-31,-1,62,1630317320.0,32.000000
-32,-1,58,1630317320.0,32.000000
-32,0,57,1630317320.0,32.000000
-35,4,59,1630317320.0,32.000000
-37,8,58,1630317320.0,32.000000
-41,4,53,1630317320.0,32.000000
-40,3,54,1630317320.0,32.000000
-35,3,55,1630317320.0,32.000000
-34,3,56,1630317320.0,32.000000
-34,3,57,1630317320.0,32.000000
-35,4,57,1630317320.0,32.000000
-35,4,55,1630317320.0,32.000000
-37,4,55,1630317320.0,32.000000
-35,4,56,1630317320.0,32.000000
-35,4,54,1630317320.0,32.000000
-46,4,50,1630317320.0,32.000000
-40,4,54,1630317320.0,32.000000
-44,19,59,1630317320.0,32.000000
-39,15,62,1630317320.0,32.000000
8,10,124,1630317320.0,32.000000
-2,-6,103,1630317320.0,32.000000
0,-11,91,1630317320.0,32.000000
4,-20,68,1630317320.0,32.000000
1,-21,59,1630317320.0,32.000000
-5,-25,42,1630317320.0,32.000000
-5,-27,30,1630317320.0,32.000000
-4,-28,27,1630317320.0,32.000000
-1,-26,28,1630317320.0,32.000000
6,-27,33,1630317320.0,32.000000
8,-28,34,1630317320.0,32.000000
5,-28,37,1630317320.0,32.000000
-2,-26,38,1630317320.0,32.000000
-11,-27,43,1630317320.0,32.000000
-13,-29,44,1630317320.0,32.000000
-13,-35,38,1630317320.0,32.000000
-23,-28,59,1630317320.0,32.000000
-30,-28,76,1630317320.0,32.000000
-44,-36,90,1630317320.0,32.000000
-47,-39,86,1630317320.0,32.000000
-50,-36,65,1630317320.0,32.000000
-49,-43,33,1630317320.0,32.000000
-32,-47,26,1630317320.0,32.000000
-15,-43,12,1630317320.0,32.000000
-12,-43,7,1630317320.0,32.000000
-13,-42,4,1630317320.0,32.000000
-14,-43,12,1630317320.0,32.000000
-20,-44,17,1630317320.0,32.000000
-27,-48,21,1630317320.0,32.000000
-30,-49,24,1630317320.0,32.000000
-34,-50,27,1630317320.0,32.000000
-30,-52,29,1630317320.0,32.000000
-20,-52,39,1630317320.0,32.000000
-25,-55,32,1630317320.0,32.000000
-24,-58,28,1630317320.0,32.000000
-21,-59,24,1630317320.0,32.000000
-24,-58,21,1630317320.0,32.000000
-23,-57,20,1630317320.0,32.000000
-19,-56,21,1630317320.0,32.000000
-18,-55,21,1630317320.0,32.000000
-16,-55,19,1630317320.0,32.000000
-16,-56,17,1630317320.0,32.000000
-21,-82,13,1630317320.0,32.000000
-15,-51,11,1630317320.0,32.000000
-14,-62,6,1630317320.0,32.000000
-12,-61,12,1630317320.0,32.000000
-14,-59,16,1630317320.0,32.000000
-20,-59,16,1630317320.0,32.000000
-21,-59,11,1630317320.0,32.000000
-20,-61,10,1630317320.0,32.000000
-21,-58,12,1630317320.0,32.000000
-19,-60,12,1630317320.0,32.000000
-18,-59,12,1630317320.0,32.000000
-21,-59,15,1630317320.0,32.000000
-21,-58,17,1630317320.0,32.000000
-22,-58,19,1630317320.0,32.000000
-21,-56,22,1630317320.0,32.000000
-22,-56,22,1630317320.0,32.000000
-21,-58,18,1630317320.0,32.000000
-18,-57,20,1630317320.0,32.000000
-14,-55,27,1630317320.0,32.000000
-16,-55,21,1630317320.0,32.000000
-17,-54,17,1630317320.0,32.000000
-14,-46,25,1630317320.0,32.000000
-19,-50,23,1630317320.0,32.000000
-22,-50,19,1630317320.0,32.000000
-23,-51,17,1630317320.0,32.000000
-23,-50,14,1630317320.0,32.000000
-25,-49,13,1630317320.0,32.000000
-23,-45,17,1630317320.0,32.000000
-16,-36,33,1630317320.0,32.000000
-15,-31,44,1630317320.0,32.000000
-28,-22,49,1630317320.0,32.000000
-35,-22,45,1630317320.0,32.000000
-44,-10,58,1630317320.0,32.000000
-50,0,67,1630317320.0,32.000000
-47,0,64,1630317320.0,32.000000
-40,2,65,1630317320.0,32.000000
-39,2,65,1630317320.0,32.000000
-39,0,63,1630317320.0,32.000000
-35,0,61,1630317320.0,32.000000
-33,0,62,1630317320.0,32.000000
-39,-1,58,1630317320.0,32.000000
-40,-1,57,1630317320.0,32.000000
-41,1,56,1630317320.0,32.000000
-48,6,60,1630317320.0,32.000000
-30,2,51,1630317320.0,32.000000
-46,3,54,1630317320.0,32.000000
-31,3,61,1630317320.0,32.000000
-37,3,54,1630317320.0,32.000000
-38,3,54,1630317320.0,32.000000
-37,3,54,1630317320.0,32.000000
-37,2,54,1630317320.0,32.000000
-38,2,52,1630317320.0,32.000000
-37,3,55,1630317320.0,32.000000
-36,3,54,1630317320.0,32.000000
-37,4,55,1630317320.0,32.000000
-36,4,56,1630317320.0,32.000000
-34,3,56,1630317320.0,32.000000
-35,4,55,1630317320.0,32.000000
-40,4,53,1630317320.0,32.000000
-37,4,54,1630317320.0,32.000000
-36,4,55,1630317320.0,32.000000
-37,4,54,1630317320.0,32.000000
-37,3,54,1630317320.0,32.000000
-37,4,54,1630317320.0,32.000000
-37,3,54,1630317320.0,32.000000
-38,3,54,1630317320.0,32.000000
-38,3,54,1630317320.0,32.000000
-42,3,52,1630317320.0,32.000000
-35,3,55,1630317320.0,32.000000
-29,3,58,1630317320.0,32.000000
-38,4,54,1630317320.0,32.000000
-35,3,56,1630317320.0,32.000000
-35,3,56,1630317320.0,32.000000
-35,3,56,1630317320.0,32.000000
-34,3,56,1630317320.0,32.000000
-34,4,56,1630317320.0,32.000000
-34,4,56,1630317320.0,32.000000
-35,4,56,1630317320.0,32.000000
-34,4,56,1630317320.0,32.000000
-34,4,56,1630317320.0,32.000000
-34,4,56,1630317320.0,32.000000
-34,4,56,1630317320.0,32.000000
-33,4,55,1630317320.0,32.000000
-35,4,56,1630317320.0,32.000000
-35,4,55,1630317320.0,32.000000
-35,4,55,1630317320.0,32.000000
-35,4,56,1630317320.0,32.000000
-35,4,56,1630317320.0,32.000000
-35,3,56,1630317320.0,32.000000
-34,4,56,1630317320.0,32.000000
-34,3,56,1630317320.0,32.000000
-34,3,56,1630317320.0,32.000000
-34,4,56,1630317320.0,32.000000
-34,4,56,1630317320.0,32.000000
-34,4,56,1630317320.0,32.000000
-35,3,56,1630317320.0,32.000000
-35,3,55,1630317320.0,32.000000
-34,4,56,1630317320.0,32.000000
-34,4,56,1630317320.0,32.000000
-34,4,56,1630317320.0,32.000000
-35,3,56,1630317320.0,32.000000
-35,4,56,1630317320.0,32.000000
-35,4,55,1630317320.0,32.000000
-37,4,55,1630317320.0,32.000000
-36,3,54,1630317320.0,32.000000
-36,3,55,1630317320.0,32.000000
-36,3,55,1630317320.0,32.000000
-37,3,55,1630317320.0,32.000000
-36,3,54,1630317320.0,32.000000
-35,4,55,1630317320.0,32.000000
-36,3,55,1630317320.0,32.000000
-35,4,55,1630317320.0,32.000000
-35,4,55,1630317320.0,32.000000
-35,4,56,1630317320.0,32.000000
-36,3,56,1630317320.0,32.000000
-36,3,55,1630317320.0,32.000000
-35,4,55,1630317320.0,32.000000
-35,4,56,1630317320.0,32.000000
-35,4,55,1630317320.0,32.000000
-35,4,56,1630317320.0,32.000000
-35,4,56,1630317320.0,32.000000
-35,4,56,1630317320.0,32.000000
-35,3,55,1630317320.0,32.000000
-36,4,56,1630317320.0,32.000000
-35,4,56,1630317320.0,32.000000
-35,4,56,1630317320.0,32.000000
-34,4,56,1630317320.0,32.000000
-34,3,56,1630317320.0,32.000000
-34,3,56,1630317320.0,32.000000
-35,3,56,1630317320.0,32.000000
-35,3,56,1630317320.0,32.000000
-36,3,55,1630317320.0,32.000000
-36,3,55,1630317320.0,32.000000
-35,3,56,1630317320.0,32.000000
-35,3,55,1630317320.0,32.000000
-35,3,55,1630317320.0,32.000000
-35,3,56,1630317320.0,32.000000
-36,3,55,1630317320.0,32.000000
-36,3,55,1630317320.0,32.000000
-36,3,55,1630317320.0,32.000000
-36,3,55,1630317320.0,32.000000
-37,2,54,1630317320.0,32.000000
-38,2,54,1630317320.0,32.000000
-37,3,54,1630317320.0,32.000000
-36,3,54,1630317320.0,32.000000
-36,3,55,1630317320.0,32.000000
-36,2,54,1630317320.0,32.000000
-37,2,54,1630317320.0,32.000000
-37,2,54,1630317320.0,32.000000
-37,3,54,1630317320.0,32.000000
-37,3,54,1630317320.0,32.000000
-37,2,55,1630317320.0,32.000000
-37,2,54,1630317320.0,32.000000
-37,2,54,1630317320.0,32.000000
-38,2,54,1630317320.0,32.000000
-38,2,54,1630317320.0,32.000000
-37,2,54,1630317320.0,32.000000
-37,2,54,1630317320.0,32.000000
-37,2,54,1630317320.0,32.000000
-37,2,54,1630317320.0,32.000000
-38,2,54,1630317320.0,32.000000
-37,2,54,1630317320.0,32.000000
-38,2,54,1630317320.0,32.000000
-38,2,54,1630317320.0,32.000000
-38,2,54,1630317320.0,32.000000
-38,2,54,1630317320.0,32.000000
-38,1,54,1630317320.0,32.000000
-38,2,54,1630317320.0,32.000000
-38,1,54,1630317320.0,32.000000
-38,1,54,1630317320.0,32.000000
-38,1,54,1630317320.0,32.000000
-38,1,54,1630317320.0,32.000000
-38,1,54,1630317320.0,32.000000
-38,1,54,1630317320.0,32.000000
-38,1,54,1630317320.0,32.000000
-38,1,53,1630317320.0,32.000000
-38,1,54,1630317320.0,32.000000
-38,1,54,1630317320.0,32.000000
-38,1,54,1630317320.0,32.000000
-38,1,54,1630317320.0,32.000000
-38,1,54,1630317320.0,32.000000
-38,1,54,1630317320.0,32.000000
-38,1,54,1630317320.0,32.000000
-38,1,54,1630317320.0,32.000000
-38,1,54,1630317320.0,32.000000
-38,1,54,1630317320.0,32.000000
-38,1,53,1630317320.0,32.000000
-38,1,54,1630317320.0,32.000000
-38,1,54,1630317320.0,32.000000
-38,1,54,1630317320.0,32.000000
-38,1,54,1630317320.0,32.000000
-38,1,54,1630317320.0,32.000000
-38,1,54,1630317320.0,32.000000
-38,1,54,1630317320.0,32.000000
-38,1,54,1630317320.0,32.000000
-38,1,54,1630317320.0,32.000000
-38,1,54,1630317320.0,32.000000
-38,1,54,1630317320.0,32.000000
-38,1,54,1630317320.0,32.000000
-38,1,53,1630317320.0,32.000000
-38,1,54,1630317320.0,32.000000
-38,1,54,1630317320.0,32.000000
-38,1,54,1630317320.0,32.000000
-38,1,54,1630317320.0,32.000000
-38,1,54,1630317320.0,32.000000
-38,1,54,1630317320.0,32.000000
-38,1,54,1630317320.0,32.000000
-38,1,54,1630317320.0,32.000000
-38,1,54,1630317320.0,32.000000
-38,1,54,1630317320.0,32.000000
-38,1,54,1630317320.0,32.000000
-37,1,54,1630317320.0,32.000000
-37,1,54,1630317320.0,32.000000
-37,0,54,1630317320.0,32.000000
-37,0,54,1630317320.0,32.000000
-38,1,53,1630317320.0,32.000000
-38,1,53,1630317320.0,32.000000
-40,3,53,1630317320.0,32.000000
-39,1,53,1630317320.0,32.000000
-39,2,53,1630317320.0,32.000000
-41,2,52,1630317320.0,32.000000
-39,4,53,1630317320.0,32.000000
-40,3,53,1630317320.0,32.000000
-41,3,52,1630317320.0,32.000000
-40,3,52,1630317320.0,32.000000
-40,3,53,1630317320.0,32.000000
-39,3,53,1630317320.0,32.000000
-40,3,53,1630317320.0,32.000000
-40,3,52,1630317320.0,32.000000
-40,3,53,1630317320.0,32.000000
-40,3,52,1630317320.0,32.000000
-40,2,52,1630317320.0,32.000000
-40,2,53,1630317320.0,32.000000
-39,3,53,1630317320.0,32.000000
-39,3,53,1630317320.0,32.000000
-40,3,52,1630317320.0,32.000000
-39,2,53,1630317320.0,32.000000
-43,2,53,1630317320.0,32.000000
-40,2,51,1630317320.0,32.000000
-39,2,52,1630317320.0,32.000000
-41,4,52,1630317320.0,32.000000
-41,2,51,1630317320.0,32.000000
-41,3,52,1630317320.0,32.000000
-41,4,52,1630317320.0,32.000000
-40,4,53,1630317320.0,32.000000
-39,4,53,1630317320.0,32.000000
-40,3,53,1630317320.0,32.000000
-41,3,52,1630317320.0,32.000000
-40,3,53,1630317320.0,32.000000
-39,3,53,1630317320.0,32.000000
-38,4,54,1630317320.0,32.000000
-37,3,54,1630317320.0,32.000000
-39,3,53,1630317320.0,32.000000
-40,3,52,1630317320.0,32.000000
-40,3,53,1630317320.0,32.000000
-40,3,52,1630317320.0,32.000000
-39,3,54,1630317320.0,32.000000
-35,2,55,1630317320.0,32.000000
-38,5,54,1630317320.0,32.000000
-35,3,55,1630317320.0,32.000000
-39,3,53,1630317320.0,32.000000
-37,3,54,1630317320.0,32.000000
-36,3,55,1630317320.0,32.000000
-36,3,55,1630317320.0,32.000000
-37,3,54,1630317320.0,32.000000
-37,3,54,1630317320.0,32.000000
-38,3,54,1630317320.0,32.000000
-38,3,54,1630317320.0,32.000000
-38,3,54,1630317320.0,32.000000
-38,3,54,1630317320.0,32.000000
-38,3,54,1630317320.0,32.000000
-38,3,54,1630317320.0,32.000000
-37,3,54,1630317320.0,32.000000
-36,3,53,1630317320.0,32.000000
-36,3,54,1630317320.0,32.000000
-37,3,54,1630317320.0,32.000000
-38,3,54,1630317320.0,32.000000
-36,3,55,1630317320.0,32.000000
-37,3,55,1630317320.0,32.000000
-37,3,54,1630317320.0,32.000000
-37,3,55,1630317320.0,32.000000
-37,3,54,1630317320.0,32.000000
-38,3,53,1630317320.0,32.000000
-38,3,53,1630317320.0,32.000000
-37,2,54,1630317320.0,32.000000
-37,2,54,1630317320.0,32.000000
-38,2,54,1630317320.0,32.000000
-38,3,54,1630317320.0,32.000000
-37,2,54,1630317320.0,32.000000
-37,3,54,1630317320.0,32.000000
-38,2,54,1630317320.0,32.000000
-37,2,54,1630317320.0,32.000000
-37,2,54,1630317320.0,32.000000
-37,2,54,1630317320.0,32.000000
-37,2,53,1630317320.0,32.000000
-38,2,54,1630317320.0,32.000000
-38,2,54,1630317320.0,32.000000
-38,2,54,1630317320.0,32.000000
-38,2,54,1630317320.0,32.000000
-37,3,54,1630317320.0,32.000000
-37,2,54,1630317320.0,32.000000
-38,2,54,1630317320.0,32.000000
-38,2,54,1630317320.0,32.000000
-37,2,54,1630317320.0,32.000000
-38,3,54,1630317320.0,32.000000
-38,2,54,1630317320.0,32.000000
-36,3,54,1630317320.0,32.000000
-38,3,55,1630317320.0,32.000000
-37,2,54,1630317320.0,32.000000
-37,3,55,1630317320.0,32.000000
-37,2,54,1630317320.0,32.000000
-37,3,55,1630317320.0,32.000000
-37,2,55,1630317320.0,32.000000
-37,2,54,1630317320.0,32.000000
-37,2,54,1630317320.0,32.000000
-37,2,54,1630317320.0,32.000000
-37,3,54,1630317320.0,32.000000
-37,3,54,1630317320.0,32.000000
-36,3,55,1630317320.0,32.000000
-37,3,55,1630317320.0,32.000000
-37,2,54,1630317320.0,32.000000
-36,3,55,1630317320.0,32.000000
-37,2,55,1630317320.0,32.000000
-37,2,55,1630317320.0,32.000000
-36,2,55,1630317320.0,32.000000
-37,2,54,1630317320.0,32.000000
-37,2,54,1630317320.0,32.000000
-37,2,55,1630317320.0,32.000000
-36,2,54,1630317320.0,32.000000
-37,2,55,1630317320.0,32.000000
-37,3,54,1630317320.0,32.000000
-36,2,55,1630317320.0,32.000000
-37,2,55,1630317320.0,32.000000
-36,3,55,1630317320.0,32.000000
-36,2,55,1630317320.0,32.000000
-36,2,55,1630317320.0,32.000000
-36,2,55,1630317320.0,32.000000
-37,2,54,1630317320.0,32.000000
-36,2,55,1630317320.0,32.000000
-36,3,55,1630317320.0,32.000000
-36,2,55,1630317320.0,32.000000
-36,2,55,1630317320.0,32.000000
-37,3,55,1630317320.0,32.000000
-36,2,55,1630317320.0,32.000000
-36,2,55,1630317320.0,32.000000
-36,2,55,1630317320.0,32.000000
-36,2,54,1630317320.0,32.000000
-36,2,55,1630317320.0,32.000000
-36,2,55,1630317320.0,32.000000
-36,2,55,1630317320.0,32.000000
-37,2,55,1630317320.0,32.000000
-36,2,55,1630317320.0,32.000000
-36,2,55,1630317320.0,32.000000
-36,2,55,1630317320.0,32.000000
-36,2,55,1630317320.0,32.000000
-36,2,55,1630317320.0,32.000000
-36,3,54,1630317320.0,32.000000
-36,3,55,1630317320.0,32.000000
-36,2,55,1630317320.0,32.000000
-36,2,55,1630317320.0,32.000000
-36,2,55,1630317320.0,32.000000
-36,3,55,1630317320.0,32.000000
-36,3,55,1630317320.0,32.000000
-36,3,55,1630317320.0,32.000000
-36,2,55,1630317320.0,32.000000
-36,2,55,1630317320.0,32.000000
-36,3,55,1630317320.0,32.000000
-36,3,55,1630317320.0,32.000000
-37,3,55,1630317320.0,32.000000
-37,2,55,1630317320.0,32.000000
-37,3,55,1630317320.0,32.000000
-37,3,54,1630317320.0,32.000000
-36,3,55,1630317320.0,32.000000
-35,2,55,1630317320.0,32.000000
-36,2,55,1630317320.0,32.000000
-37,2,54,1630317320.0,32.000000
-37,3,54,1630317320.0,32.000000
-37,3,55,1630317320.0,32.000000
-36,3,55,1630317320.0,32.000000
-36,2,55,1630317320.0,32.000000
-36,2,55,1630317320.0,32.000000
-36,2,55,1630317320.0,32.000000
-36,2,55,1630317320.0,32.000000
-36,3,55,1630317320.0,32.000000
-36,2,55,1630317320.0,32.000000
-36,2,55,1630317320.0,32.000000
-36,3,55,1630317320.0,32.000000
-36,2,55,1630317320.0,32.000000
-36,2,55,1630317320.0,32.000000
-36,2,55,1630317320.0,32.000000
-36,3,55,1630317320.0,32.000000
-36,2,55,1630317320.0,32.000000
-36,2,55,1630317320.0,32.000000
-36,2,55,1630317320.0,32.000000
-36,3,55,1630317320.0,32.000000
-36,2,55,1630317320.0,32.000000
-37,3,55,1630317320.0,32.000000
-36,3,55,1630317320.0,32.000000
-36,3,55,1630317320.0,32.000000
-36,2,55,1630317320.0,32.000000
-36,3,55,1630317320.0,32.000000
-36,2,55,1630317320.0,32.000000
-36,2,55,1630317320.0,32.000000
-36,3,55,1630317320.0,32.000000
-36,2,55,1630317320.0,32.000000
-36,2,55,1630317320.0,32.000000
-36,3,55,1630317320.0,32.000000
-36,2,55,1630317320.0,32.000000
-36,2,55,1630317320.0,32.000000
-36,3,55,1630317320.0,32.000000
-36,2,55,1630317320.0,32.000000
-36,3,55,1630317320.0,32.000000
-36,3,55,1630317320.0,32.000000
-36,2,55,1630317320.0,32.000000
-36,3,55,1630317320.0,32.000000
-36,2,55,1630317320.0,32.000000
-36,2,55,1630317320.0,32.000000
-36,3,55,1630317320.0,32.000000
-36,3,55,1630317320.0,32.000000
-36,3,55,1630317320.0,32.000000
-36,3,55,1630317320.0,32.000000
-36,3,55,1630317320.0,32.000000
-36,2,55,1630317320.0,32.000000
-36,2,55,1630317320.0,32.000000
-36,2,55,1630317320.0,32.000000
-36,3,55,1630317320.0,32.000000
-36,3,55,1630317320.0,32.000000
-36,3,55,1630317320.0,32.000000
-36,3,55,1630317320.0,32.000000
-36,3,55,1630317320.0,32.000000
-36,3,55,1630317320.0,32.000000
-36,3,55,1630317320.0,32.000000
-36,2,55,1630317320.0,32.000000
-36,2,55,1630317320.0,32.000000
-36,2,55,1630317320.0,32.000000
-36,3,55,1630317320.0,32.000000
-36,3,55,1630317320.0,32.000000
-36,3,55,1630317320.0,32.000000
-36,2,55,1630317320.0,32.000000
-36,2,55,1630317320.0,32.000000
-36,3,55,1630317320.0,32.000000
-36,3,55,1630317320.0,32.000000
-36,3,55,1630317320.0,32.000000
-36,3,55,1630317320.0,32.000000
-36,3,54,1630317320.0,32.000000
-36,3,55,1630317320.0,32.000000
-36,3,55,1630317320.0,32.000000
-36,3,55,1630317320.0,32.000000
-36,3,55,1630317320.0,32.000000
-36,2,55,1630317320.0,32.000000
-36,3,55,1630317320.0,32.000000
-36,3,55,1630317320.0,32.000000
-36,3,55,1630317320.0,32.000000
-36,2,55,1630317320.0,32.000000
-36,3,55,1630317320.0,32.000000
-36,3,55,1630317320.0,32.000000
-36,3,55,1630317320.0,32.000000
-36,3,55,1630317320.0,32.000000
-36,3,55,1630317320.0,32.000000
-36,3,55,1630317320.0,32.000000
-36,2,55,1630317320.0,32.000000
-36,2,55,1630317320.0,32.000000
-36,2,55,1630317320.0,32.000000
-36,2,55,1630317320.0,32.000000
-36,2,55,1630317320.0,32.000000
-36,2,55,1630317320.0,32.000000
-36,2,55,1630317320.0,32.000000
-36,3,55,1630317320.0,32.000000
-36,2,55,1630317320.0,32.000000
-36,2,55,1630317320.0,32.000000
-36,3,55,1630317320.0,32.000000
-36,2,55,1630317320.0,32.000000
-36,2,55,1630317320.0,32.000000
-36,2,55,1630317320.0,32.000000
-36,3,55,1630317320.0,32.000000
-36,2,55,1630317320.0,32.000000
-36,2,55,1630317320.0,32.000000
-36,2,55,1630317320.0,32.000000
-36,3,55,1630317320.0,32.000000
-36,2,55,1630317320.0,32.000000
-36,3,55,1630317320.0,32.000000
-36,2,55,1630317320.0,32.000000
-36,3,55,1630317320.0,32.000000
-36,2,55,1630317320.0,32.000000
-36,2,55,1630317320.0,32.000000
-36,3,55,1630317320.0,32.000000
-36,2,55,1630317320.0,32.000000
-36,3,55,1630317320.0,32.000000
-36,2,55,1630317320.0,32.000000
-36,2,55,1630317320.0,32.000000
-36,3,55,1630317320.0,32.000000
-36,3,55,1630317320.0,32.000000
-36,2,55,1630317320.0,32.000000
-36,3,55,1630317320.0,32.000000
-36,2,55,1630317320.0,32.000000
-36,2,55,1630317320.0,32.000000
-36,2,55,1630317320.0,32.000000
-36,2,55,1630317320.0,32.000000
-36,3,55,1630317320.0,32.000000
-36,2,55,1630317320.0,32.000000
-36,2,55,1630317320.0,32.000000
-36,3,55,1630317320.0,32.000000
-36,2,55,1630317320.0,32.000000
-36,2,55,1630317320.0,32.000000
-36,3,55,1630317320.0,32.000000
-36,2,55,1630317320.0,32.000000
-36,2,55,1630317320.0,32.000000
-36,2,55,1630317320.0,32.000000
-36,2,55,1630317320.0,32.000000
-36,2,55,1630317320.0,32.000000
-36,3,55,1630317320.0,32.000000
-36,3,55,1630317320.0,32.000000
-36,2,55,1630317320.0,32.000000
-36,2,55,1630317320.0,32.000000
-36,2,55,1630317320.0,32.000000
-36,2,55,1630317320.0,32.000000
-36,2,55,1630317320.0,32.000000
-36,2,55,1630317320.0,32.000000
-36,2,55,1630317320.0,32.000000
-36,2,55,1630317320.0,32.000000
-36,2,55,1630317320.0,32.000000
-36,3,55,1630317320.0,32.000000
-36,2,55,1630317320.0,32.000000
-36,2,55,1630317320.0,32.000000
-36,2,55,1630317320.0,32.000000
-36,3,55,1630317320.0,32.000000
-36,2,55,1630317320.0,32.000000
-36,2,55,1630317320.0,32.000000
-36,3,55,1630317320.0,32.000000
-36,2,55,1630317320.0,32.000000
-36,3,55,1630317320.0,32.000000
-36,2,55,1630317320.0,32.000000
-36,2,55,1630317320.0,32.000000
-36,2,55,1630317320.0,32.000000
-36,2,55,1630317320.0,32.000000
-36,3,55,1630317320.0,32.000000
-36,2,55,1630317320.0,32.000000
-36,2,55,1630317320.0,32.000000
-36,2,55,1630317320.0,32.000000
-36,2,55,1630317320.0,32.000000
-36,2,55,1630317320.0,32.000000
-36,2,55,1630317320.0,32.000000
-36,2,55,1630317320.0,32.000000
-36,2,55,1630317320.0,32.000000
-36,2,55,1630317320.0,32.000000
-36,3,55,1630317320.0,32.000000
-36,2,55,1630317320.0,32.000000
-36,2,55,1630317320.0,32.000000
-36,2,55,1630317320.0,32.000000
-36,3,55,1630317320.0,32.000000
-36,2,55,1630317320.0,32.000000
-36,2,55,1630317320.0,32.000000
-36,2,55,1630317320.0,32.000000
-36,2,55,1630317320.0,32.000000
-36,2,55,1630317320.0,32.000000
-36,2,55,1630317320.0,32.000000
-36,2,55,1630317320.0,32.000000
-36,3,55,1630317320.0,32.000000
-36,2,55,1630317320.0,32.000000
-36,3,55,1630317320.0,32.000000
-36,2,55,1630317320.0,32.000000
-36,3,55,1630317320.0,32.000000
-36,2,55,1630317320.0,32.000000
-36,2,55,1630317320.0,32.000000
-36,2,55,1630317320.0,32.000000
-36,2,55,1630317320.0,32.000000
-36,3,55,1630317320.0,32.000000
-36,2,55,1630317320.0,32.000000
-36,3,55,1630317320.0,32.000000
-36,2,55,1630317320.0,32.000000
-36,3,55,1630317320.0,32.000000
-36,2,55,1630317320.0,32.000000
-36,2,55,1630317320.0,32.000000
-36,2,55,1630317320.0,32.000000
-36,3,55,1630317320.0,32.000000
-36,3,55,1630317320.0,32.000000
-36,3,55,1630317320.0,32.000000
-36,2,55,1630317320.0,32.000000
-36,2,55,1630317320.0,32.000000
-36,3,55,1630317320.0,32.000000
-36,2,55,1630317320.0,32.000000
-36,2,55,1630317320.0,32.000000
-36,3,55,1630317320.0,32.000000
-36,3,55,1630317320.0,32.000000
-36,2,55,1630317320.0,32.000000
-36,2,55,1630317320.0,32.000000
-36,2,55,1630317320.0,32.000000
-36,2,55,1630317320.0,32.000000
-36,3,55,1630317320.0,32.000000
-36,2,55,1630317320.0,32.000000
-36,2,55,1630317320.0,32.000000
-36,2,55,1630317320.0,32.000000
-36,2,55,1630317320.0,32.000000
-36,2,55,1630317320.0,32.000000
-36,3,55,1630317320.0,32.000000
-36,2,55,1630317320.0,32.000000
-36,2,55,1630317320.0,32.000000
-36,2,55,1630317320.0,32.000000
-36,2,55,1630317320.0,32.000000
-36,3,55,1630317320.0,32.000000
-36,2,55,1630317320.0,32.000000
-36,2,55,1630317320.0,32.000000
-36,2,55,1630317320.0,32.000000
-36,2,55,1630317320.0,32.000000
-36,2,55,1630317320.0,32.000000
-36,2,55,1630317320.0,32.000000
-36,3,55,1630317320.0,32.000000
-36,2,55,1630317320.0,32.000000
-36,2,55,1630317320.0,32.000000
-36,2,55,1630317320.0,32.000000
-36,2,55,1630317320.0,32.000000
-36,2,55,1630317320.0,32.000000
-36,2,55,1630317320.0,32.000000
-36,3,55,1630317320.0,32.000000
-36,2,55,1630317320.0,32.000000
-36,2,55,1630317320.0,32.000000
-36,2,55,1630317320.0,32.000000
-36,2,55,1630317320.0,32.000000
-36,2,55,1630317320.0,32.000000
-36,2,55,1630317320.0,32.000000
-36,3,56,1630317320.0,32.000000
-36,3,55,1630317320.0,32.000000
-36,2,55,1630317320.0,32.000000
-36,3,55,1630317320.0,32.000000
-36,2,55,1630317320.0,32.000000
-36,2,55,1630317320.0,32.000000
-36,3,55,1630317320.0,32.000000
-36,3,55,1630317320.0,32.000000
-36,2,55,1630317320.0,32.000000
-36,3,55,1630317320.0,32.000000
-36,2,55,1630317320.0,32.000000
-36,3,55,1630317320.0,32.000000
-35,3,56,1630317320.0,32.000000
-35,3,56,1630317320.0,32.000000
-39,4,56,1630317320.0,32.000000
-43,11,58,1630317320.0,32.000000
-51,-1,64,1630317320.0,32.000000
-35,7,79,1630317320.0,32.000000
-36,3,77,1630317320.0,32.000000
-40,-1,77,1630317320.0,32.000000
-41,-3,73,1630317320.0,32.000000
-45,-10,63,1630317320.0,32.000000
-43,-18,54,1630317320.0,32.000000
-44,-23,51,1630317320.0,32.000000
-40,-27,44,1630317320.0,32.000000
-35,-28,39,1630317320.0,32.000000
-28,-31,30,1630317320.0,32.000000
-18,-34,27,1630317320.0,32.000000
-15,-35,23,1630317320.0,32.000000
-10,-38,18,1630317320.0,32.000000
-6,-40,16,1630317320.0,32.000000
1,-45,15,1630317320.0,32.000000
3,-48,14,1630317320.0,32.000000
10,-52,16,1630317320.0,32.000000
13,-57,17,1630317320.0,32.000000
13,-57,18,1630317320.0,32.000000
14,-59,21,1630317320.0,32.000000
15,-59,22,1630317320.0,32.000000
13,-59,23,1630317320.0,32.000000
11,-59,21,1630317320.0,32.000000
9,-60,20,1630317320.0,32.000000
8,-80,21,1630317320.0,32.000000
4,-60,19,1630317320.0,32.000000
8,-56,14,1630317320.0,32.000000
6,-66,15,1630317320.0,32.000000
6,-62,14,1630317320.0,32.000000
10,-61,15,1630317320.0,32.000000
9,-60,15,1630317320.0,32.000000
11,-61,15,1630317320.0,32.000000
10,-60,16,1630317320.0,32.000000
9,-60,16,1630317320.0,32.000000
12,-60,18,1630317320.0,32.000000
11,-59,18,1630317320.0,32.000000
12,-60,16,1630317320.0,32.000000
12,-59,16,1630317320.0,32.000000
13,-60,16,1630317320.0,32.000000
10,-60,15,1630317320.0,32.000000
10,-60,15,1630317320.0,32.000000
10,-60,15,1630317320.0,32.000000
10,-60,15,1630317320.0,32.000000
10,-59,16,1630317320.0,32.000000
12,-60,17,1630317320.0,32.000000
12,-59,17,1630317320.0,32.000000
13,-60,15,1630317320.0,32.000000
13,-60,15,1630317320.0,32.000000
11,-60,14,1630317320.0,32.000000
10,-60,15,1630317320.0,32.000000
10,-60,16,1630317320.0,32.000000
10,-60,16,1630317320.0,32.000000
10,-60,16,1630317320.0,32.000000
9,-60,17,1630317320.0,32.000000
10,-59,17,1630317320.0,32.000000
9,-60,18,1630317320.0,32.000000
10,-59,19,1630317320.0,32.000000
11,-60,18,1630317320.0,32.000000
11,-61,15,1630317320.0,32.000000
13,-61,12,1630317320.0,32.000000
13,-61,11,1630317320.0,32.000000
10,-60,14,1630317320.0,32.000000
8,-59,14,1630317320.0,32.000000
11,-60,15,1630317320.0,32.000000
14,-60,14,1630317320.0,32.000000
14,-61,13,1630317320.0,32.000000
12,-61,11,1630317320.0,32.000000
11,-61,11,1630317320.0,32.000000
11,-61,11,1630317320.0,32.000000
13,-62,12,1630317320.0,32.000000
13,-61,13,1630317320.0,32.000000
14,-60,15,1630317320.0,32.000000
12,-59,16,1630317320.0,32.000000
14,-57,17,1630317320.0,32.000000
11,-53,18,1630317320.0,32.000000
10,-51,18,1630317320.0,32.000000
6,-47,18,1630317320.0,32.000000
-1,-42,21,1630317320.0,32.000000
-12,-37,29,1630317320.0,32.000000
-17,-34,37,1630317320.0,32.000000
-31,-35,42,1630317320.0,32.000000
-29,-38,40,1630317320.0,32.000000
-24,-32,45,1630317320.0,32.000000
-9,-22,65,1630317320.0,32.000000
-1,-18,74,1630317320.0,32.000000
-26,-13,59,1630317320.0,32.000000
-50,-17,53,1630317320.0,32.000000
-57,-17,52,1630317320.0,32.000000
-52,-15,50,1630317320.0,32.000000
-46,-13,51,1630317320.0,32.000000
-34,-12,56,1630317320.0,32.000000
-35,-9,54,1630317320.0,32.000000
-36,-9,56,1630317320.0,32.000000
-47,-5,59,1630317320.0,32.000000
-50,-2,60,1630317320.0,32.000000
-37,0,60,1630317320.0,32.000000
-36,-3,55,1630317320.0,32.000000
-39,-4,55,1630317320.0,32.000000
-38,-3,55,1630317320.0,32.000000
-37,-3,54,1630317320.0,32.000000
-37,-2,55,1630317320.0,32.000000
-42,1,66,1630317320.0,32.000000
-47,8,54,1630317320.0,32.000000
-42,1,50,1630317320.0,32.000000
-41,3,54,1630317320.0,32.000000
-36,2,56,1630317320.0,32.000000
-37,0,54,1630317320.0,32.000000
-39,1,53,1630317320.0,32.000000
-38,0,54,1630317320.0,32.000000
-37,1,54,1630317320.0,32.000000
-38,1,54,1630317320.0,32.000000
-38,1,54,1630317320.0,32.000000
-37,1,54,1630317320.0,32.000000
-38,1,54,1630317320.0,32.000000
-38,1,54,1630317320.0,32.000000
-37,1,54,1630317320.0,32.000000
-38,1,54,1630317320.0,32.000000
-37,1,54,1630317320.0,32.000000
-37,1,54,1630317320.0,32.000000
