ACC_X,ACC_Y,ACC_Z,start_time_unix,sampling_rate
-41,6,48,1630317320.0,32.000000
-40,5,49,1630317320.0,32.000000
-40,5,49,1630317320.0,32.000000
-40,5,49,1630317320.0,32.000000
-39,4,49,1630317320.0,32.000000
-39,5,49,1630317320.0,32.000000
-39,6,49,1630317320.0,32.000000
-39,5,49,1630317320.0,32.000000
-39,5,49,1630317320.0,32.000000
-39,5,49,1630317320.0,32.000000
-39,5,49,1630317320.0,32.000000
-40,5,49,1630317320.0,32.000000
-40,5,49,1630317320.0,32.000000
-40,5,49,1630317320.0,32.000000
-40,5,49,1630317320.0,32.000000
-40,5,49,1630317320.0,32.000000
-39,5,49,1630317320.0,32.000000
-39,5,49,1630317320.0,32.000000
-39,5,49,1630317320.0,32.000000
-40,5,48,1630317320.0,32.000000
-39,5,49,1630317320.0,32.000000
-39,5,49,1630317320.0,32.000000
-40,5,49,1630317320.0,32.000000
-40,5,49,1630317320.0,32.000000
-40,5,49,1630317320.0,32.000000
-39,5,49,1630317320.0,32.000000
-40,5,49,1630317320.0,32.000000
-40,5,49,1630317320.0,32.000000
-39,5,49,1630317320.0,32.000000
-39,5,49,1630317320.0,32.000000
-40,5,49,1630317320.0,32.000000
-39,5,49,1630317320.0,32.000000
-39,5,49,1630317320.0,32.000000
-40,5,49,1630317320.0,32.000000
-40,5,49,1630317320.0,32.000000
-40,5,49,1630317320.0,32.000000
-39,5,49,1630317320.0,32.000000
-40,5,49,1630317320.0,32.000000
-40,5,49,1630317320.0,32.000000
-39,5,49,1630317320.0,32.000000
-40,5,49,1630317320.0,32.000000
-40,5,49,1630317320.0,32.000000
-39,5,49,1630317320.0,32.000000
-40,5,49,1630317320.0,32.000000
-39,5,49,1630317320.0,32.000000
-39,5,49,1630317320.0,32.000000
-40,5,49,1630317320.0,32.000000
-39,5,49,1630317320.0,32.000000
-39,5,49,1630317320.0,32.000000
-40,5,49,1630317320.0,32.000000
-39,5,49,1630317320.0,32.000000
-40,5,49,1630317320.0,32.000000
-40,5,49,1630317320.0,32.000000
-40,5,49,1630317320.0,32.000000
-39,5,49,1630317320.0,32.000000
-40,5,49,1630317320.0,32.000000
-40,5,49,1630317320.0,32.000000
-39,5,49,1630317320.0,32.000000
-40,5,49,1630317320.0,32.000000
-39,5,49,1630317320.0,32.000000
-39,5,49,1630317320.0,32.000000
-39,5,49,1630317320.0,32.000000
-39,5,49,1630317320.0,32.000000
-39,5,49,1630317320.0,32.000000
-40,5,49,1630317320.0,32.000000
-39,5,49,1630317320.0,32.000000
-39,5,49,1630317320.0,32.000000
-39,5,50,1630317320.0,32.000000
-39,5,48,1630317320.0,32.000000
-39,5,50,1630317320.0,32.000000
-37,5,50,1630317320.0,32.000000
-38,6,49,1630317320.0,32.000000
-39,5,49,1630317320.0,32.000000
-39,5,49,1630317320.0,32.000000
-39,5,50,1630317320.0,32.000000
-39,5,49,1630317320.0,32.000000
-39,5,50,1630317320.0,32.000000
-39,5,49,1630317320.0,32.000000
-39,5,50,1630317320.0,32.000000
-39,6,49,1630317320.0,32.000000
-39,6,49,1630317320.0,32.000000
-39,6,49,1630317320.0,32.000000
-39,6,49,1630317320.0,32.000000
-39,6,49,1630317320.0,32.000000
-39,6,50,1630317320.0,32.000000
-38,6,50,1630317320.0,32.000000
-39,6,50,1630317320.0,32.000000
-39,6,49,1630317320.0,32.000000
-37,6,50,1630317320.0,32.000000
-38,7,50,1630317320.0,32.000000
-39,7,49,1630317320.0,32.000000
-39,7,49,1630317320.0,32.000000
-38,7,50,1630317320.0,32.000000
-39,7,49,1630317320.0,32.000000
-40,7,50,1630317320.0,32.000000
-38,7,49,1630317320.0,32.000000
-38,6,48,1630317320.0,32.000000
-37,7,48,1630317320.0,32.000000
-41,6,50,1630317320.0,32.000000
-42,6,51,1630317320.0,32.000000
-42,5,51,1630317320.0,32.000000
-41,7,48,1630317320.0,32.000000
-41,8,54,1630317320.0,32.000000
-28,9,62,1630317320.0,32.000000
-28,9,60,1630317320.0,32.000000
-25,8,60,1630317320.0,32.000000
-28,8,62,1630317320.0,32.000000
-23,12,58,1630317320.0,32.000000
-25,12,34,1630317320.0,32.000000
-32,24,66,1630317320.0,32.000000
-25,19,69,1630317320.0,32.000000
-28,16,49,1630317320.0,32.000000
-27,16,44,1630317320.0,32.000000
-33,21,28,1630317320.0,32.000000
-46,25,29,1630317320.0,32.000000
-48,29,44,1630317320.0,32.000000
-36,27,56,1630317320.0,32.000000
-34,23,53,1630317320.0,32.000000
-31,21,54,1630317320.0,32.000000
-28,19,53,1630317320.0,32.000000
-24,18,52,1630317320.0,32.000000
-22,13,40,1630317320.0,32.000000
-25,13,52,1630317320.0,32.000000
-20,13,64,1630317320.0,32.000000
-27,12,63,1630317320.0,32.000000
-36,12,57,1630317320.0,32.000000
-37,14,53,1630317320.0,32.000000
-30,12,53,1630317320.0,32.000000
-31,11,52,1630317320.0,32.000000
-34,9,51,1630317320.0,32.000000
-34,8,53,1630317320.0,32.000000
-35,6,53,1630317320.0,32.000000
-45,6,49,1630317320.0,32.000000
-43,4,52,1630317320.0,32.000000
-43,5,48,1630317320.0,32.000000
-35,7,50,1630317320.0,32.000000
-36,6,50,1630317320.0,32.000000
-41,5,49,1630317320.0,32.000000
-41,5,49,1630317320.0,32.000000
-41,5,49,1630317320.0,32.000000
-41,5,48,1630317320.0,32.000000
-39,5,49,1630317320.0,32.000000
-41,4,49,1630317320.0,32.000000
-41,4,48,1630317320.0,32.000000
-41,4,48,1630317320.0,32.000000
-41,4,49,1630317320.0,32.000000
-40,4,49,1630317320.0,32.000000
-41,4,48,1630317320.0,32.000000
-41,4,48,1630317320.0,32.000000
-41,5,48,1630317320.0,32.000000
-41,5,48,1630317320.0,32.000000
-41,5,48,1630317320.0,32.000000
-41,5,48,1630317320.0,32.000000
-41,4,48,1630317320.0,32.000000
-41,4,48,1630317320.0,32.000000
-41,5,48,1630317320.0,32.000000
-41,5,48,1630317320.0,32.000000
-41,5,48,1630317320.0,32.000000
-41,5,48,1630317320.0,32.000000
-41,5,47,1630317320.0,32.000000
-41,5,48,1630317320.0,32.000000
-41,5,48,1630317320.0,32.000000
-41,5,48,1630317320.0,32.000000
-41,5,48,1630317320.0,32.000000
-41,5,47,1630317320.0,32.000000
-41,5,47,1630317320.0,32.000000
-42,5,47,1630317320.0,32.000000
-41,5,48,1630317320.0,32.000000
-41,5,47,1630317320.0,32.000000
-42,5,47,1630317320.0,32.000000
-41,5,48,1630317320.0,32.000000
-41,5,48,1630317320.0,32.000000
-42,5,47,1630317320.0,32.000000
-41,5,47,1630317320.0,32.000000
-41,5,47,1630317320.0,32.000000
-41,5,48,1630317320.0,32.000000
-41,5,48,1630317320.0,32.000000
-41,5,47,1630317320.0,32.000000
-41,5,47,1630317320.0,32.000000
-41,5,47,1630317320.0,32.000000
-41,5,47,1630317320.0,32.000000
-42,5,48,1630317320.0,32.000000
-41,5,47,1630317320.0,32.000000
-41,5,47,1630317320.0,32.000000
-41,5,47,1630317320.0,32.000000
-42,5,47,1630317320.0,32.000000
-41,5,47,1630317320.0,32.000000
-41,5,48,1630317320.0,32.000000
-41,5,48,1630317320.0,32.000000
-41,5,48,1630317320.0,32.000000
-42,5,47,1630317320.0,32.000000
-42,5,47,1630317320.0,32.000000
-41,5,47,1630317320.0,32.000000
-42,5,47,1630317320.0,32.000000
-41,5,48,1630317320.0,32.000000
-42,5,47,1630317320.0,32.000000
-42,5,48,1630317320.0,32.000000
-42,5,47,1630317320.0,32.000000
-41,5,48,1630317320.0,32.000000
-41,5,47,1630317320.0,32.000000
-41,5,47,1630317320.0,32.000000
-41,5,47,1630317320.0,32.000000
-42,5,47,1630317320.0,32.000000
-42,5,48,1630317320.0,32.000000
-42,5,47,1630317320.0,32.000000
-41,5,47,1630317320.0,32.000000
-42,5,48,1630317320.0,32.000000
-41,5,47,1630317320.0,32.000000
-42,5,47,1630317320.0,32.000000
-42,5,48,1630317320.0,32.000000
-42,5,47,1630317320.0,32.000000
-41,5,47,1630317320.0,32.000000
-41,5,47,1630317320.0,32.000000
-41,5,47,1630317320.0,32.000000
-41,5,48,1630317320.0,32.000000
-41,5,47,1630317320.0,32.000000
-41,5,47,1630317320.0,32.000000
-41,6,47,1630317320.0,32.000000
-42,4,48,1630317320.0,32.000000
-41,4,48,1630317320.0,32.000000
-42,4,47,1630317320.0,32.000000
-42,4,47,1630317320.0,32.000000
-42,5,47,1630317320.0,32.000000
-42,4,47,1630317320.0,32.000000
-42,5,47,1630317320.0,32.000000
-42,4,47,1630317320.0,32.000000
-43,5,47,1630317320.0,32.000000
-42,5,47,1630317320.0,32.000000
-43,5,48,1630317320.0,32.000000
-42,5,46,1630317320.0,32.000000
-43,4,46,1630317320.0,32.000000
-43,5,46,1630317320.0,32.000000
-43,5,47,1630317320.0,32.000000
-42,5,47,1630317320.0,32.000000
-43,5,47,1630317320.0,32.000000
-42,6,47,1630317320.0,32.000000
-41,5,47,1630317320.0,32.000000
-42,6,46,1630317320.0,32.000000
-44,5,46,1630317320.0,32.000000
-43,5,46,1630317320.0,32.000000
-42,4,47,1630317320.0,32.000000
-42,4,47,1630317320.0,32.000000
-43,5,47,1630317320.0,32.000000
-44,4,47,1630317320.0,32.000000
-42,5,46,1630317320.0,32.000000
-42,5,46,1630317320.0,32.000000
-43,6,46,1630317320.0,32.000000
-44,5,46,1630317320.0,32.000000
-43,3,47,1630317320.0,32.000000
-42,5,47,1630317320.0,32.000000
-41,4,47,1630317320.0,32.000000
-42,5,46,1630317320.0,32.000000
-44,5,45,1630317320.0,32.000000
-44,4,46,1630317320.0,32.000000
-42,3,47,1630317320.0,32.000000
-42,3,47,1630317320.0,32.000000
-43,4,47,1630317320.0,32.000000
-43,3,46,1630317320.0,32.000000
-43,4,46,1630317320.0,32.000000
-43,3,46,1630317320.0,32.000000
-43,4,46,1630317320.0,32.000000
-42,3,47,1630317320.0,32.000000
-42,3,47,1630317320.0,32.000000
-43,4,46,1630317320.0,32.000000
-44,4,45,1630317320.0,32.000000
-44,4,46,1630317320.0,32.000000
-43,3,46,1630317320.0,32.000000
-43,4,46,1630317320.0,32.000000
-43,5,44,1630317320.0,32.000000
-45,4,46,1630317320.0,32.000000
-44,3,46,1630317320.0,32.000000
-42,4,47,1630317320.0,32.000000
-42,5,45,1630317320.0,32.000000
-44,5,45,1630317320.0,32.000000
-44,5,45,1630317320.0,32.000000
-43,5,45,1630317320.0,32.000000
-44,4,46,1630317320.0,32.000000
-43,3,47,1630317320.0,32.000000
-42,3,47,1630317320.0,32.000000
-42,5,46,1630317320.0,32.000000
-44,4,45,1630317320.0,32.000000
-44,5,44,1630317320.0,32.000000
-45,4,45,1630317320.0,32.000000
-43,4,46,1630317320.0,32.000000
-41,3,47,1630317320.0,32.000000
-42,4,47,1630317320.0,32.000000
-44,4,46,1630317320.0,32.000000
-45,5,43,1630317320.0,32.000000
-46,5,44,1630317320.0,32.000000
-45,4,46,1630317320.0,32.000000
-41,4,48,1630317320.0,32.000000
-41,3,48,1630317320.0,32.000000
-41,3,47,1630317320.0,32.000000
-45,5,45,1630317320.0,32.000000
-45,4,45,1630317320.0,32.000000
-42,3,47,1630317320.0,32.000000
-41,3,48,1630317320.0,32.000000
-40,2,48,1630317320.0,32.000000
-41,4,47,1630317320.0,32.000000
-41,4,47,1630317320.0,32.000000
-43,3,46,1630317320.0,32.000000
-42,3,47,1630317320.0,32.000000
-42,3,47,1630317320.0,32.000000
-42,3,48,1630317320.0,32.000000
-42,2,48,1630317320.0,32.000000
-43,4,46,1630317320.0,32.000000
-45,5,43,1630317320.0,32.000000
-45,7,43,1630317320.0,32.000000
-46,4,44,1630317320.0,32.000000
-45,5,45,1630317320.0,32.000000
-43,4,46,1630317320.0,32.000000
-42,4,47,1630317320.0,32.000000
-42,4,46,1630317320.0,32.000000
-43,4,47,1630317320.0,32.000000
-43,4,46,1630317320.0,32.000000
-43,4,46,1630317320.0,32.000000
-42,4,47,1630317320.0,32.000000
-41,3,47,1630317320.0,32.000000
-42,4,47,1630317320.0,32.000000
-42,4,47,1630317320.0,32.000000
-42,4,47,1630317320.0,32.000000
-42,4,47,1630317320.0,32.000000
-42,4,47,1630317320.0,32.000000
-41,4,47,1630317320.0,32.000000
-42,4,47,1630317320.0,32.000000
-42,4,47,1630317320.0,32.000000
-42,4,47,1630317320.0,32.000000
-42,4,47,1630317320.0,32.000000
-42,4,47,1630317320.0,32.000000
-41,4,47,1630317320.0,32.000000
-42,4,47,1630317320.0,32.000000
-42,4,47,1630317320.0,32.000000
-43,5,47,1630317320.0,32.000000
-44,4,46,1630317320.0,32.000000
-43,5,47,1630317320.0,32.000000
-43,4,46,1630317320.0,32.000000
-44,5,47,1630317320.0,32.000000
-43,5,46,1630317320.0,32.000000
-44,5,47,1630317320.0,32.000000
-45,5,45,1630317320.0,32.000000
-42,6,46,1630317320.0,32.000000
-37,5,51,1630317320.0,32.000000
-40,3,47,1630317320.0,32.000000
-38,7,46,1630317320.0,32.000000
-41,11,46,1630317320.0,32.000000
-42,10,46,1630317320.0,32.000000
-43,8,47,1630317320.0,32.000000
-42,5,48,1630317320.0,32.000000
-40,5,47,1630317320.0,32.000000
-41,5,46,1630317320.0,32.000000
-41,6,49,1630317320.0,32.000000
-42,7,49,1630317320.0,32.000000
-41,6,49,1630317320.0,32.000000
-40,6,48,1630317320.0,32.000000
-40,6,47,1630317320.0,32.000000
-41,6,48,1630317320.0,32.000000
-41,5,47,1630317320.0,32.000000
-41,6,47,1630317320.0,32.000000
-41,6,48,1630317320.0,32.000000
-41,6,48,1630317320.0,32.000000
-41,6,48,1630317320.0,32.000000
-41,6,48,1630317320.0,32.000000
-41,6,48,1630317320.0,32.000000
-41,5,48,1630317320.0,32.000000
-41,6,48,1630317320.0,32.000000
-40,6,48,1630317320.0,32.000000
-40,6,48,1630317320.0,32.000000
-41,6,48,1630317320.0,32.000000
-41,6,48,1630317320.0,32.000000
-41,6,48,1630317320.0,32.000000
-41,6,48,1630317320.0,32.000000
-41,6,48,1630317320.0,32.000000
-41,6,48,1630317320.0,32.000000
-41,6,48,1630317320.0,32.000000
-41,6,48,1630317320.0,32.000000
-41,6,48,1630317320.0,32.000000
-41,6,47,1630317320.0,32.000000
-41,6,48,1630317320.0,32.000000
-41,6,48,1630317320.0,32.000000
-41,6,48,1630317320.0,32.000000
-41,6,47,1630317320.0,32.000000
-41,6,47,1630317320.0,32.000000
-41,6,48,1630317320.0,32.000000
-41,6,48,1630317320.0,32.000000
-41,6,48,1630317320.0,32.000000
-41,6,48,1630317320.0,32.000000
-41,6,48,1630317320.0,32.000000
-41,6,47,1630317320.0,32.000000
-41,6,48,1630317320.0,32.000000
-41,6,48,1630317320.0,32.000000
-41,6,48,1630317320.0,32.000000
-41,6,48,1630317320.0,32.000000
-41,6,48,1630317320.0,32.000000
-41,6,47,1630317320.0,32.000000
-41,6,48,1630317320.0,32.000000
-41,6,48,1630317320.0,32.000000
-41,6,48,1630317320.0,32.000000
-41,6,48,1630317320.0,32.000000
-41,6,48,1630317320.0,32.000000
-41,6,47,1630317320.0,32.000000
-41,6,48,1630317320.0,32.000000
-41,6,48,1630317320.0,32.000000
-41,6,48,1630317320.0,32.000000
-41,6,48,1630317320.0,32.000000
-41,6,47,1630317320.0,32.000000
-41,6,47,1630317320.0,32.000000
-41,6,48,1630317320.0,32.000000
-41,6,47,1630317320.0,32.000000
-41,6,47,1630317320.0,32.000000
-41,7,48,1630317320.0,32.000000
-41,7,48,1630317320.0,32.000000
-41,6,48,1630317320.0,32.000000
-41,7,47,1630317320.0,32.000000
-41,6,48,1630317320.0,32.000000
-42,5,47,1630317320.0,32.000000
-41,6,48,1630317320.0,32.000000
-41,6,47,1630317320.0,32.000000
-41,6,47,1630317320.0,32.000000
-42,7,47,1630317320.0,32.000000
-41,7,47,1630317320.0,32.000000
-41,6,48,1630317320.0,32.000000
-41,6,48,1630317320.0,32.000000
-41,6,48,1630317320.0,32.000000
-42,6,48,1630317320.0,32.000000
-41,6,47,1630317320.0,32.000000
-41,6,47,1630317320.0,32.000000
-41,6,47,1630317320.0,32.000000
-41,7,47,1630317320.0,32.000000
-41,6,47,1630317320.0,32.000000
-41,7,47,1630317320.0,32.000000
-41,7,48,1630317320.0,32.000000
-41,6,47,1630317320.0,32.000000
-41,6,48,1630317320.0,32.000000
-41,6,47,1630317320.0,32.000000
-42,6,47,1630317320.0,32.000000
-42,6,47,1630317320.0,32.000000
-41,6,47,1630317320.0,32.000000
-41,6,47,1630317320.0,32.000000
-41,6,47,1630317320.0,32.000000
-41,6,48,1630317320.0,32.000000
-41,6,47,1630317320.0,32.000000
-41,6,47,1630317320.0,32.000000
-42,6,47,1630317320.0,32.000000
-41,7,47,1630317320.0,32.000000
-41,6,47,1630317320.0,32.000000
-41,6,47,1630317320.0,32.000000
-41,6,47,1630317320.0,32.000000
-41,6,47,1630317320.0,32.000000
-41,6,47,1630317320.0,32.000000
-41,7,47,1630317320.0,32.000000
-41,6,47,1630317320.0,32.000000
-41,6,47,1630317320.0,32.000000
-41,6,48,1630317320.0,32.000000
-41,6,48,1630317320.0,32.000000
-41,6,48,1630317320.0,32.000000
-41,7,47,1630317320.0,32.000000
-41,6,47,1630317320.0,32.000000
-41,6,48,1630317320.0,32.000000
-41,6,47,1630317320.0,32.000000
-41,6,47,1630317320.0,32.000000
-41,6,47,1630317320.0,32.000000
-41,6,47,1630317320.0,32.000000
-41,6,47,1630317320.0,32.000000
-41,6,47,1630317320.0,32.000000
-41,7,47,1630317320.0,32.000000
-41,6,48,1630317320.0,32.000000
-41,7,48,1630317320.0,32.000000
-41,6,47,1630317320.0,32.000000
-41,7,48,1630317320.0,32.000000
-41,6,47,1630317320.0,32.000000
-41,6,47,1630317320.0,32.000000
-41,6,47,1630317320.0,32.000000
-41,6,47,1630317320.0,32.000000
-41,6,47,1630317320.0,32.000000
-41,6,47,1630317320.0,32.000000
-41,6,47,1630317320.0,32.000000
-41,7,48,1630317320.0,32.000000
-41,6,47,1630317320.0,32.000000
-41,7,47,1630317320.0,32.000000
-41,7,48,1630317320.0,32.000000
-41,7,47,1630317320.0,32.000000
-41,6,48,1630317320.0,32.000000
-41,6,47,1630317320.0,32.000000
-41,7,47,1630317320.0,32.000000
-41,6,47,1630317320.0,32.000000
-41,6,47,1630317320.0,32.000000
-41,6,48,1630317320.0,32.000000
-41,7,47,1630317320.0,32.000000
-41,7,47,1630317320.0,32.000000
-41,7,47,1630317320.0,32.000000
-41,6,48,1630317320.0,32.000000
-41,6,47,1630317320.0,32.000000
-41,7,48,1630317320.0,32.000000
-41,7,48,1630317320.0,32.000000
-41,7,47,1630317320.0,32.000000
-41,6,47,1630317320.0,32.000000
-41,6,47,1630317320.0,32.000000
-41,7,48,1630317320.0,32.000000
-41,6,47,1630317320.0,32.000000
-42,7,47,1630317320.0,32.000000
-41,7,47,1630317320.0,32.000000
-41,6,47,1630317320.0,32.000000
-41,7,48,1630317320.0,32.000000
-41,6,47,1630317320.0,32.000000
-41,6,47,1630317320.0,32.000000
-41,6,47,1630317320.0,32.000000
-41,6,47,1630317320.0,32.000000
-41,7,47,1630317320.0,32.000000
-41,6,47,1630317320.0,32.000000
-41,6,48,1630317320.0,32.000000
-41,7,48,1630317320.0,32.000000
-41,7,48,1630317320.0,32.000000
-41,6,47,1630317320.0,32.000000
-41,6,47,1630317320.0,32.000000
-41,7,47,1630317320.0,32.000000
-41,7,48,1630317320.0,32.000000
-42,6,47,1630317320.0,32.000000
-41,6,47,1630317320.0,32.000000
-42,6,47,1630317320.0,32.000000
-41,7,48,1630317320.0,32.000000
-41,7,47,1630317320.0,32.000000
-42,7,47,1630317320.0,32.000000
-41,7,47,1630317320.0,32.000000
-41,7,47,1630317320.0,32.000000
-41,7,48,1630317320.0,32.000000
-41,6,47,1630317320.0,32.000000
-42,6,47,1630317320.0,32.000000
-42,6,47,1630317320.0,32.000000
-41,6,47,1630317320.0,32.000000
-41,6,47,1630317320.0,32.000000
-41,6,47,1630317320.0,32.000000
-41,6,47,1630317320.0,32.000000
-41,7,48,1630317320.0,32.000000
-41,7,48,1630317320.0,32.000000
-41,6,47,1630317320.0,32.000000
-41,6,47,1630317320.0,32.000000
-41,6,47,1630317320.0,32.000000
-41,6,47,1630317320.0,32.000000
-41,6,47,1630317320.0,32.000000
-41,7,47,1630317320.0,32.000000
-41,6,48,1630317320.0,32.000000
-41,6,47,1630317320.0,32.000000
-42,7,47,1630317320.0,32.000000
-41,6,47,1630317320.0,32.000000
-41,7,47,1630317320.0,32.000000
-41,6,47,1630317320.0,32.000000
-41,7,47,1630317320.0,32.000000
-41,6,47,1630317320.0,32.000000
-41,6,47,1630317320.0,32.000000
-41,7,47,1630317320.0,32.000000
-41,7,47,1630317320.0,32.000000
-41,7,47,1630317320.0,32.000000
-41,7,47,1630317320.0,32.000000
-41,7,47,1630317320.0,32.000000
-41,7,47,1630317320.0,32.000000
-41,7,47,1630317320.0,32.000000
-41,6,47,1630317320.0,32.000000
-41,6,48,1630317320.0,32.000000
-41,7,47,1630317320.0,32.000000
-41,6,47,1630317320.0,32.000000
-41,7,47,1630317320.0,32.000000
-41,6,47,1630317320.0,32.000000
-41,7,47,1630317320.0,32.000000
-41,7,48,1630317320.0,32.000000
-41,7,47,1630317320.0,32.000000
-41,7,47,1630317320.0,32.000000
-41,7,47,1630317320.0,32.000000
-41,7,48,1630317320.0,32.000000
-42,6,47,1630317320.0,32.000000
-41,7,47,1630317320.0,32.000000
-41,7,47,1630317320.0,32.000000
-41,7,47,1630317320.0,32.000000
-41,7,47,1630317320.0,32.000000
-41,7,47,1630317320.0,32.000000
-41,7,47,1630317320.0,32.000000
-41,6,47,1630317320.0,32.000000
-41,7,48,1630317320.0,32.000000
-42,7,47,1630317320.0,32.000000
-41,6,47,1630317320.0,32.000000
-42,6,47,1630317320.0,32.000000
-41,7,48,1630317320.0,32.000000
-41,7,48,1630317320.0,32.000000
-42,7,47,1630317320.0,32.000000
-42,7,47,1630317320.0,32.000000
-42,7,47,1630317320.0,32.000000
-41,7,47,1630317320.0,32.000000
-41,6,47,1630317320.0,32.000000
-42,7,47,1630317320.0,32.000000
-42,7,47,1630317320.0,32.000000
-42,6,47,1630317320.0,32.000000
-41,5,48,1630317320.0,32.000000
-41,6,47,1630317320.0,32.000000
-41,6,47,1630317320.0,32.000000
-42,7,47,1630317320.0,32.000000
-42,8,47,1630317320.0,32.000000
-42,7,47,1630317320.0,32.000000
-41,6,48,1630317320.0,32.000000
-41,6,47,1630317320.0,32.000000
-42,7,47,1630317320.0,32.000000
-42,7,47,1630317320.0,32.000000
-42,6,47,1630317320.0,32.000000
-41,7,47,1630317320.0,32.000000
-41,6,47,1630317320.0,32.000000
-41,6,47,1630317320.0,32.000000
-41,7,47,1630317320.0,32.000000
-41,7,47,1630317320.0,32.000000
-41,7,47,1630317320.0,32.000000
-41,6,47,1630317320.0,32.000000
-41,6,47,1630317320.0,32.000000
-42,7,47,1630317320.0,32.000000
-42,7,47,1630317320.0,32.000000
-42,6,47,1630317320.0,32.000000
-41,7,47,1630317320.0,32.000000
-41,7,47,1630317320.0,32.000000
-42,7,47,1630317320.0,32.000000
-41,7,47,1630317320.0,32.000000
-41,7,47,1630317320.0,32.000000
-41,7,47,1630317320.0,32.000000
-41,7,47,1630317320.0,32.000000
-41,7,47,1630317320.0,32.000000
-41,7,47,1630317320.0,32.000000
-41,7,47,1630317320.0,32.000000
-41,7,47,1630317320.0,32.000000
-41,7,47,1630317320.0,32.000000
-42,6,47,1630317320.0,32.000000
-41,7,47,1630317320.0,32.000000
-41,6,47,1630317320.0,32.000000
-41,7,47,1630317320.0,32.000000
-41,7,47,1630317320.0,32.000000
-41,6,47,1630317320.0,32.000000
-41,7,47,1630317320.0,32.000000
-41,7,48,1630317320.0,32.000000
-41,7,47,1630317320.0,32.000000
-41,7,47,1630317320.0,32.000000
-41,7,47,1630317320.0,32.000000
-41,7,47,1630317320.0,32.000000
-42,7,47,1630317320.0,32.000000
-41,7,47,1630317320.0,32.000000
-41,7,47,1630317320.0,32.000000
-41,7,47,1630317320.0,32.000000
-41,7,48,1630317320.0,32.000000
-41,7,47,1630317320.0,32.000000
-41,7,47,1630317320.0,32.000000
-41,6,48,1630317320.0,32.000000
-41,7,48,1630317320.0,32.000000
-41,7,47,1630317320.0,32.000000
-41,7,47,1630317320.0,32.000000
-41,7,47,1630317320.0,32.000000
-41,7,47,1630317320.0,32.000000
-41,7,47,1630317320.0,32.000000
-41,7,47,1630317320.0,32.000000
-41,7,47,1630317320.0,32.000000
-41,6,47,1630317320.0,32.000000
-41,7,47,1630317320.0,32.000000
-41,6,47,1630317320.0,32.000000
-42,7,47,1630317320.0,32.000000
-41,7,47,1630317320.0,32.000000
-42,7,48,1630317320.0,32.000000
-41,6,49,1630317320.0,32.000000
-40,6,49,1630317320.0,32.000000
-39,6,48,1630317320.0,32.000000
-42,7,47,1630317320.0,32.000000
-42,8,46,1630317320.0,32.000000
-42,7,47,1630317320.0,32.000000
-41,7,47,1630317320.0,32.000000
-40,7,48,1630317320.0,32.000000
-41,7,48,1630317320.0,32.000000
-41,7,48,1630317320.0,32.000000
-41,7,47,1630317320.0,32.000000
-41,7,47,1630317320.0,32.000000
-41,7,47,1630317320.0,32.000000
-41,7,48,1630317320.0,32.000000
-41,7,48,1630317320.0,32.000000
-41,7,48,1630317320.0,32.000000
-41,7,48,1630317320.0,32.000000
-41,7,48,1630317320.0,32.000000
-41,7,48,1630317320.0,32.000000
-41,7,48,1630317320.0,32.000000
-41,7,48,1630317320.0,32.000000
-41,7,48,1630317320.0,32.000000
-41,7,48,1630317320.0,32.000000
-41,7,48,1630317320.0,32.000000
-41,7,48,1630317320.0,32.000000
-41,7,47,1630317320.0,32.000000
-41,7,48,1630317320.0,32.000000
-41,7,48,1630317320.0,32.000000
-41,7,48,1630317320.0,32.000000
-41,7,47,1630317320.0,32.000000
-41,7,48,1630317320.0,32.000000
-41,7,48,1630317320.0,32.000000
-41,7,47,1630317320.0,32.000000
-41,7,48,1630317320.0,32.000000
-41,7,48,1630317320.0,32.000000
-41,7,47,1630317320.0,32.000000
-41,7,48,1630317320.0,32.000000
-41,7,48,1630317320.0,32.000000
-41,7,48,1630317320.0,32.000000
-41,7,48,1630317320.0,32.000000
-41,7,48,1630317320.0,32.000000
-41,7,47,1630317320.0,32.000000
-41,7,48,1630317320.0,32.000000
-41,7,48,1630317320.0,32.000000
-41,7,47,1630317320.0,32.000000
-41,7,48,1630317320.0,32.000000
-41,7,47,1630317320.0,32.000000
-41,7,48,1630317320.0,32.000000
-41,7,48,1630317320.0,32.000000
-41,7,48,1630317320.0,32.000000
-41,7,47,1630317320.0,32.000000
-41,7,48,1630317320.0,32.000000
-41,7,48,1630317320.0,32.000000
-41,7,48,1630317320.0,32.000000
-41,7,48,1630317320.0,32.000000
-41,7,48,1630317320.0,32.000000
-41,7,48,1630317320.0,32.000000
-41,7,48,1630317320.0,32.000000
-41,7,47,1630317320.0,32.000000
-41,7,47,1630317320.0,32.000000
-41,7,47,1630317320.0,32.000000
-41,7,47,1630317320.0,32.000000
-41,7,48,1630317320.0,32.000000
-41,7,48,1630317320.0,32.000000
-41,7,47,1630317320.0,32.000000
-41,7,47,1630317320.0,32.000000
-41,7,48,1630317320.0,32.000000
-41,7,48,1630317320.0,32.000000
-41,7,48,1630317320.0,32.000000
-41,7,47,1630317320.0,32.000000
-41,7,47,1630317320.0,32.000000
-41,7,47,1630317320.0,32.000000
-41,7,48,1630317320.0,32.000000
-41,7,47,1630317320.0,32.000000
-41,7,48,1630317320.0,32.000000
-41,7,48,1630317320.0,32.000000
-41,7,48,1630317320.0,32.000000
-41,7,47,1630317320.0,32.000000
-41,7,48,1630317320.0,32.000000
-41,7,47,1630317320.0,32.000000
-41,7,48,1630317320.0,32.000000
-41,7,48,1630317320.0,32.000000
-41,7,48,1630317320.0,32.000000
-41,7,47,1630317320.0,32.000000
-41,7,47,1630317320.0,32.000000
-41,7,48,1630317320.0,32.000000
-41,7,48,1630317320.0,32.000000
-41,7,47,1630317320.0,32.000000
-41,7,48,1630317320.0,32.000000
-41,7,48,1630317320.0,32.000000
-41,7,47,1630317320.0,32.000000
-41,7,47,1630317320.0,32.000000
-41,7,48,1630317320.0,32.000000
-41,7,48,1630317320.0,32.000000
-41,7,47,1630317320.0,32.000000
-41,7,48,1630317320.0,32.000000
-41,7,48,1630317320.0,32.000000
-41,7,48,1630317320.0,32.000000
-41,7,48,1630317320.0,32.000000
-41,7,48,1630317320.0,32.000000
-41,7,48,1630317320.0,32.000000
-41,7,48,1630317320.0,32.000000
-41,7,48,1630317320.0,32.000000
-41,7,47,1630317320.0,32.000000
-41,7,48,1630317320.0,32.000000
-41,7,48,1630317320.0,32.000000
-41,7,48,1630317320.0,32.000000
-41,7,48,1630317320.0,32.000000
-41,7,48,1630317320.0,32.000000
-41,7,48,1630317320.0,32.000000
-41,7,48,1630317320.0,32.000000
-41,7,47,1630317320.0,32.000000
-41,7,47,1630317320.0,32.000000
-41,7,48,1630317320.0,32.000000
-41,7,48,1630317320.0,32.000000
-41,7,48,1630317320.0,32.000000
-41,7,47,1630317320.0,32.000000
-41,7,47,1630317320.0,32.000000
-41,7,48,1630317320.0,32.000000
-41,7,48,1630317320.0,32.000000
-42,7,48,1630317320.0,32.000000
-40,7,47,1630317320.0,32.000000
-41,5,48,1630317320.0,32.000000
-41,6,48,1630317320.0,32.000000
-41,7,48,1630317320.0,32.000000
-41,7,48,1630317320.0,32.000000
-42,7,47,1630317320.0,32.000000
-41,8,47,1630317320.0,32.000000
-41,8,48,1630317320.0,32.000000
-41,6,48,1630317320.0,32.000000
-41,7,48,1630317320.0,32.000000
-41,7,47,1630317320.0,32.000000
-41,7,47,1630317320.0,32.000000
-41,7,47,1630317320.0,32.000000
-41,7,48,1630317320.0,32.000000
-41,7,47,1630317320.0,32.000000
-41,7,48,1630317320.0,32.000000
-41,7,48,1630317320.0,32.000000
-41,7,47,1630317320.0,32.000000
-41,7,48,1630317320.0,32.000000
-41,7,48,1630317320.0,32.000000
-41,6,48,1630317320.0,32.000000
-41,7,47,1630317320.0,32.000000
-41,7,48,1630317320.0,32.000000
-41,7,48,1630317320.0,32.000000
-41,7,48,1630317320.0,32.000000
-41,7,48,1630317320.0,32.000000
-41,7,48,1630317320.0,32.000000
-41,7,48,1630317320.0,32.000000
-41,7,48,1630317320.0,32.000000
-41,7,48,1630317320.0,32.000000
-41,7,48,1630317320.0,32.000000
-41,7,48,1630317320.0,32.000000
-41,7,47,1630317320.0,32.000000
-41,7,48,1630317320.0,32.000000
-41,7,48,1630317320.0,32.000000
-41,7,48,1630317320.0,32.000000
-41,7,48,1630317320.0,32.000000
-41,7,48,1630317320.0,32.000000
-41,7,48,1630317320.0,32.000000
-41,7,48,1630317320.0,32.000000
-41,7,47,1630317320.0,32.000000
-41,7,48,1630317320.0,32.000000
-41,7,48,1630317320.0,32.000000
-41,7,48,1630317320.0,32.000000
-41,7,48,1630317320.0,32.000000
-41,7,48,1630317320.0,32.000000
-41,7,47,1630317320.0,32.000000
-41,7,48,1630317320.0,32.000000
-41,7,47,1630317320.0,32.000000
-41,7,48,1630317320.0,32.000000
-41,7,48,1630317320.0,32.000000
-41,7,47,1630317320.0,32.000000
-41,7,48,1630317320.0,32.000000
-41,7,48,1630317320.0,32.000000
-41,7,48,1630317320.0,32.000000
-41,7,48,1630317320.0,32.000000
-41,7,48,1630317320.0,32.000000
-41,7,48,1630317320.0,32.000000
-41,7,48,1630317320.0,32.000000
-41,7,47,1630317320.0,32.000000
-41,7,48,1630317320.0,32.000000
-41,7,48,1630317320.0,32.000000
-41,7,48,1630317320.0,32.000000
-41,7,48,1630317320.0,32.000000
-41,7,48,1630317320.0,32.000000
-41,7,48,1630317320.0,32.000000
-41,7,48,1630317320.0,32.000000
-41,7,47,1630317320.0,32.000000
-41,7,48,1630317320.0,32.000000
-41,7,48,1630317320.0,32.000000
-41,7,48,1630317320.0,32.000000
-41,7,48,1630317320.0,32.000000
-41,7,48,1630317320.0,32.000000
-41,7,48,1630317320.0,32.000000
-41,7,47,1630317320.0,32.000000
-41,7,48,1630317320.0,32.000000
-41,7,48,1630317320.0,32.000000
-41,7,47,1630317320.0,32.000000
-41,7,48,1630317320.0,32.000000
-41,7,48,1630317320.0,32.000000
-41,7,48,1630317320.0,32.000000
-41,7,47,1630317320.0,32.000000
-41,7,48,1630317320.0,32.000000
-41,7,48,1630317320.0,32.000000
-41,7,47,1630317320.0,32.000000
-41,7,48,1630317320.0,32.000000
-41,7,47,1630317320.0,32.000000
-41,7,48,1630317320.0,32.000000
-41,7,48,1630317320.0,32.000000
-41,7,48,1630317320.0,32.000000
-41,7,48,1630317320.0,32.000000
-41,7,48,1630317320.0,32.000000
-41,7,48,1630317320.0,32.000000
-41,7,47,1630317320.0,32.000000
-41,7,47,1630317320.0,32.000000
-41,7,48,1630317320.0,32.000000
-41,7,48,1630317320.0,32.000000
-41,7,48,1630317320.0,32.000000
-41,7,48,1630317320.0,32.000000
-41,7,48,1630317320.0,32.000000
-41,7,48,1630317320.0,32.000000
-41,7,48,1630317320.0,32.000000
-41,7,47,1630317320.0,32.000000
-41,7,47,1630317320.0,32.000000
-41,7,48,1630317320.0,32.000000
-41,7,48,1630317320.0,32.000000
-41,7,47,1630317320.0,32.000000
-40,7,48,1630317320.0,32.000000
-41,7,48,1630317320.0,32.000000
-41,7,48,1630317320.0,32.000000
-40,6,47,1630317320.0,32.000000
-41,6,47,1630317320.0,32.000000
-41,7,47,1630317320.0,32.000000
-41,7,48,1630317320.0,32.000000
-41,6,47,1630317320.0,32.000000
-41,7,48,1630317320.0,32.000000
-41,6,48,1630317320.0,32.000000
-41,7,48,1630317320.0,32.000000
-39,7,52,1630317320.0,32.000000
-41,6,46,1630317320.0,32.000000
-40,6,49,1630317320.0,32.000000
-41,5,48,1630317320.0,32.000000
-39,4,49,1630317320.0,32.000000
-40,5,49,1630317320.0,32.000000
-40,6,49,1630317320.0,32.000000
-40,6,48,1630317320.0,32.000000
-40,6,48,1630317320.0,32.000000
-40,6,49,1630317320.0,32.000000
-40,7,49,1630317320.0,32.000000
-40,7,49,1630317320.0,32.000000
-41,6,48,1630317320.0,32.000000
-40,6,48,1630317320.0,32.000000
-41,6,48,1630317320.0,32.000000
-41,5,48,1630317320.0,32.000000
-40,5,48,1630317320.0,32.000000
-40,6,48,1630317320.0,32.000000
-40,6,48,1630317320.0,32.000000
-41,6,48,1630317320.0,32.000000
-41,6,48,1630317320.0,32.000000
-41,6,48,1630317320.0,32.000000
-40,7,48,1630317320.0,32.000000
-40,6,48,1630317320.0,32.000000
-41,6,48,1630317320.0,32.000000
-41,6,48,1630317320.0,32.000000
-41,7,48,1630317320.0,32.000000
-41,6,48,1630317320.0,32.000000
-41,5,48,1630317320.0,32.000000
-41,5,48,1630317320.0,32.000000
-40,6,48,1630317320.0,32.000000
-41,7,48,1630317320.0,32.000000
-40,7,48,1630317320.0,32.000000
-41,7,47,1630317320.0,32.000000
-41,7,48,1630317320.0,32.000000
-41,6,48,1630317320.0,32.000000
-41,7,48,1630317320.0,32.000000
-41,6,48,1630317320.0,32.000000
-41,6,48,1630317320.0,32.000000
-41,7,47,1630317320.0,32.000000
-41,6,47,1630317320.0,32.000000
-41,5,48,1630317320.0,32.000000
-41,6,48,1630317320.0,32.000000
-40,6,48,1630317320.0,32.000000
-41,6,48,1630317320.0,32.000000
-41,7,48,1630317320.0,32.000000
-41,7,48,1630317320.0,32.000000
-41,6,48,1630317320.0,32.000000
-41,6,48,1630317320.0,32.000000
-41,6,48,1630317320.0,32.000000
-41,6,48,1630317320.0,32.000000
-41,6,48,1630317320.0,32.000000
-41,6,48,1630317320.0,32.000000
-41,6,48,1630317320.0,32.000000
-41,6,48,1630317320.0,32.000000
-41,6,48,1630317320.0,32.000000
-41,6,48,1630317320.0,32.000000
-41,6,48,1630317320.0,32.000000
-41,6,48,1630317320.0,32.000000
-41,6,48,1630317320.0,32.000000
-41,6,48,1630317320.0,32.000000
-41,6,48,1630317320.0,32.000000
-41,6,48,1630317320.0,32.000000
-41,6,48,1630317320.0,32.000000
-41,6,48,1630317320.0,32.000000
-41,6,48,1630317320.0,32.000000
-40,6,48,1630317320.0,32.000000
-41,6,48,1630317320.0,32.000000
-40,6,48,1630317320.0,32.000000
-41,6,48,1630317320.0,32.000000
-41,7,48,1630317320.0,32.000000
-41,7,48,1630317320.0,32.000000
-41,6,48,1630317320.0,32.000000
-41,6,48,1630317320.0,32.000000
-41,6,48,1630317320.0,32.000000
-41,7,48,1630317320.0,32.000000
-41,6,48,1630317320.0,32.000000
-41,6,48,1630317320.0,32.000000
-41,6,48,1630317320.0,32.000000
-41,6,47,1630317320.0,32.000000
-40,6,48,1630317320.0,32.000000
-40,7,48,1630317320.0,32.000000
-40,6,47,1630317320.0,32.000000
-41,6,47,1630317320.0,32.000000
-40,5,49,1630317320.0,32.000000
-40,5,48,1630317320.0,32.000000
-40,5,48,1630317320.0,32.000000
-40,5,49,1630317320.0,32.000000
-41,5,48,1630317320.0,32.000000
-39,5,48,1630317320.0,32.000000
-42,6,48,1630317320.0,32.000000
-40,5,50,1630317320.0,32.000000
-40,3,50,1630317320.0,32.000000
-39,2,50,1630317320.0,32.000000
-41,2,49,1630317320.0,32.000000
-38,3,50,1630317320.0,32.000000
-39,3,50,1630317320.0,32.000000
-38,4,50,1630317320.0,32.000000
-35,5,53,1630317320.0,32.000000
-42,3,49,1630317320.0,32.000000
-39,1,49,1630317320.0,32.000000
-39,1,50,1630317320.0,32.000000
-39,0,50,1630317320.0,32.000000
-38,3,49,1630317320.0,32.000000
-39,3,49,1630317320.0,32.000000
-39,3,50,1630317320.0,32.000000
-40,3,48,1630317320.0,32.000000
-41,3,48,1630317320.0,32.000000
-41,4,51,1630317320.0,32.000000
-40,6,52,1630317320.0,32.000000
-35,8,52,1630317320.0,32.000000
-37,2,58,1630317320.0,32.000000
-39,8,52,1630317320.0,32.000000
-24,7,59,1630317320.0,32.000000
-27,8,56,1630317320.0,32.000000
-24,11,55,1630317320.0,32.000000
-25,13,57,1630317320.0,32.000000
-23,14,56,1630317320.0,32.000000
-19,14,56,1630317320.0,32.000000
-20,11,55,1630317320.0,32.000000
-21,12,55,1630317320.0,32.000000
-22,13,56,1630317320.0,32.000000
-24,15,56,1630317320.0,32.000000
-28,14,56,1630317320.0,32.000000
-28,14,56,1630317320.0,32.000000
-28,14,57,1630317320.0,32.000000
-26,13,54,1630317320.0,32.000000
-25,14,55,1630317320.0,32.000000
-26,14,54,1630317320.0,32.000000
-23,14,56,1630317320.0,32.000000
-22,14,55,1630317320.0,32.000000
-24,13,54,1630317320.0,32.000000
-25,12,55,1630317320.0,32.000000
-23,13,55,1630317320.0,32.000000
-29,10,56,1630317320.0,32.000000
-32,10,58,1630317320.0,32.000000
-31,9,56,1630317320.0,32.000000
-32,9,53,1630317320.0,32.000000
-36,9,52,1630317320.0,32.000000
-34,9,54,1630317320.0,32.000000
-35,9,54,1630317320.0,32.000000
-35,9,52,1630317320.0,32.000000
-34,8,53,1630317320.0,32.000000
-33,8,53,1630317320.0,32.000000
-34,7,54,1630317320.0,32.000000
-33,7,55,1630317320.0,32.000000
-32,6,54,1630317320.0,32.000000
-33,6,55,1630317320.0,32.000000
-32,6,55,1630317320.0,32.000000
-32,7,54,1630317320.0,32.000000
-32,7,54,1630317320.0,32.000000
-32,8,54,1630317320.0,32.000000
-32,9,54,1630317320.0,32.000000
-31,8,54,1630317320.0,32.000000
-32,7,55,1630317320.0,32.000000
-32,7,54,1630317320.0,32.000000
-32,7,54,1630317320.0,32.000000
-34,7,53,1630317320.0,32.000000
-36,7,53,1630317320.0,32.000000
-29,7,55,1630317320.0,32.000000
-32,7,54,1630317320.0,32.000000
-31,7,55,1630317320.0,32.000000
-32,7,54,1630317320.0,32.000000
-32,7,54,1630317320.0,32.000000
-32,7,54,1630317320.0,32.000000
-32,7,54,1630317320.0,32.000000
-32,7,54,1630317320.0,32.000000
-32,7,54,1630317320.0,32.000000
-32,7,54,1630317320.0,32.000000
-32,7,54,1630317320.0,32.000000
-32,7,54,1630317320.0,32.000000
-31,7,54,1630317320.0,32.000000
-31,7,54,1630317320.0,32.000000
-31,7,54,1630317320.0,32.000000
-32,7,54,1630317320.0,32.000000
-32,7,54,1630317320.0,32.000000
-32,7,54,1630317320.0,32.000000
-32,7,54,1630317320.0,32.000000
-32,7,54,1630317320.0,32.000000
-31,7,54,1630317320.0,32.000000
-32,8,54,1630317320.0,32.000000
-31,8,54,1630317320.0,32.000000
-31,8,53,1630317320.0,32.000000
-32,7,53,1630317320.0,32.000000
-33,7,54,1630317320.0,32.000000
-34,7,53,1630317320.0,32.000000
-33,8,53,1630317320.0,32.000000
-33,8,54,1630317320.0,32.000000
-33,7,53,1630317320.0,32.000000
-33,7,53,1630317320.0,32.000000
-33,9,55,1630317320.0,32.000000
-33,7,55,1630317320.0,32.000000
-31,7,54,1630317320.0,32.000000
-29,8,55,1630317320.0,32.000000
-30,7,56,1630317320.0,32.000000
-29,7,56,1630317320.0,32.000000
-26,6,58,1630317320.0,32.000000
-26,6,57,1630317320.0,32.000000
-26,6,58,1630317320.0,32.000000
-23,4,60,1630317320.0,32.000000
-22,4,61,1630317320.0,32.000000
-20,3,63,1630317320.0,32.000000
-18,4,65,1630317320.0,32.000000
-18,6,69,1630317320.0,32.000000
-23,5,58,1630317320.0,32.000000
-26,3,53,1630317320.0,32.000000
-26,5,64,1630317320.0,32.000000
-25,8,62,1630317320.0,32.000000
-24,10,60,1630317320.0,32.000000
-23,12,58,1630317320.0,32.000000
-23,13,59,1630317320.0,32.000000
-21,13,58,1630317320.0,32.000000
-20,11,58,1630317320.0,32.000000
-19,11,57,1630317320.0,32.000000
-14,12,57,1630317320.0,32.000000
-11,12,56,1630317320.0,32.000000
-14,15,55,1630317320.0,32.000000
-11,19,55,1630317320.0,32.000000
-9,21,54,1630317320.0,32.000000
-11,22,55,1630317320.0,32.000000
-12,22,55,1630317320.0,32.000000
-13,20,57,1630317320.0,32.000000
-11,23,62,1630317320.0,32.000000
-11,21,58,1630317320.0,32.000000
-15,21,56,1630317320.0,32.000000
-12,22,55,1630317320.0,32.000000
-8,22,57,1630317320.0,32.000000
-9,25,56,1630317320.0,32.000000
-11,28,53,1630317320.0,32.000000
-17,29,51,1630317320.0,32.000000
-13,28,55,1630317320.0,32.000000
-16,28,54,1630317320.0,32.000000
-19,29,54,1630317320.0,32.000000
-18,28,54,1630317320.0,32.000000
-17,28,54,1630317320.0,32.000000
-18,27,53,1630317320.0,32.000000
-16,29,55,1630317320.0,32.000000
-13,28,58,1630317320.0,32.000000
-23,26,56,1630317320.0,32.000000
-23,26,57,1630317320.0,32.000000
-16,28,53,1630317320.0,32.000000
-14,27,51,1630317320.0,32.000000
-16,27,51,1630317320.0,32.000000
-18,29,49,1630317320.0,32.000000
-18,29,48,1630317320.0,32.000000
-23,28,50,1630317320.0,32.000000
-24,29,51,1630317320.0,32.000000
-26,27,51,1630317320.0,32.000000
-27,25,53,1630317320.0,32.000000
-29,24,53,1630317320.0,32.000000
-25,22,49,1630317320.0,32.000000
-30,19,52,1630317320.0,32.000000
-31,18,54,1630317320.0,32.000000
-34,18,54,1630317320.0,32.000000
-34,17,54,1630317320.0,32.000000
-32,17,54,1630317320.0,32.000000
-32,16,53,1630317320.0,32.000000
-29,14,52,1630317320.0,32.000000
-29,13,51,1630317320.0,32.000000
-30,14,49,1630317320.0,32.000000
-28,14,50,1630317320.0,32.000000
-30,13,53,1630317320.0,32.000000
-30,13,55,1630317320.0,32.000000
-29,11,60,1630317320.0,32.000000
-30,9,58,1630317320.0,32.000000
-28,8,60,1630317320.0,32.000000
-35,7,57,1630317320.0,32.000000
-34,7,56,1630317320.0,32.000000
-32,7,54,1630317320.0,32.000000
-34,6,53,1630317320.0,32.000000
-34,6,53,1630317320.0,32.000000
-39,6,53,1630317320.0,32.000000
-40,6,52,1630317320.0,32.000000
-38,7,51,1630317320.0,32.000000
-38,7,51,1630317320.0,32.000000
-37,6,51,1630317320.0,32.000000
-35,4,52,1630317320.0,32.000000
-37,4,52,1630317320.0,32.000000
-37,5,52,1630317320.0,32.000000
-37,6,51,1630317320.0,32.000000
-37,6,51,1630317320.0,32.000000
-37,6,51,1630317320.0,32.000000
-37,5,51,1630317320.0,32.000000
-37,6,51,1630317320.0,32.000000
-37,5,51,1630317320.0,32.000000
-37,6,50,1630317320.0,32.000000
-37,6,50,1630317320.0,32.000000
-37,6,51,1630317320.0,32.000000
-37,5,50,1630317320.0,32.000000
-37,6,51,1630317320.0,32.000000
-37,6,51,1630317320.0,32.000000
-37,6,50,1630317320.0,32.000000
-38,6,50,1630317320.0,32.000000
-37,6,51,1630317320.0,32.000000
-37,6,50,1630317320.0,32.000000
-37,6,50,1630317320.0,32.000000
-37,6,51,1630317320.0,32.000000
-37,6,51,1630317320.0,32.000000
-37,6,50,1630317320.0,32.000000
-38,6,51,1630317320.0,32.000000
-38,6,50,1630317320.0,32.000000
-38,6,50,1630317320.0,32.000000
-38,6,50,1630317320.0,32.000000
-38,6,51,1630317320.0,32.000000
-38,6,50,1630317320.0,32.000000
-38,5,50,1630317320.0,32.000000
-38,6,50,1630317320.0,32.000000
-38,5,50,1630317320.0,32.000000
-38,6,50,1630317320.0,32.000000
-38,6,50,1630317320.0,32.000000
-38,6,50,1630317320.0,32.000000
-38,6,50,1630317320.0,32.000000
-38,6,50,1630317320.0,32.000000
-38,6,50,1630317320.0,32.000000
-38,6,50,1630317320.0,32.000000
-38,6,50,1630317320.0,32.000000
-38,6,50,1630317320.0,32.000000
-38,6,50,1630317320.0,32.000000
-38,6,50,1630317320.0,32.000000
-38,6,51,1630317320.0,32.000000
-38,6,50,1630317320.0,32.000000
-38,6,50,1630317320.0,32.000000
-38,6,50,1630317320.0,32.000000
-38,6,50,1630317320.0,32.000000
-38,6,50,1630317320.0,32.000000
-38,6,50,1630317320.0,32.000000
-38,6,50,1630317320.0,32.000000
-38,6,50,1630317320.0,32.000000
-38,6,50,1630317320.0,32.000000
-38,6,50,1630317320.0,32.000000
-38,6,50,1630317320.0,32.000000
-38,6,50,1630317320.0,32.000000
-38,6,50,1630317320.0,32.000000
-38,6,50,1630317320.0,32.000000
-39,6,49,1630317320.0,32.000000
-39,6,49,1630317320.0,32.000000
-38,4,51,1630317320.0,32.000000
-37,6,52,1630317320.0,32.000000
-36,6,51,1630317320.0,32.000000
-37,6,51,1630317320.0,32.000000
-37,6,51,1630317320.0,32.000000
-39,5,50,1630317320.0,32.000000
-42,5,50,1630317320.0,32.000000
-50,0,51,1630317320.0,32.000000
-53,8,52,1630317320.0,32.000000
-53,9,56,1630317320.0,32.000000
-60,14,55,1630317320.0,32.000000
-54,17,53,1630317320.0,32.000000
-40,19,52,1630317320.0,32.000000
-32,20,47,1630317320.0,32.000000
-25,24,48,1630317320.0,32.000000
-19,19,48,1630317320.0,32.000000
-9,17,47,1630317320.0,32.000000
-7,16,46,1630317320.0,32.000000
-4,10,52,1630317320.0,32.000000
-2,9,51,1630317320.0,32.000000
10,10,56,1630317320.0,32.000000
8,8,70,1630317320.0,32.000000
12,6,85,1630317320.0,32.000000
24,9,82,1630317320.0,32.000000
21,9,56,1630317320.0,32.000000
-21,8,90,1630317320.0,32.000000
-21,20,58,1630317320.0,32.000000
-20,24,44,1630317320.0,32.000000
-22,29,28,1630317320.0,32.000000
-25,25,31,1630317320.0,32.000000
-26,22,36,1630317320.0,32.000000
-14,27,38,1630317320.0,32.000000
-14,29,35,1630317320.0,32.000000
-16,25,47,1630317320.0,32.000000
-10,28,51,1630317320.0,32.000000
-7,31,50,1630317320.0,32.000000
-8,29,52,1630317320.0,32.000000
-10,30,51,1630317320.0,32.000000
-16,32,50,1630317320.0,32.000000
-21,29,51,1630317320.0,32.000000
-25,30,50,1630317320.0,32.000000
-23,27,45,1630317320.0,32.000000
-39,22,48,1630317320.0,32.000000
-41,23,49,1630317320.0,32.000000
-35,20,50,1630317320.0,32.000000
-33,20,49,1630317320.0,32.000000
-41,18,53,1630317320.0,32.000000
-49,20,65,1630317320.0,32.000000
-50,18,62,1630317320.0,32.000000
-35,13,44,1630317320.0,32.000000
-39,10,44,1630317320.0,32.000000
-45,10,53,1630317320.0,32.000000
-43,9,47,1630317320.0,32.000000
-44,10,46,1630317320.0,32.000000
-43,9,50,1630317320.0,32.000000
-39,8,47,1630317320.0,32.000000
-40,8,47,1630317320.0,32.000000
-39,5,52,1630317320.0,32.000000
-40,5,51,1630317320.0,32.000000
-41,4,49,1630317320.0,32.000000
-38,2,51,1630317320.0,32.000000
-40,3,49,1630317320.0,32.000000
-39,6,48,1630317320.0,32.000000
-42,6,48,1630317320.0,32.000000
-42,5,48,1630317320.0,32.000000
-40,5,49,1630317320.0,32.000000
-39,4,49,1630317320.0,32.000000
-40,5,49,1630317320.0,32.000000
-41,5,48,1630317320.0,32.000000
-40,5,48,1630317320.0,32.000000
-40,5,49,1630317320.0,32.000000
-40,5,49,1630317320.0,32.000000
-40,4,48,1630317320.0,32.000000
-41,5,48,1630317320.0,32.000000
-41,5,48,1630317320.0,32.000000
-41,5,48,1630317320.0,32.000000
-40,5,48,1630317320.0,32.000000
-41,5,48,1630317320.0,32.000000
-40,5,48,1630317320.0,32.000000
-41,5,48,1630317320.0,32.000000
-41,5,48,1630317320.0,32.000000
-41,5,48,1630317320.0,32.000000
-40,5,48,1630317320.0,32.000000
-40,5,48,1630317320.0,32.000000
-40,5,48,1630317320.0,32.000000
-40,5,48,1630317320.0,32.000000
-40,5,48,1630317320.0,32.000000
-40,5,49,1630317320.0,32.000000
-40,5,48,1630317320.0,32.000000
-40,5,49,1630317320.0,32.000000
-40,5,49,1630317320.0,32.000000
-40,5,48,1630317320.0,32.000000
-40,5,49,1630317320.0,32.000000
-40,5,48,1630317320.0,32.000000
-40,5,49,1630317320.0,32.000000
-41,5,48,1630317320.0,32.000000
-41,5,48,1630317320.0,32.000000
-40,5,48,1630317320.0,32.000000
-40,5,48,1630317320.0,32.000000
-41,5,48,1630317320.0,32.000000
-41,5,48,1630317320.0,32.000000
-40,5,48,1630317320.0,32.000000
-40,4,48,1630317320.0,32.000000
-40,5,49,1630317320.0,32.000000
-40,5,49,1630317320.0,32.000000
-40,5,49,1630317320.0,32.000000
-39,5,49,1630317320.0,32.000000
-39,5,49,1630317320.0,32.000000
-40,5,49,1630317320.0,32.000000
-39,5,49,1630317320.0,32.000000
-40,5,49,1630317320.0,32.000000
-40,5,49,1630317320.0,32.000000
-40,5,49,1630317320.0,32.000000
-40,5,49,1630317320.0,32.000000
-40,4,49,1630317320.0,32.000000
-40,4,49,1630317320.0,32.000000
-40,5,49,1630317320.0,32.000000
-39,5,49,1630317320.0,32.000000
-40,5,49,1630317320.0,32.000000
-40,5,49,1630317320.0,32.000000
-40,5,49,1630317320.0,32.000000
-39,5,49,1630317320.0,32.000000
-40,5,48,1630317320.0,32.000000
-41,5,48,1630317320.0,32.000000
-41,4,48,1630317320.0,32.000000
-41,4,49,1630317320.0,32.000000
-40,4,49,1630317320.0,32.000000
-39,5,49,1630317320.0,32.000000
-40,5,49,1630317320.0,32.000000
-40,5,48,1630317320.0,32.000000
-41,6,49,1630317320.0,32.000000
-41,5,49,1630317320.0,32.000000
-40,5,49,1630317320.0,32.000000
-41,4,49,1630317320.0,32.000000
-39,4,49,1630317320.0,32.000000
-40,4,48,1630317320.0,32.000000
-40,5,48,1630317320.0,32.000000
-41,6,47,1630317320.0,32.000000
-41,5,48,1630317320.0,32.000000
-40,7,49,1630317320.0,32.000000
-42,5,48,1630317320.0,32.000000
-41,6,48,1630317320.0,32.000000
-41,4,49,1630317320.0,32.000000
-40,5,48,1630317320.0,32.000000
-41,5,48,1630317320.0,32.000000
-41,5,48,1630317320.0,32.000000
-41,5,47,1630317320.0,32.000000
-41,5,48,1630317320.0,32.000000
-40,5,48,1630317320.0,32.000000
-40,5,49,1630317320.0,32.000000
-40,5,49,1630317320.0,32.000000
-40,5,49,1630317320.0,32.000000
-41,5,48,1630317320.0,32.000000
-40,5,48,1630317320.0,32.000000
-41,5,48,1630317320.0,32.000000
-41,5,48,1630317320.0,32.000000
-41,5,48,1630317320.0,32.000000
-41,5,49,1630317320.0,32.000000
-40,5,48,1630317320.0,32.000000
-40,5,49,1630317320.0,32.000000
-40,5,49,1630317320.0,32.000000
-40,5,48,1630317320.0,32.000000
-40,5,49,1630317320.0,32.000000
-40,5,48,1630317320.0,32.000000
-41,5,48,1630317320.0,32.000000
-41,5,48,1630317320.0,32.000000
-41,5,48,1630317320.0,32.000000
-41,5,48,1630317320.0,32.000000
-41,5,48,1630317320.0,32.000000
-40,5,48,1630317320.0,32.000000
-40,5,48,1630317320.0,32.000000
-40,5,48,1630317320.0,32.000000
-41,5,48,1630317320.0,32.000000
-41,5,48,1630317320.0,32.000000
-41,5,48,1630317320.0,32.000000
-40,5,48,1630317320.0,32.000000
-41,6,48,1630317320.0,32.000000
-40,5,48,1630317320.0,32.000000
-41,4,48,1630317320.0,32.000000
-41,3,49,1630317320.0,32.000000
-40,4,48,1630317320.0,32.000000
-40,5,48,1630317320.0,32.000000
-40,5,48,1630317320.0,32.000000
-41,6,48,1630317320.0,32.000000
-40,5,49,1630317320.0,32.000000
-40,5,49,1630317320.0,32.000000
-40,5,48,1630317320.0,32.000000
-41,5,48,1630317320.0,32.000000
-40,5,48,1630317320.0,32.000000
-41,5,47,1630317320.0,32.000000
-41,5,48,1630317320.0,32.000000
-41,5,48,1630317320.0,32.000000
-41,5,48,1630317320.0,32.000000
-41,4,48,1630317320.0,32.000000
-40,5,48,1630317320.0,32.000000
-40,5,48,1630317320.0,32.000000
-41,5,48,1630317320.0,32.000000
-40,5,49,1630317320.0,32.000000
-40,5,49,1630317320.0,32.000000
-41,5,48,1630317320.0,32.000000
-41,5,48,1630317320.0,32.000000
-41,5,48,1630317320.0,32.000000
-41,5,48,1630317320.0,32.000000
-41,5,48,1630317320.0,32.000000
-41,5,48,1630317320.0,32.000000
-41,5,48,1630317320.0,32.000000
-40,5,48,1630317320.0,32.000000
-40,5,48,1630317320.0,32.000000
-41,5,48,1630317320.0,32.000000
-41,5,48,1630317320.0,32.000000
-41,5,48,1630317320.0,32.000000
-41,5,48,1630317320.0,32.000000
-41,5,48,1630317320.0,32.000000
-41,5,48,1630317320.0,32.000000
-40,5,48,1630317320.0,32.000000
-40,5,48,1630317320.0,32.000000
-40,5,48,1630317320.0,32.000000
-41,5,48,1630317320.0,32.000000
-40,5,49,1630317320.0,32.000000
-40,5,48,1630317320.0,32.000000
-41,5,48,1630317320.0,32.000000
-40,5,48,1630317320.0,32.000000
-40,5,48,1630317320.0,32.000000
-40,5,48,1630317320.0,32.000000
-40,5,48,1630317320.0,32.000000
-40,5,48,1630317320.0,32.000000
-40,5,48,1630317320.0,32.000000
-40,5,48,1630317320.0,32.000000
-40,5,48,1630317320.0,32.000000
-40,5,48,1630317320.0,32.000000
-41,5,49,1630317320.0,32.000000
-40,6,49,1630317320.0,32.000000
-39,5,49,1630317320.0,32.000000
-39,5,48,1630317320.0,32.000000
-40,5,48,1630317320.0,32.000000
-40,4,48,1630317320.0,32.000000
-40,5,48,1630317320.0,32.000000
-40,5,49,1630317320.0,32.000000
-40,5,49,1630317320.0,32.000000
-40,5,48,1630317320.0,32.000000
-40,5,48,1630317320.0,32.000000
-40,5,49,1630317320.0,32.000000
-40,6,49,1630317320.0,32.000000
-40,5,48,1630317320.0,32.000000
-40,5,49,1630317320.0,32.000000
-40,5,48,1630317320.0,32.000000
-40,5,49,1630317320.0,32.000000
-40,5,49,1630317320.0,32.000000
-40,5,48,1630317320.0,32.000000
-40,5,49,1630317320.0,32.000000
-40,5,49,1630317320.0,32.000000
-39,5,49,1630317320.0,32.000000
-40,5,49,1630317320.0,32.000000
-40,5,49,1630317320.0,32.000000
-40,5,49,1630317320.0,32.000000
-40,5,49,1630317320.0,32.000000
-40,5,49,1630317320.0,32.000000
-40,5,48,1630317320.0,32.000000
-40,5,48,1630317320.0,32.000000
-40,5,48,1630317320.0,32.000000
-40,5,48,1630317320.0,32.000000
-40,5,48,1630317320.0,32.000000
-40,5,49,1630317320.0,32.000000
-40,5,49,1630317320.0,32.000000
-40,5,48,1630317320.0,32.000000
-40,5,49,1630317320.0,32.000000
-40,5,48,1630317320.0,32.000000
-40,5,48,1630317320.0,32.000000
-40,5,48,1630317320.0,32.000000
-40,5,49,1630317320.0,32.000000
-40,5,49,1630317320.0,32.000000
-40,5,49,1630317320.0,32.000000
-40,5,49,1630317320.0,32.000000
-40,5,49,1630317320.0,32.000000
-40,5,48,1630317320.0,32.000000
-40,5,49,1630317320.0,32.000000
-40,5,49,1630317320.0,32.000000
-40,5,48,1630317320.0,32.000000
-40,5,49,1630317320.0,32.000000
-40,5,49,1630317320.0,32.000000
-40,5,48,1630317320.0,32.000000
-40,5,48,1630317320.0,32.000000
-40,5,48,1630317320.0,32.000000
-40,5,48,1630317320.0,32.000000
-40,5,49,1630317320.0,32.000000
-40,5,49,1630317320.0,32.000000
-40,5,49,1630317320.0,32.000000
-40,5,48,1630317320.0,32.000000
-40,5,48,1630317320.0,32.000000
-40,5,49,1630317320.0,32.000000
-40,5,48,1630317320.0,32.000000
-40,5,48,1630317320.0,32.000000
-40,5,49,1630317320.0,32.000000
-40,5,48,1630317320.0,32.000000
-40,5,49,1630317320.0,32.000000
-40,5,48,1630317320.0,32.000000
-40,5,48,1630317320.0,32.000000
-40,5,49,1630317320.0,32.000000
-40,5,49,1630317320.0,32.000000
-40,5,48,1630317320.0,32.000000
-40,5,49,1630317320.0,32.000000
-40,5,49,1630317320.0,32.000000
-40,5,49,1630317320.0,32.000000
-40,5,48,1630317320.0,32.000000
-40,5,49,1630317320.0,32.000000
-40,5,49,1630317320.0,32.000000
-40,5,49,1630317320.0,32.000000
-40,5,49,1630317320.0,32.000000
-39,5,49,1630317320.0,32.000000
-40,5,49,1630317320.0,32.000000
-41,5,48,1630317320.0,32.000000
-39,5,49,1630317320.0,32.000000
-40,5,49,1630317320.0,32.000000
-40,5,49,1630317320.0,32.000000
-40,5,49,1630317320.0,32.000000
-40,5,49,1630317320.0,32.000000
-40,5,48,1630317320.0,32.000000
-39,5,48,1630317320.0,32.000000
-39,5,49,1630317320.0,32.000000
-40,5,49,1630317320.0,32.000000
-39,5,49,1630317320.0,32.000000
-39,5,49,1630317320.0,32.000000
-39,6,50,1630317320.0,32.000000
-38,6,50,1630317320.0,32.000000
-37,6,50,1630317320.0,32.000000
-38,6,50,1630317320.0,32.000000
-37,6,51,1630317320.0,32.000000
-37,6,50,1630317320.0,32.000000
-38,6,50,1630317320.0,32.000000
-38,5,51,1630317320.0,32.000000
-37,5,51,1630317320.0,32.000000
-37,5,51,1630317320.0,32.000000
-38,5,51,1630317320.0,32.000000
-38,4,50,1630317320.0,32.000000
-37,5,51,1630317320.0,32.000000
-37,7,50,1630317320.0,32.000000
-37,8,50,1630317320.0,32.000000
-37,7,50,1630317320.0,32.000000
-37,7,50,1630317320.0,32.000000
-38,4,51,1630317320.0,32.000000
-39,4,50,1630317320.0,32.000000
-38,4,50,1630317320.0,32.000000
-37,6,51,1630317320.0,32.000000
-37,6,51,1630317320.0,32.000000
-37,6,50,1630317320.0,32.000000
-39,5,51,1630317320.0,32.000000
-38,6,51,1630317320.0,32.000000
-37,6,51,1630317320.0,32.000000
-38,6,52,1630317320.0,32.000000
-34,7,52,1630317320.0,32.000000
-36,6,50,1630317320.0,32.000000
-35,5,51,1630317320.0,32.000000
-38,4,51,1630317320.0,32.000000
-40,3,50,1630317320.0,32.000000
-41,4,50,1630317320.0,32.000000
-38,6,49,1630317320.0,32.000000
-37,5,51,1630317320.0,32.000000
-37,5,51,1630317320.0,32.000000
-37,5,52,1630317320.0,32.000000
-37,5,51,1630317320.0,32.000000
-37,5,51,1630317320.0,32.000000
-37,5,51,1630317320.0,32.000000
-38,6,50,1630317320.0,32.000000
-38,5,50,1630317320.0,32.000000
-38,5,50,1630317320.0,32.000000
-38,5,50,1630317320.0,32.000000
-38,6,50,1630317320.0,32.000000
-38,5,50,1630317320.0,32.000000
-37,5,51,1630317320.0,32.000000
-37,5,51,1630317320.0,32.000000
-37,5,51,1630317320.0,32.000000
-38,5,51,1630317320.0,32.000000
-38,5,50,1630317320.0,32.000000
-38,5,51,1630317320.0,32.000000
-37,5,50,1630317320.0,32.000000
-37,5,51,1630317320.0,32.000000
-38,6,51,1630317320.0,32.000000
-38,6,50,1630317320.0,32.000000
-38,6,51,1630317320.0,32.000000
-37,6,51,1630317320.0,32.000000
-37,6,51,1630317320.0,32.000000
-37,6,51,1630317320.0,32.000000
-37,6,51,1630317320.0,32.000000
-37,6,51,1630317320.0,32.000000
-36,6,52,1630317320.0,32.000000
-36,6,51,1630317320.0,32.000000
-36,6,51,1630317320.0,32.000000
-37,5,50,1630317320.0,32.000000
-37,5,51,1630317320.0,32.000000
-37,6,51,1630317320.0,32.000000
-36,6,51,1630317320.0,32.000000
-37,6,51,1630317320.0,32.000000
-38,6,51,1630317320.0,32.000000
-36,6,51,1630317320.0,32.000000
-37,6,51,1630317320.0,32.000000
-37,6,51,1630317320.0,32.000000
-37,6,51,1630317320.0,32.000000
-37,6,51,1630317320.0,32.000000
-37,6,51,1630317320.0,32.000000
-37,6,50,1630317320.0,32.000000
-38,6,50,1630317320.0,32.000000
-37,6,51,1630317320.0,32.000000
-37,6,51,1630317320.0,32.000000
-37,6,51,1630317320.0,32.000000
-37,6,51,1630317320.0,32.000000
-37,6,51,1630317320.0,32.000000
-37,6,51,1630317320.0,32.000000
-37,6,51,1630317320.0,32.000000
-37,6,51,1630317320.0,32.000000
-37,6,51,1630317320.0,32.000000
-37,6,51,1630317320.0,32.000000
-37,6,51,1630317320.0,32.000000
-37,6,51,1630317320.0,32.000000
-37,6,51,1630317320.0,32.000000
-37,6,51,1630317320.0,32.000000
-37,6,51,1630317320.0,32.000000
-37,6,51,1630317320.0,32.000000
-37,6,51,1630317320.0,32.000000
-37,6,51,1630317320.0,32.000000
-37,6,51,1630317320.0,32.000000
-37,6,51,1630317320.0,32.000000
-37,5,51,1630317320.0,32.000000
-37,6,51,1630317320.0,32.000000
-37,6,51,1630317320.0,32.000000
-37,6,51,1630317320.0,32.000000
-37,6,51,1630317320.0,32.000000
-37,6,51,1630317320.0,32.000000
-37,6,51,1630317320.0,32.000000
-38,6,50,1630317320.0,32.000000
-37,6,51,1630317320.0,32.000000
-38,6,50,1630317320.0,32.000000
-37,6,51,1630317320.0,32.000000
-37,6,51,1630317320.0,32.000000
-37,6,51,1630317320.0,32.000000
-37,6,51,1630317320.0,32.000000
-38,6,50,1630317320.0,32.000000
-38,6,50,1630317320.0,32.000000
-37,6,51,1630317320.0,32.000000
-38,6,51,1630317320.0,32.000000
-37,6,50,1630317320.0,32.000000
-38,6,50,1630317320.0,32.000000
-37,6,51,1630317320.0,32.000000
-38,6,50,1630317320.0,32.000000
-38,6,50,1630317320.0,32.000000
-37,6,51,1630317320.0,32.000000
-38,6,50,1630317320.0,32.000000
-38,6,50,1630317320.0,32.000000
-37,6,50,1630317320.0,32.000000
-37,6,50,1630317320.0,32.000000
-38,6,50,1630317320.0,32.000000
-38,6,51,1630317320.0,32.000000
-38,5,51,1630317320.0,32.000000
-37,5,51,1630317320.0,32.000000
-37,5,51,1630317320.0,32.000000
-37,6,50,1630317320.0,32.000000
-38,6,50,1630317320.0,32.000000
-37,6,51,1630317320.0,32.000000
-38,6,51,1630317320.0,32.000000
-37,6,51,1630317320.0,32.000000
-37,6,51,1630317320.0,32.000000
-37,6,51,1630317320.0,32.000000
-38,6,51,1630317320.0,32.000000
-38,6,50,1630317320.0,32.000000
-38,6,50,1630317320.0,32.000000
-38,6,50,1630317320.0,32.000000
-38,6,51,1630317320.0,32.000000
-37,6,51,1630317320.0,32.000000
-37,6,51,1630317320.0,32.000000
-38,6,51,1630317320.0,32.000000
-37,6,51,1630317320.0,32.000000
-37,6,51,1630317320.0,32.000000
-37,6,50,1630317320.0,32.000000
-38,6,50,1630317320.0,32.000000
-38,6,51,1630317320.0,32.000000
-38,6,50,1630317320.0,32.000000
-38,6,50,1630317320.0,32.000000
-37,6,50,1630317320.0,32.000000
-38,6,50,1630317320.0,32.000000
-38,6,50,1630317320.0,32.000000
-38,6,50,1630317320.0,32.000000
-37,6,50,1630317320.0,32.000000
-38,6,51,1630317320.0,32.000000
-37,6,51,1630317320.0,32.000000
-37,6,51,1630317320.0,32.000000
-38,6,50,1630317320.0,32.000000
-38,6,51,1630317320.0,32.000000
-37,6,50,1630317320.0,32.000000
-38,6,50,1630317320.0,32.000000
-38,6,50,1630317320.0,32.000000
-38,6,50,1630317320.0,32.000000
-38,6,51,1630317320.0,32.000000
-38,6,50,1630317320.0,32.000000
-38,6,50,1630317320.0,32.000000
-37,6,51,1630317320.0,32.000000
-37,6,50,1630317320.0,32.000000
-38,6,50,1630317320.0,32.000000
-38,6,50,1630317320.0,32.000000
-37,6,50,1630317320.0,32.000000
-37,6,52,1630317320.0,32.000000
-37,6,51,1630317320.0,32.000000
-38,6,50,1630317320.0,32.000000
-37,6,50,1630317320.0,32.000000
-37,6,51,1630317320.0,32.000000
-37,6,51,1630317320.0,32.000000
-37,6,51,1630317320.0,32.000000
-38,6,51,1630317320.0,32.000000
-37,6,50,1630317320.0,32.000000
-37,6,51,1630317320.0,32.000000
-37,6,51,1630317320.0,32.000000
-37,6,51,1630317320.0,32.000000
-37,6,51,1630317320.0,32.000000
-38,6,51,1630317320.0,32.000000
-38,6,50,1630317320.0,32.000000
-37,6,50,1630317320.0,32.000000
-37,6,50,1630317320.0,32.000000
-37,6,50,1630317320.0,32.000000
-38,6,51,1630317320.0,32.000000
-37,6,51,1630317320.0,32.000000
-37,6,51,1630317320.0,32.000000
-37,6,51,1630317320.0,32.000000
-37,6,51,1630317320.0,32.000000
-38,6,51,1630317320.0,32.000000
-37,6,50,1630317320.0,32.000000
-38,6,49,1630317320.0,32.000000
-37,6,53,1630317320.0,32.000000
-36,6,50,1630317320.0,32.000000
-38,6,51,1630317320.0,32.000000
-37,6,51,1630317320.0,32.000000
-37,6,51,1630317320.0,32.000000
-37,6,50,1630317320.0,32.000000
-37,6,50,1630317320.0,32.000000
-38,6,51,1630317320.0,32.000000
-38,6,50,1630317320.0,32.000000
-38,6,51,1630317320.0,32.000000
-36,6,50,1630317320.0,32.000000
-37,6,50,1630317320.0,32.000000
-36,6,50,1630317320.0,32.000000
-37,6,51,1630317320.0,32.000000
-37,6,51,1630317320.0,32.000000
-37,6,51,1630317320.0,32.000000
-36,6,52,1630317320.0,32.000000
-36,6,51,1630317320.0,32.000000
-37,6,51,1630317320.0,32.000000
-37,6,52,1630317320.0,32.000000
-36,6,52,1630317320.0,32.000000
-36,6,51,1630317320.0,32.000000
-38,6,50,1630317320.0,32.000000
-37,6,51,1630317320.0,32.000000
-37,6,51,1630317320.0,32.000000
-36,6,51,1630317320.0,32.000000
-36,6,50,1630317320.0,32.000000
-37,6,51,1630317320.0,32.000000
-37,6,50,1630317320.0,32.000000
-37,6,50,1630317320.0,32.000000
-38,5,51,1630317320.0,32.000000
-38,5,50,1630317320.0,32.000000
-38,6,51,1630317320.0,32.000000
-37,6,51,1630317320.0,32.000000
-36,5,51,1630317320.0,32.000000
-37,5,51,1630317320.0,32.000000
-37,5,51,1630317320.0,32.000000
-37,5,51,1630317320.0,32.000000
-36,5,52,1630317320.0,32.000000
-36,5,52,1630317320.0,32.000000
-35,5,52,1630317320.0,32.000000
-36,5,52,1630317320.0,32.000000
-37,5,52,1630317320.0,32.000000
-36,5,52,1630317320.0,32.000000
-37,5,51,1630317320.0,32.000000
-37,5,51,1630317320.0,32.000000
-37,6,51,1630317320.0,32.000000
-37,6,51,1630317320.0,32.000000
-37,6,51,1630317320.0,32.000000
-37,6,50,1630317320.0,32.000000
-37,6,50,1630317320.0,32.000000
-37,6,51,1630317320.0,32.000000
-37,6,50,1630317320.0,32.000000
-37,6,51,1630317320.0,32.000000
-37,6,51,1630317320.0,32.000000
-37,6,51,1630317320.0,32.000000
-37,6,51,1630317320.0,32.000000
-37,6,51,1630317320.0,32.000000
-36,6,51,1630317320.0,32.000000
-37,5,51,1630317320.0,32.000000
-37,6,51,1630317320.0,32.000000
-37,6,51,1630317320.0,32.000000
-37,5,51,1630317320.0,32.000000
-37,5,51,1630317320.0,32.000000
-37,6,51,1630317320.0,32.000000
-37,5,51,1630317320.0,32.000000
-37,6,51,1630317320.0,32.000000
-36,5,51,1630317320.0,32.000000
-37,5,50,1630317320.0,32.000000
-38,5,51,1630317320.0,32.000000
-37,5,51,1630317320.0,32.000000
-37,5,50,1630317320.0,32.000000
-38,6,51,1630317320.0,32.000000
-37,5,51,1630317320.0,32.000000
-36,5,51,1630317320.0,32.000000
-37,5,51,1630317320.0,32.000000
-36,5,51,1630317320.0,32.000000
-37,5,51,1630317320.0,32.000000
-37,5,51,1630317320.0,32.000000
-37,5,51,1630317320.0,32.000000
-37,5,51,1630317320.0,32.000000
-37,5,51,1630317320.0,32.000000
-37,5,51,1630317320.0,32.000000
-37,5,51,1630317320.0,32.000000
-37,5,50,1630317320.0,32.000000
-37,5,51,1630317320.0,32.000000
-37,5,51,1630317320.0,32.000000
-37,5,51,1630317320.0,32.000000
-37,5,51,1630317320.0,32.000000
-37,5,51,1630317320.0,32.000000
-37,5,51,1630317320.0,32.000000
-37,5,51,1630317320.0,32.000000
-36,5,51,1630317320.0,32.000000
-37,5,51,1630317320.0,32.000000
-37,5,51,1630317320.0,32.000000
-37,5,51,1630317320.0,32.000000
-37,5,51,1630317320.0,32.000000
-37,5,51,1630317320.0,32.000000
-37,5,51,1630317320.0,32.000000
-37,5,50,1630317320.0,32.000000
-37,5,51,1630317320.0,32.000000
-37,5,51,1630317320.0,32.000000
-37,5,52,1630317320.0,32.000000
-36,5,51,1630317320.0,32.000000
-37,5,51,1630317320.0,32.000000
-37,5,51,1630317320.0,32.000000
-37,5,51,1630317320.0,32.000000
-36,5,51,1630317320.0,32.000000
-37,5,51,1630317320.0,32.000000
-37,5,51,1630317320.0,32.000000
-36,5,52,1630317320.0,32.000000
-36,5,52,1630317320.0,32.000000
-36,5,51,1630317320.0,32.000000
-37,5,51,1630317320.0,32.000000
-38,5,50,1630317320.0,32.000000
-38,6,50,1630317320.0,32.000000
-37,5,51,1630317320.0,32.000000
-36,5,51,1630317320.0,32.000000
-37,5,51,1630317320.0,32.000000
-37,5,51,1630317320.0,32.000000
-36,5,51,1630317320.0,32.000000
-37,5,51,1630317320.0,32.000000
-37,5,51,1630317320.0,32.000000
-37,5,51,1630317320.0,32.000000
-36,5,51,1630317320.0,32.000000
-37,5,51,1630317320.0,32.000000
-37,5,51,1630317320.0,32.000000
-37,5,51,1630317320.0,32.000000
-37,5,51,1630317320.0,32.000000
-37,5,51,1630317320.0,32.000000
-37,5,51,1630317320.0,32.000000
-37,5,51,1630317320.0,32.000000
-37,5,51,1630317320.0,32.000000
-38,6,50,1630317320.0,32.000000
-38,5,51,1630317320.0,32.000000
-37,5,51,1630317320.0,32.000000
-36,5,52,1630317320.0,32.000000
-36,5,51,1630317320.0,32.000000
-36,5,51,1630317320.0,32.000000
-37,5,51,1630317320.0,32.000000
-37,5,51,1630317320.0,32.000000
-37,5,51,1630317320.0,32.000000
-36,5,52,1630317320.0,32.000000
-37,5,51,1630317320.0,32.000000
-37,5,51,1630317320.0,32.000000
-38,6,51,1630317320.0,32.000000
-38,5,51,1630317320.0,32.000000
-37,5,51,1630317320.0,32.000000
-38,5,51,1630317320.0,32.000000
-37,6,51,1630317320.0,32.000000
-38,6,51,1630317320.0,32.000000
-37,5,51,1630317320.0,32.000000
-37,6,51,1630317320.0,32.000000
-37,6,51,1630317320.0,32.000000
-37,5,50,1630317320.0,32.000000
-37,5,50,1630317320.0,32.000000
-38,6,51,1630317320.0,32.000000
-37,5,51,1630317320.0,32.000000
-37,6,50,1630317320.0,32.000000
-38,5,51,1630317320.0,32.000000
-37,5,51,1630317320.0,32.000000
-37,5,51,1630317320.0,32.000000
-36,5,51,1630317320.0,32.000000
-37,5,51,1630317320.0,32.000000
-36,5,51,1630317320.0,32.000000
-36,5,52,1630317320.0,32.000000
-36,5,52,1630317320.0,32.000000
-36,5,52,1630317320.0,32.000000
-36,5,52,1630317320.0,32.000000
-36,5,52,1630317320.0,32.000000
-36,4,51,1630317320.0,32.000000
-37,3,53,1630317320.0,32.000000
-34,5,50,1630317320.0,32.000000
-36,3,52,1630317320.0,32.000000
-36,5,52,1630317320.0,32.000000
-36,5,52,1630317320.0,32.000000
-34,5,52,1630317320.0,32.000000
-36,5,52,1630317320.0,32.000000
-36,5,51,1630317320.0,32.000000
-37,5,51,1630317320.0,32.000000
-37,5,51,1630317320.0,32.000000
-36,5,51,1630317320.0,32.000000
-37,5,51,1630317320.0,32.000000
-38,5,50,1630317320.0,32.000000
-38,5,51,1630317320.0,32.000000
-37,5,51,1630317320.0,32.000000
-37,5,51,1630317320.0,32.000000
-38,5,49,1630317320.0,32.000000
-38,6,50,1630317320.0,32.000000
-38,6,50,1630317320.0,32.000000
-38,6,50,1630317320.0,32.000000
-38,6,50,1630317320.0,32.000000
-37,6,50,1630317320.0,32.000000
-38,6,50,1630317320.0,32.000000
-38,6,50,1630317320.0,32.000000
-38,6,50,1630317320.0,32.000000
-37,6,50,1630317320.0,32.000000
-38,6,50,1630317320.0,32.000000
-38,6,50,1630317320.0,32.000000
-38,6,50,1630317320.0,32.000000
-38,6,50,1630317320.0,32.000000
-38,6,50,1630317320.0,32.000000
-38,6,50,1630317320.0,32.000000
-38,6,50,1630317320.0,32.000000
-38,6,50,1630317320.0,32.000000
-38,6,50,1630317320.0,32.000000
-38,6,51,1630317320.0,32.000000
-38,6,50,1630317320.0,32.000000
-38,6,50,1630317320.0,32.000000
-38,6,50,1630317320.0,32.000000
-38,6,50,1630317320.0,32.000000
-38,6,50,1630317320.0,32.000000
-38,6,50,1630317320.0,32.000000
-38,6,50,1630317320.0,32.000000
-38,6,50,1630317320.0,32.000000
-38,6,50,1630317320.0,32.000000
-38,6,50,1630317320.0,32.000000
-37,6,51,1630317320.0,32.000000
-37,6,51,1630317320.0,32.000000
-37,6,50,1630317320.0,32.000000
-39,6,50,1630317320.0,32.000000
-39,6,50,1630317320.0,32.000000
-38,6,50,1630317320.0,32.000000
-38,6,50,1630317320.0,32.000000
-38,6,50,1630317320.0,32.000000
-38,6,50,1630317320.0,32.000000
-38,6,50,1630317320.0,32.000000
-38,6,50,1630317320.0,32.000000
-38,6,51,1630317320.0,32.000000
-38,6,50,1630317320.0,32.000000
-38,6,50,1630317320.0,32.000000
-38,6,50,1630317320.0,32.000000
-38,6,50,1630317320.0,32.000000
-38,6,51,1630317320.0,32.000000
-38,6,51,1630317320.0,32.000000
-37,5,51,1630317320.0,32.000000
-37,5,50,1630317320.0,32.000000
-38,5,50,1630317320.0,32.000000
-38,5,48,1630317320.0,32.000000
-38,6,50,1630317320.0,32.000000
-38,2,49,1630317320.0,32.000000
-38,4,54,1630317320.0,32.000000
-39,2,52,1630317320.0,32.000000
-33,5,52,1630317320.0,32.000000
-35,6,51,1630317320.0,32.000000
-42,4,46,1630317320.0,32.000000
-45,6,46,1630317320.0,32.000000
-43,9,46,1630317320.0,32.000000
-39,3,47,1630317320.0,32.000000
-43,1,47,1630317320.0,32.000000
-41,5,45,1630317320.0,32.000000
-43,12,47,1630317320.0,32.000000
-42,10,49,1630317320.0,32.000000
-45,2,47,1630317320.0,32.000000
-45,-2,45,1630317320.0,32.000000
-43,3,46,1630317320.0,32.000000
-41,12,47,1630317320.0,32.000000
-38,8,49,1630317320.0,32.000000
-41,4,47,1630317320.0,32.000000
-43,3,47,1630317320.0,32.000000
-41,3,48,1630317320.0,32.000000
-46,3,44,1630317320.0,32.000000
-43,4,44,1630317320.0,32.000000
-43,4,47,1630317320.0,32.000000
-39,3,50,1630317320.0,32.000000
-39,1,52,1630317320.0,32.000000
-44,3,47,1630317320.0,32.000000
-43,6,44,1630317320.0,32.000000
-49,9,43,1630317320.0,32.000000
-41,1,48,1630317320.0,32.000000
-38,0,50,1630317320.0,32.000000
-38,-4,53,1630317320.0,32.000000
-34,-5,55,1630317320.0,32.000000
-31,-3,54,1630317320.0,32.000000
-36,-7,53,1630317320.0,32.000000
-35,-7,55,1630317320.0,32.000000
-38,-12,57,1630317320.0,32.000000
-38,-13,54,1630317320.0,32.000000
-35,-14,54,1630317320.0,32.000000
-41,-12,49,1630317320.0,32.000000
-42,-12,50,1630317320.0,32.000000
-37,-13,56,1630317320.0,32.000000
-32,-9,54,1630317320.0,32.000000
-31,-6,54,1630317320.0,32.000000
-23,2,57,1630317320.0,32.000000
-18,11,55,1630317320.0,32.000000
-18,14,54,1630317320.0,32.000000
-19,16,52,1630317320.0,32.000000
-18,17,50,1630317320.0,32.000000
-17,23,47,1630317320.0,32.000000
-17,26,46,1630317320.0,32.000000
-14,26,45,1630317320.0,32.000000
-32,20,51,1630317320.0,32.000000
-42,14,51,1630317320.0,32.000000
-55,-3,64,1630317320.0,32.000000
-94,17,33,1630317320.0,32.000000
-63,22,38,1630317320.0,32.000000
-48,11,46,1630317320.0,32.000000
-21,10,59,1630317320.0,32.000000
-22,13,57,1630317320.0,32.000000
-28,12,53,1630317320.0,32.000000
-30,10,52,1630317320.0,32.000000
-32,6,53,1630317320.0,32.000000
-29,6,54,1630317320.0,32.000000
-29,7,53,1630317320.0,32.000000
-32,7,52,1630317320.0,32.000000
-30,8,52,1630317320.0,32.000000
-35,8,47,1630317320.0,32.000000
-36,3,66,1630317320.0,32.000000
-37,3,68,1630317320.0,32.000000
-37,5,46,1630317320.0,32.000000
-40,8,36,1630317320.0,32.000000
-43,11,43,1630317320.0,32.000000
-48,14,50,1630317320.0,32.000000
-39,16,48,1630317320.0,32.000000
-40,15,47,1630317320.0,32.000000
-47,11,47,1630317320.0,32.000000
-42,11,49,1630317320.0,32.000000
-39,13,47,1630317320.0,32.000000
-39,13,44,1630317320.0,32.000000
-40,13,48,1630317320.0,32.000000
-45,15,45,1630317320.0,32.000000
-41,13,43,1630317320.0,32.000000
-31,14,53,1630317320.0,32.000000
-35,10,52,1630317320.0,32.000000
-41,9,45,1630317320.0,32.000000
-47,12,44,1630317320.0,32.000000
-46,12,45,1630317320.0,32.000000
-39,11,50,1630317320.0,32.000000
-39,12,49,1630317320.0,32.000000
-38,11,48,1630317320.0,32.000000
-38,11,48,1630317320.0,32.000000
-38,11,48,1630317320.0,32.000000
-39,12,50,1630317320.0,32.000000
-41,11,48,1630317320.0,32.000000
-40,12,47,1630317320.0,32.000000
-37,13,48,1630317320.0,32.000000
-41,10,48,1630317320.0,32.000000
-42,7,46,1630317320.0,32.000000
-35,10,49,1630317320.0,32.000000
-37,8,51,1630317320.0,32.000000
-41,8,49,1630317320.0,32.000000
-37,7,52,1630317320.0,32.000000
-33,7,55,1630317320.0,32.000000
-39,7,49,1630317320.0,32.000000
-40,7,49,1630317320.0,32.000000
-27,6,56,1630317320.0,32.000000
-35,6,52,1630317320.0,32.000000
-37,5,51,1630317320.0,32.000000
-36,6,51,1630317320.0,32.000000
-37,4,52,1630317320.0,32.000000
-34,5,53,1630317320.0,32.000000
-35,4,52,1630317320.0,32.000000
-32,5,53,1630317320.0,32.000000
-28,5,58,1630317320.0,32.000000
-26,4,58,1630317320.0,32.000000
-24,4,59,1630317320.0,32.000000
-24,2,58,1630317320.0,32.000000
-27,2,57,1630317320.0,32.000000
-27,2,57,1630317320.0,32.000000
-28,1,56,1630317320.0,32.000000
-26,1,58,1630317320.0,32.000000
-23,2,59,1630317320.0,32.000000
-25,5,57,1630317320.0,32.000000
-25,2,57,1630317320.0,32.000000
-25,-5,58,1630317320.0,32.000000
-22,-1,60,1630317320.0,32.000000
-21,-4,60,1630317320.0,32.000000
-24,0,59,1630317320.0,32.000000
-27,0,56,1630317320.0,32.000000
-27,1,57,1630317320.0,32.000000
-25,0,58,1630317320.0,32.000000
-21,1,60,1630317320.0,32.000000
-26,0,58,1630317320.0,32.000000
-25,1,57,1630317320.0,32.000000
-26,1,58,1630317320.0,32.000000
-29,1,57,1630317320.0,32.000000
-27,1,56,1630317320.0,32.000000
-29,1,57,1630317320.0,32.000000
-29,2,57,1630317320.0,32.000000
-24,3,58,1630317320.0,32.000000
-28,0,58,1630317320.0,32.000000
-20,4,55,1630317320.0,32.000000
-26,3,57,1630317320.0,32.000000
-28,2,58,1630317320.0,32.000000
-31,1,56,1630317320.0,32.000000
-25,1,56,1630317320.0,32.000000
-34,3,56,1630317320.0,32.000000
-27,-1,56,1630317320.0,32.000000
-26,3,60,1630317320.0,32.000000
-31,0,56,1630317320.0,32.000000
-26,6,57,1630317320.0,32.000000
-29,-5,56,1630317320.0,32.000000
-25,4,57,1630317320.0,32.000000
-26,6,60,1630317320.0,32.000000
-25,-2,58,1630317320.0,32.000000
-24,-2,58,1630317320.0,32.000000
-24,-3,60,1630317320.0,32.000000
-18,-2,62,1630317320.0,32.000000
-26,4,59,1630317320.0,32.000000
-28,0,57,1630317320.0,32.000000
-24,1,57,1630317320.0,32.000000
-25,6,58,1630317320.0,32.000000
-30,5,56,1630317320.0,32.000000
-25,5,57,1630317320.0,32.000000
-28,6,58,1630317320.0,32.000000
-26,3,58,1630317320.0,32.000000
-22,2,59,1630317320.0,32.000000
-25,1,59,1630317320.0,32.000000
-26,10,60,1630317320.0,32.000000
-25,-5,57,1630317320.0,32.000000
-19,-2,59,1630317320.0,32.000000
-22,0,58,1630317320.0,32.000000
-25,0,58,1630317320.0,32.000000
-21,0,60,1630317320.0,32.000000
-28,1,58,1630317320.0,32.000000
-19,-1,59,1630317320.0,32.000000
-16,2,61,1630317320.0,32.000000
-31,-1,57,1630317320.0,32.000000
-30,-2,56,1630317320.0,32.000000
-24,1,60,1630317320.0,32.000000
-28,3,59,1630317320.0,32.000000
-39,-10,64,1630317320.0,32.000000
-58,2,64,1630317320.0,32.000000
-41,2,62,1630317320.0,32.000000
-41,9,45,1630317320.0,32.000000
-37,5,40,1630317320.0,32.000000
-19,6,45,1630317320.0,32.000000
-17,15,49,1630317320.0,32.000000
-34,25,45,1630317320.0,32.000000
-33,26,41,1630317320.0,32.000000
-31,23,39,1630317320.0,32.000000
-36,17,43,1630317320.0,32.000000
-30,22,46,1630317320.0,32.000000
-19,23,38,1630317320.0,32.000000
-9,22,40,1630317320.0,32.000000
-4,19,42,1630317320.0,32.000000
-15,17,87,1630317320.0,32.000000
-17,6,87,1630317320.0,32.000000
-7,20,49,1630317320.0,32.000000
-21,0,59,1630317320.0,32.000000
-22,1,53,1630317320.0,32.000000
-40,7,63,1630317320.0,32.000000
-43,3,54,1630317320.0,32.000000
-44,6,49,1630317320.0,32.000000
-39,5,50,1630317320.0,32.000000
-35,4,51,1630317320.0,32.000000
-19,0,59,1630317320.0,32.000000
-25,4,58,1630317320.0,32.000000
-24,3,58,1630317320.0,32.000000
-21,6,61,1630317320.0,32.000000
-18,7,64,1630317320.0,32.000000
-16,7,65,1630317320.0,32.000000
-19,9,58,1630317320.0,32.000000
-19,4,62,1630317320.0,32.000000
-21,6,57,1630317320.0,32.000000
-23,4,59,1630317320.0,32.000000
-23,3,59,1630317320.0,32.000000
-28,5,57,1630317320.0,32.000000
-25,5,57,1630317320.0,32.000000
-25,6,57,1630317320.0,32.000000
-31,4,60,1630317320.0,32.000000
-26,0,63,1630317320.0,32.000000
-23,-6,60,1630317320.0,32.000000
-34,-10,54,1630317320.0,32.000000
-28,-8,55,1630317320.0,32.000000
-25,-9,49,1630317320.0,32.000000
-19,-9,60,1630317320.0,32.000000
-24,-14,55,1630317320.0,32.000000
-15,-10,58,1630317320.0,32.000000
-18,-3,59,1630317320.0,32.000000
-18,2,55,1630317320.0,32.000000
-20,0,61,1630317320.0,32.000000
-25,1,59,1630317320.0,32.000000
-19,-4,61,1630317320.0,32.000000
-17,-6,59,1630317320.0,32.000000
-20,-8,59,1630317320.0,32.000000
-21,7,58,1630317320.0,32.000000
-31,3,56,1630317320.0,32.000000
-27,-8,61,1630317320.0,32.000000
-24,-10,64,1630317320.0,32.000000
-27,-9,57,1630317320.0,32.000000
-24,-9,58,1630317320.0,32.000000
-26,-12,56,1630317320.0,32.000000
-23,-4,60,1630317320.0,32.000000
-24,0,60,1630317320.0,32.000000
-24,5,60,1630317320.0,32.000000
-19,8,58,1630317320.0,32.000000
-27,11,57,1630317320.0,32.000000
-21,12,57,1630317320.0,32.000000
-27,12,52,1630317320.0,32.000000
-30,6,56,1630317320.0,32.000000
-33,6,53,1630317320.0,32.000000
-30,6,55,1630317320.0,32.000000
-25,5,59,1630317320.0,32.000000
-24,7,57,1630317320.0,32.000000
-26,5,57,1630317320.0,32.000000
-24,1,60,1630317320.0,32.000000
-26,3,58,1630317320.0,32.000000
-29,6,53,1630317320.0,32.000000
-26,4,58,1630317320.0,32.000000
-26,4,59,1630317320.0,32.000000
-21,3,58,1630317320.0,32.000000
-23,6,57,1630317320.0,32.000000
-30,4,60,1630317320.0,32.000000
-23,4,59,1630317320.0,32.000000
-30,6,56,1630317320.0,32.000000
-27,7,54,1630317320.0,32.000000
-23,5,59,1630317320.0,32.000000
-25,4,59,1630317320.0,32.000000
-23,5,57,1630317320.0,32.000000
-24,4,58,1630317320.0,32.000000
-26,4,59,1630317320.0,32.000000
-26,5,58,1630317320.0,32.000000
-27,5,57,1630317320.0,32.000000
-27,3,58,1630317320.0,32.000000
-26,4,58,1630317320.0,32.000000
-24,3,58,1630317320.0,32.000000
-25,6,57,1630317320.0,32.000000
-25,4,58,1630317320.0,32.000000
-26,4,58,1630317320.0,32.000000
-26,2,57,1630317320.0,32.000000
-27,6,58,1630317320.0,32.000000
-24,1,58,1630317320.0,32.000000
-28,8,59,1630317320.0,32.000000
-26,6,57,1630317320.0,32.000000
-25,5,58,1630317320.0,32.000000
-26,5,57,1630317320.0,32.000000
-25,7,59,1630317320.0,32.000000
-24,6,58,1630317320.0,32.000000
-24,4,58,1630317320.0,32.000000
-25,3,58,1630317320.0,32.000000
-24,3,58,1630317320.0,32.000000
-25,2,58,1630317320.0,32.000000
-26,2,58,1630317320.0,32.000000
-22,2,59,1630317320.0,32.000000
-25,3,58,1630317320.0,32.000000
-23,3,59,1630317320.0,32.000000
-25,4,58,1630317320.0,32.000000
-25,3,58,1630317320.0,32.000000
-25,4,58,1630317320.0,32.000000
-30,3,56,1630317320.0,32.000000
-30,2,57,1630317320.0,32.000000
-24,3,58,1630317320.0,32.000000
-24,3,58,1630317320.0,32.000000
-25,2,59,1630317320.0,32.000000
-26,3,57,1630317320.0,32.000000
-25,3,58,1630317320.0,32.000000
-25,3,58,1630317320.0,32.000000
-23,3,58,1630317320.0,32.000000
-22,2,59,1630317320.0,32.000000
-25,3,58,1630317320.0,32.000000
-25,3,58,1630317320.0,32.000000
-25,3,58,1630317320.0,32.000000
-26,2,58,1630317320.0,32.000000
-26,3,57,1630317320.0,32.000000
-24,2,58,1630317320.0,32.000000
-26,2,58,1630317320.0,32.000000
-26,3,57,1630317320.0,32.000000
-28,3,57,1630317320.0,32.000000
-29,3,56,1630317320.0,32.000000
-29,3,55,1630317320.0,32.000000
-30,4,55,1630317320.0,32.000000
-29,4,56,1630317320.0,32.000000
-28,3,56,1630317320.0,32.000000
-29,3,56,1630317320.0,32.000000
-29,3,56,1630317320.0,32.000000
-28,3,56,1630317320.0,32.000000
-28,3,56,1630317320.0,32.000000
-30,3,55,1630317320.0,32.000000
-31,3,55,1630317320.0,32.000000
-31,4,55,1630317320.0,32.000000
-30,3,55,1630317320.0,32.000000
-30,3,56,1630317320.0,32.000000
-30,3,55,1630317320.0,32.000000
-30,3,56,1630317320.0,32.000000
-29,3,55,1630317320.0,32.000000
-31,3,55,1630317320.0,32.000000
-32,4,54,1630317320.0,32.000000
-32,3,54,1630317320.0,32.000000
-32,3,54,1630317320.0,32.000000
-32,3,54,1630317320.0,32.000000
-33,3,54,1630317320.0,32.000000
-33,3,54,1630317320.0,32.000000
-34,3,54,1630317320.0,32.000000
-33,3,54,1630317320.0,32.000000
-33,3,54,1630317320.0,32.000000
-33,3,54,1630317320.0,32.000000
-32,3,55,1630317320.0,32.000000
-32,3,54,1630317320.0,32.000000
-32,3,54,1630317320.0,32.000000
-31,3,54,1630317320.0,32.000000
-32,3,55,1630317320.0,32.000000
-32,3,54,1630317320.0,32.000000
-32,3,55,1630317320.0,32.000000
-32,3,54,1630317320.0,32.000000
-31,3,55,1630317320.0,32.000000
-31,3,55,1630317320.0,32.000000
-31,3,54,1630317320.0,32.000000
-31,3,55,1630317320.0,32.000000
-31,3,55,1630317320.0,32.000000
-31,3,55,1630317320.0,32.000000
-31,3,55,1630317320.0,32.000000
-32,3,55,1630317320.0,32.000000
-31,3,55,1630317320.0,32.000000
-32,3,55,1630317320.0,32.000000
-31,3,55,1630317320.0,32.000000
-31,3,55,1630317320.0,32.000000
-32,3,54,1630317320.0,32.000000
-31,3,55,1630317320.0,32.000000
-31,3,55,1630317320.0,32.000000
-31,3,55,1630317320.0,32.000000
-31,3,55,1630317320.0,32.000000
-32,3,55,1630317320.0,32.000000
-31,3,55,1630317320.0,32.000000
-31,3,55,1630317320.0,32.000000
-32,3,54,1630317320.0,32.000000
-31,3,55,1630317320.0,32.000000
-31,3,55,1630317320.0,32.000000
-31,3,55,1630317320.0,32.000000
-31,3,55,1630317320.0,32.000000
-31,3,55,1630317320.0,32.000000
-31,3,55,1630317320.0,32.000000
-32,3,54,1630317320.0,32.000000
-31,3,55,1630317320.0,32.000000
-31,3,55,1630317320.0,32.000000
-31,3,55,1630317320.0,32.000000
-32,3,54,1630317320.0,32.000000
-31,3,55,1630317320.0,32.000000
-31,3,56,1630317320.0,32.000000
-31,3,54,1630317320.0,32.000000
-31,3,55,1630317320.0,32.000000
-32,3,54,1630317320.0,32.000000
-31,3,54,1630317320.0,32.000000
-31,3,55,1630317320.0,32.000000
-31,3,55,1630317320.0,32.000000
-31,4,54,1630317320.0,32.000000
-32,3,55,1630317320.0,32.000000
-31,3,55,1630317320.0,32.000000
-31,3,55,1630317320.0,32.000000
-31,3,54,1630317320.0,32.000000
-32,3,55,1630317320.0,32.000000
-32,3,55,1630317320.0,32.000000
-31,3,55,1630317320.0,32.000000
-32,3,54,1630317320.0,32.000000
-32,3,55,1630317320.0,32.000000
-32,3,54,1630317320.0,32.000000
-31,3,55,1630317320.0,32.000000
-31,3,55,1630317320.0,32.000000
-32,3,55,1630317320.0,32.000000
-32,3,55,1630317320.0,32.000000
-31,3,54,1630317320.0,32.000000
-32,3,55,1630317320.0,32.000000
-31,3,55,1630317320.0,32.000000
-32,3,55,1630317320.0,32.000000
-31,3,55,1630317320.0,32.000000
-31,3,55,1630317320.0,32.000000
-32,3,54,1630317320.0,32.000000
-31,3,55,1630317320.0,32.000000
-31,3,54,1630317320.0,32.000000
-32,3,54,1630317320.0,32.000000
-31,3,55,1630317320.0,32.000000
-32,3,55,1630317320.0,32.000000
-32,3,55,1630317320.0,32.000000
-32,3,54,1630317320.0,32.000000
-32,3,54,1630317320.0,32.000000
-31,3,55,1630317320.0,32.000000
-31,3,54,1630317320.0,32.000000
-31,3,55,1630317320.0,32.000000
-32,3,54,1630317320.0,32.000000
-32,3,54,1630317320.0,32.000000
-32,3,54,1630317320.0,32.000000
-32,3,54,1630317320.0,32.000000
-32,3,55,1630317320.0,32.000000
-32,3,55,1630317320.0,32.000000
-32,3,54,1630317320.0,32.000000
-31,3,55,1630317320.0,32.000000
-32,3,54,1630317320.0,32.000000
-31,4,54,1630317320.0,32.000000
-32,3,54,1630317320.0,32.000000
-32,3,54,1630317320.0,32.000000
-32,3,55,1630317320.0,32.000000
-31,3,55,1630317320.0,32.000000
-32,3,54,1630317320.0,32.000000
-32,3,54,1630317320.0,32.000000
-31,3,55,1630317320.0,32.000000
-32,4,55,1630317320.0,32.000000
-32,3,54,1630317320.0,32.000000
-31,3,54,1630317320.0,32.000000
-32,4,54,1630317320.0,32.000000
-32,3,54,1630317320.0,32.000000
-32,3,55,1630317320.0,32.000000
-31,3,55,1630317320.0,32.000000
-31,4,54,1630317320.0,32.000000
-31,3,54,1630317320.0,32.000000
-32,3,55,1630317320.0,32.000000
-32,3,55,1630317320.0,32.000000
-32,3,55,1630317320.0,32.000000
-31,3,54,1630317320.0,32.000000
-31,3,55,1630317320.0,32.000000
-31,3,54,1630317320.0,32.000000
-31,3,55,1630317320.0,32.000000
-32,3,54,1630317320.0,32.000000
-32,3,54,1630317320.0,32.000000
-31,3,55,1630317320.0,32.000000
-31,3,55,1630317320.0,32.000000
-32,3,55,1630317320.0,32.000000
-32,3,55,1630317320.0,32.000000
-32,3,55,1630317320.0,32.000000
-31,3,55,1630317320.0,32.000000
-31,3,55,1630317320.0,32.000000
-31,3,54,1630317320.0,32.000000
-31,3,55,1630317320.0,32.000000
-31,3,55,1630317320.0,32.000000
-31,3,55,1630317320.0,32.000000
-31,3,55,1630317320.0,32.000000
-31,3,54,1630317320.0,32.000000
-31,3,55,1630317320.0,32.000000
-30,3,55,1630317320.0,32.000000
-30,3,55,1630317320.0,32.000000
-30,3,55,1630317320.0,32.000000
-30,3,55,1630317320.0,32.000000
-30,3,56,1630317320.0,32.000000
-29,3,56,1630317320.0,32.000000
-30,3,56,1630317320.0,32.000000
-28,3,56,1630317320.0,32.000000
-27,3,57,1630317320.0,32.000000
-27,3,57,1630317320.0,32.000000
-27,2,57,1630317320.0,32.000000
-26,3,58,1630317320.0,32.000000
-25,2,58,1630317320.0,32.000000
-25,3,59,1630317320.0,32.000000
-26,3,57,1630317320.0,32.000000
-26,3,57,1630317320.0,32.000000
-26,3,58,1630317320.0,32.000000
-25,3,58,1630317320.0,32.000000
-26,3,58,1630317320.0,32.000000
-25,3,58,1630317320.0,32.000000
-26,3,57,1630317320.0,32.000000
-26,3,58,1630317320.0,32.000000
-26,3,57,1630317320.0,32.000000
-26,3,58,1630317320.0,32.000000
-26,3,57,1630317320.0,32.000000
-27,3,57,1630317320.0,32.000000
-27,3,57,1630317320.0,32.000000
-27,3,57,1630317320.0,32.000000
-26,3,57,1630317320.0,32.000000
-26,3,58,1630317320.0,32.000000
-27,3,57,1630317320.0,32.000000
-27,3,57,1630317320.0,32.000000
-27,3,57,1630317320.0,32.000000
-27,3,57,1630317320.0,32.000000
-27,3,57,1630317320.0,32.000000
-27,3,57,1630317320.0,32.000000
-27,3,57,1630317320.0,32.000000
-28,3,57,1630317320.0,32.000000
-28,3,56,1630317320.0,32.000000
-27,3,56,1630317320.0,32.000000
-27,3,57,1630317320.0,32.000000
-28,3,56,1630317320.0,32.000000
-28,3,57,1630317320.0,32.000000
-28,3,56,1630317320.0,32.000000
-28,3,56,1630317320.0,32.000000
-27,3,57,1630317320.0,32.000000
-27,3,57,1630317320.0,32.000000
-27,3,57,1630317320.0,32.000000
-28,3,56,1630317320.0,32.000000
-27,3,57,1630317320.0,32.000000
-27,3,57,1630317320.0,32.000000
-27,3,56,1630317320.0,32.000000
-27,3,57,1630317320.0,32.000000
-28,3,57,1630317320.0,32.000000
-27,3,57,1630317320.0,32.000000
-27,3,57,1630317320.0,32.000000
-28,3,56,1630317320.0,32.000000
-27,3,57,1630317320.0,32.000000
-27,3,57,1630317320.0,32.000000
-28,3,56,1630317320.0,32.000000
-28,3,56,1630317320.0,32.000000
-28,3,57,1630317320.0,32.000000
-28,3,57,1630317320.0,32.000000
-28,3,56,1630317320.0,32.000000
-27,3,57,1630317320.0,32.000000
-28,3,56,1630317320.0,32.000000
-27,3,57,1630317320.0,32.000000
-27,3,57,1630317320.0,32.000000
-27,3,57,1630317320.0,32.000000
-28,3,57,1630317320.0,32.000000
-27,3,56,1630317320.0,32.000000
-27,3,56,1630317320.0,32.000000
-27,3,57,1630317320.0,32.000000
-27,3,57,1630317320.0,32.000000
-27,3,56,1630317320.0,32.000000
-27,3,57,1630317320.0,32.000000
-27,3,57,1630317320.0,32.000000
-27,3,57,1630317320.0,32.000000
-27,3,57,1630317320.0,32.000000
-28,3,57,1630317320.0,32.000000
-27,3,57,1630317320.0,32.000000
-27,3,57,1630317320.0,32.000000
-28,3,56,1630317320.0,32.000000
-27,3,57,1630317320.0,32.000000
-27,3,57,1630317320.0,32.000000
-28,3,57,1630317320.0,32.000000
-27,3,57,1630317320.0,32.000000
-28,3,56,1630317320.0,32.000000
-28,3,57,1630317320.0,32.000000
-27,3,57,1630317320.0,32.000000
-28,3,57,1630317320.0,32.000000
-28,3,57,1630317320.0,32.000000
-28,3,57,1630317320.0,32.000000
-27,3,57,1630317320.0,32.000000
-27,3,57,1630317320.0,32.000000
-27,3,57,1630317320.0,32.000000
-27,3,57,1630317320.0,32.000000
-28,3,56,1630317320.0,32.000000
-27,3,56,1630317320.0,32.000000
-28,3,57,1630317320.0,32.000000
-28,3,56,1630317320.0,32.000000
-27,3,57,1630317320.0,32.000000
-28,3,57,1630317320.0,32.000000
-27,3,57,1630317320.0,32.000000
-27,3,57,1630317320.0,32.000000
-28,3,57,1630317320.0,32.000000
-28,3,56,1630317320.0,32.000000
-28,3,56,1630317320.0,32.000000
-27,3,57,1630317320.0,32.000000
-28,3,57,1630317320.0,32.000000
-27,3,57,1630317320.0,32.000000
-28,3,57,1630317320.0,32.000000
-28,3,56,1630317320.0,32.000000
-27,3,57,1630317320.0,32.000000
-27,3,57,1630317320.0,32.000000
-27,3,57,1630317320.0,32.000000
-28,3,56,1630317320.0,32.000000
-28,3,56,1630317320.0,32.000000
-27,3,57,1630317320.0,32.000000
-28,3,56,1630317320.0,32.000000
-27,3,57,1630317320.0,32.000000
-28,3,56,1630317320.0,32.000000
-28,3,56,1630317320.0,32.000000
-27,3,57,1630317320.0,32.000000
-28,3,57,1630317320.0,32.000000
-28,3,56,1630317320.0,32.000000
-27,3,57,1630317320.0,32.000000
-27,3,56,1630317320.0,32.000000
-28,3,57,1630317320.0,32.000000
-27,3,57,1630317320.0,32.000000
-28,3,56,1630317320.0,32.000000
-28,3,56,1630317320.0,32.000000
-28,3,57,1630317320.0,32.000000
-27,3,57,1630317320.0,32.000000
-27,3,56,1630317320.0,32.000000
-27,3,56,1630317320.0,32.000000
-28,3,57,1630317320.0,32.000000
-28,3,57,1630317320.0,32.000000
-28,3,57,1630317320.0,32.000000
-27,3,56,1630317320.0,32.000000
-27,3,57,1630317320.0,32.000000
-27,3,57,1630317320.0,32.000000
-27,3,56,1630317320.0,32.000000
-28,3,57,1630317320.0,32.000000
-28,3,57,1630317320.0,32.000000
-27,3,57,1630317320.0,32.000000
-28,3,57,1630317320.0,32.000000
-27,3,57,1630317320.0,32.000000
-27,3,57,1630317320.0,32.000000
-27,3,57,1630317320.0,32.000000
-27,3,57,1630317320.0,32.000000
-28,3,56,1630317320.0,32.000000
-28,3,56,1630317320.0,32.000000
-27,3,56,1630317320.0,32.000000
-27,3,56,1630317320.0,32.000000
-28,3,56,1630317320.0,32.000000
-27,4,57,1630317320.0,32.000000
-27,3,57,1630317320.0,32.000000
-27,3,57,1630317320.0,32.000000
-27,3,57,1630317320.0,32.000000
-27,3,57,1630317320.0,32.000000
-27,3,57,1630317320.0,32.000000
-27,3,57,1630317320.0,32.000000
-28,3,57,1630317320.0,32.000000
-27,3,57,1630317320.0,32.000000
-27,3,57,1630317320.0,32.000000
-27,3,57,1630317320.0,32.000000
-27,3,57,1630317320.0,32.000000
-27,3,57,1630317320.0,32.000000
-28,3,57,1630317320.0,32.000000
-27,3,57,1630317320.0,32.000000
-27,3,57,1630317320.0,32.000000
-27,3,57,1630317320.0,32.000000
-27,3,57,1630317320.0,32.000000
-28,3,57,1630317320.0,32.000000
-27,3,57,1630317320.0,32.000000
-27,3,57,1630317320.0,32.000000
-28,3,56,1630317320.0,32.000000
-27,3,57,1630317320.0,32.000000
-27,3,56,1630317320.0,32.000000
-27,3,57,1630317320.0,32.000000
-27,3,56,1630317320.0,32.000000
-28,3,57,1630317320.0,32.000000
-27,3,57,1630317320.0,32.000000
-27,3,57,1630317320.0,32.000000
-27,3,57,1630317320.0,32.000000
-27,3,57,1630317320.0,32.000000
-27,3,57,1630317320.0,32.000000
-27,3,57,1630317320.0,32.000000
-27,3,57,1630317320.0,32.000000
-28,3,56,1630317320.0,32.000000
-27,3,57,1630317320.0,32.000000
-27,3,57,1630317320.0,32.000000
-27,3,57,1630317320.0,32.000000
-27,3,57,1630317320.0,32.000000
-28,3,56,1630317320.0,32.000000
-27,3,57,1630317320.0,32.000000
-28,3,56,1630317320.0,32.000000
-28,3,56,1630317320.0,32.000000
-28,3,57,1630317320.0,32.000000
-28,3,57,1630317320.0,32.000000
-28,3,57,1630317320.0,32.000000
-28,3,57,1630317320.0,32.000000
-27,3,57,1630317320.0,32.000000
-27,3,57,1630317320.0,32.000000
-27,3,57,1630317320.0,32.000000
-27,3,57,1630317320.0,32.000000
-27,3,57,1630317320.0,32.000000
-26,3,57,1630317320.0,32.000000
-27,3,57,1630317320.0,32.000000
-27,3,57,1630317320.0,32.000000
-27,3,57,1630317320.0,32.000000
-27,3,57,1630317320.0,32.000000
-27,3,57,1630317320.0,32.000000
-26,3,57,1630317320.0,32.000000
-26,3,57,1630317320.0,32.000000
-26,3,58,1630317320.0,32.000000
-26,3,57,1630317320.0,32.000000
-26,3,58,1630317320.0,32.000000
-26,3,57,1630317320.0,32.000000
-25,3,58,1630317320.0,32.000000
-26,3,58,1630317320.0,32.000000
-26,3,57,1630317320.0,32.000000
-26,3,57,1630317320.0,32.000000
-27,3,57,1630317320.0,32.000000
-26,3,57,1630317320.0,32.000000
-26,3,57,1630317320.0,32.000000
-27,3,57,1630317320.0,32.000000
-26,3,57,1630317320.0,32.000000
-26,3,57,1630317320.0,32.000000
-26,3,57,1630317320.0,32.000000
-26,4,57,1630317320.0,32.000000
-26,3,58,1630317320.0,32.000000
-27,3,58,1630317320.0,32.000000
-26,3,57,1630317320.0,32.000000
-27,3,57,1630317320.0,32.000000
-27,3,57,1630317320.0,32.000000
-26,3,57,1630317320.0,32.000000
-26,3,57,1630317320.0,32.000000
-27,3,57,1630317320.0,32.000000
-26,3,57,1630317320.0,32.000000
-26,3,57,1630317320.0,32.000000
-27,3,57,1630317320.0,32.000000
-26,3,58,1630317320.0,32.000000
-26,3,57,1630317320.0,32.000000
-27,3,57,1630317320.0,32.000000
-27,3,57,1630317320.0,32.000000
-26,3,57,1630317320.0,32.000000
-26,3,57,1630317320.0,32.000000
-27,3,57,1630317320.0,32.000000
-26,3,57,1630317320.0,32.000000
-26,3,57,1630317320.0,32.000000
-27,3,57,1630317320.0,32.000000
-26,3,57,1630317320.0,32.000000
-26,3,57,1630317320.0,32.000000
-27,3,57,1630317320.0,32.000000
-27,3,57,1630317320.0,32.000000
-26,3,57,1630317320.0,32.000000
-27,3,57,1630317320.0,32.000000
-26,3,57,1630317320.0,32.000000
-26,3,57,1630317320.0,32.000000
-26,3,57,1630317320.0,32.000000
-26,3,57,1630317320.0,32.000000
-26,3,57,1630317320.0,32.000000
-27,3,57,1630317320.0,32.000000
-27,3,57,1630317320.0,32.000000
-27,3,57,1630317320.0,32.000000
-26,3,57,1630317320.0,32.000000
-31,3,56,1630317320.0,32.000000
-37,3,54,1630317320.0,32.000000
-30,2,62,1630317320.0,32.000000
-28,4,57,1630317320.0,32.000000
-26,6,59,1630317320.0,32.000000
-26,4,58,1630317320.0,32.000000
-21,10,57,1630317320.0,32.000000
-16,12,62,1630317320.0,32.000000
-20,15,60,1630317320.0,32.000000
-8,17,63,1630317320.0,32.000000
-4,19,64,1630317320.0,32.000000
-5,18,66,1630317320.0,32.000000
-8,18,69,1630317320.0,32.000000
-18,18,69,1630317320.0,32.000000
-24,22,68,1630317320.0,32.000000
-20,24,68,1630317320.0,32.000000
-16,31,63,1630317320.0,32.000000
-4,30,64,1630317320.0,32.000000
6,34,58,1630317320.0,32.000000
11,34,55,1630317320.0,32.000000
12,34,56,1630317320.0,32.000000
13,36,52,1630317320.0,32.000000
-16,38,22,1630317320.0,32.000000
-29,42,12,1630317320.0,32.000000
11,38,12,1630317320.0,32.000000
2,47,13,1630317320.0,32.000000
14,45,29,1630317320.0,32.000000
2,41,39,1630317320.0,32.000000
17,42,47,1630317320.0,32.000000
27,49,49,1630317320.0,32.000000
24,49,37,1630317320.0,32.000000
-16,43,14,1630317320.0,32.000000
0,40,26,1630317320.0,32.000000
-9,43,28,1630317320.0,32.000000
1,36,47,1630317320.0,32.000000
-5,35,48,1630317320.0,32.000000
-8,32,51,1630317320.0,32.000000
-10,19,65,1630317320.0,32.000000
-9,18,65,1630317320.0,32.000000
-18,12,65,1630317320.0,32.000000
-14,9,66,1630317320.0,32.000000
-14,8,67,1630317320.0,32.000000
-20,6,69,1630317320.0,32.000000
-20,7,68,1630317320.0,32.000000
-18,8,69,1630317320.0,32.000000
-22,6,70,1630317320.0,32.000000
-21,6,71,1630317320.0,32.000000
-20,7,70,1630317320.0,32.000000
-19,5,71,1630317320.0,32.000000
-20,5,71,1630317320.0,32.000000
-16,5,68,1630317320.0,32.000000
-18,3,65,1630317320.0,32.000000
-24,4,56,1630317320.0,32.000000
-23,3,52,1630317320.0,32.000000
-23,3,52,1630317320.0,32.000000
-22,2,52,1630317320.0,32.000000
-21,2,50,1630317320.0,32.000000
-17,1,52,1630317320.0,32.000000
-18,1,50,1630317320.0,32.000000
-20,3,49,1630317320.0,32.000000
-21,2,55,1630317320.0,32.000000
-20,2,59,1630317320.0,32.000000
-21,3,60,1630317320.0,32.000000
-21,5,65,1630317320.0,32.000000
-21,4,72,1630317320.0,32.000000
-38,2,63,1630317320.0,32.000000
-12,1,63,1630317320.0,32.000000
-12,3,62,1630317320.0,32.000000
-15,2,56,1630317320.0,32.000000
-13,2,63,1630317320.0,32.000000
-30,3,60,1630317320.0,32.000000
-28,2,67,1630317320.0,32.000000
-23,-3,75,1630317320.0,32.000000
-38,-5,79,1630317320.0,32.000000
-38,-2,81,1630317320.0,32.000000
-29,14,81,1630317320.0,32.000000
-25,24,73,1630317320.0,32.000000
-24,30,66,1630317320.0,32.000000
-5,37,54,1630317320.0,32.000000
2,38,40,1630317320.0,32.000000
10,38,33,1630317320.0,32.000000
16,36,24,1630317320.0,32.000000
14,33,22,1630317320.0,32.000000
16,34,24,1630317320.0,32.000000
15,40,23,1630317320.0,32.000000
5,39,21,1630317320.0,32.000000
-3,41,28,1630317320.0,32.000000
-3,39,34,1630317320.0,32.000000
-1,38,34,1630317320.0,32.000000
5,37,36,1630317320.0,32.000000
8,36,40,1630317320.0,32.000000
9,33,47,1630317320.0,32.000000
0,28,54,1630317320.0,32.000000
-4,27,57,1630317320.0,32.000000
-17,23,65,1630317320.0,32.000000
-21,19,70,1630317320.0,32.000000
-23,16,66,1630317320.0,32.000000
-24,15,58,1630317320.0,32.000000
-28,14,57,1630317320.0,32.000000
-33,12,51,1630317320.0,32.000000
-30,8,58,1630317320.0,32.000000
-31,6,61,1630317320.0,32.000000
-27,6,60,1630317320.0,32.000000
-26,5,61,1630317320.0,32.000000
-29,9,62,1630317320.0,32.000000
-27,9,69,1630317320.0,32.000000
-26,9,70,1630317320.0,32.000000
-24,9,60,1630317320.0,32.000000
-25,7,57,1630317320.0,32.000000
-27,3,56,1630317320.0,32.000000
-32,6,56,1630317320.0,32.000000
-28,5,58,1630317320.0,32.000000
-20,-2,60,1630317320.0,32.000000
-24,10,60,1630317320.0,32.000000
-22,6,59,1630317320.0,32.000000
-23,2,57,1630317320.0,32.000000
-23,2,60,1630317320.0,32.000000
-22,2,56,1630317320.0,32.000000
-24,6,59,1630317320.0,32.000000
-23,4,59,1630317320.0,32.000000
-23,3,59,1630317320.0,32.000000
-25,3,58,1630317320.0,32.000000
-24,3,59,1630317320.0,32.000000
-24,3,58,1630317320.0,32.000000
-23,3,58,1630317320.0,32.000000
-25,3,58,1630317320.0,32.000000
-26,2,58,1630317320.0,32.000000
-25,2,58,1630317320.0,32.000000
-25,2,58,1630317320.0,32.000000
-24,2,58,1630317320.0,32.000000
-24,2,59,1630317320.0,32.000000
-24,2,59,1630317320.0,32.000000
-24,3,59,1630317320.0,32.000000
-25,2,58,1630317320.0,32.000000
-25,2,58,1630317320.0,32.000000
-25,2,58,1630317320.0,32.000000
-25,2,59,1630317320.0,32.000000
-24,2,58,1630317320.0,32.000000
-24,2,59,1630317320.0,32.000000
-24,1,58,1630317320.0,32.000000
-24,2,58,1630317320.0,32.000000
-24,2,58,1630317320.0,32.000000
-24,2,58,1630317320.0,32.000000
-22,2,59,1630317320.0,32.000000
-22,2,59,1630317320.0,32.000000
-23,2,59,1630317320.0,32.000000
-25,3,58,1630317320.0,32.000000
-25,3,58,1630317320.0,32.000000
-25,3,58,1630317320.0,32.000000
-26,-8,56,1630317320.0,32.000000
-23,9,60,1630317320.0,32.000000
-23,3,58,1630317320.0,32.000000
-24,6,57,1630317320.0,32.000000
-26,3,57,1630317320.0,32.000000
-25,3,58,1630317320.0,32.000000
-24,3,58,1630317320.0,32.000000
-25,2,58,1630317320.0,32.000000
-24,-2,58,1630317320.0,32.000000
-24,6,57,1630317320.0,32.000000
-26,5,59,1630317320.0,32.000000
-25,4,56,1630317320.0,32.000000
-27,4,58,1630317320.0,32.000000
-25,3,57,1630317320.0,32.000000
-26,4,57,1630317320.0,32.000000
-25,3,57,1630317320.0,32.000000
-25,3,58,1630317320.0,32.000000
-26,3,58,1630317320.0,32.000000
-26,3,57,1630317320.0,32.000000
-27,3,57,1630317320.0,32.000000
-26,3,58,1630317320.0,32.000000
-26,2,58,1630317320.0,32.000000
-26,2,57,1630317320.0,32.000000
-25,3,58,1630317320.0,32.000000
-25,2,58,1630317320.0,32.000000
-29,3,56,1630317320.0,32.000000
-28,2,57,1630317320.0,32.000000
-26,2,57,1630317320.0,32.000000
-28,2,58,1630317320.0,32.000000
-24,-1,58,1630317320.0,32.000000
-24,1,58,1630317320.0,32.000000
-27,2,57,1630317320.0,32.000000
-27,2,58,1630317320.0,32.000000
-21,1,59,1630317320.0,32.000000
-25,1,58,1630317320.0,32.000000
-25,1,59,1630317320.0,32.000000
-26,1,58,1630317320.0,32.000000
-26,2,58,1630317320.0,32.000000
-25,2,58,1630317320.0,32.000000
-25,2,58,1630317320.0,32.000000
-25,2,58,1630317320.0,32.000000
-24,2,59,1630317320.0,32.000000
-24,2,59,1630317320.0,32.000000
-25,2,58,1630317320.0,32.000000
-27,2,57,1630317320.0,32.000000
-27,3,57,1630317320.0,32.000000
-26,3,57,1630317320.0,32.000000
-26,2,58,1630317320.0,32.000000
-26,3,58,1630317320.0,32.000000
-26,2,57,1630317320.0,32.000000
-26,2,58,1630317320.0,32.000000
-25,3,58,1630317320.0,32.000000
-26,3,58,1630317320.0,32.000000
-25,2,58,1630317320.0,32.000000
-26,3,58,1630317320.0,32.000000
-26,3,57,1630317320.0,32.000000
-26,3,58,1630317320.0,32.000000
-26,2,58,1630317320.0,32.000000
-25,3,58,1630317320.0,32.000000
-26,3,57,1630317320.0,32.000000
-27,3,57,1630317320.0,32.000000
-27,3,57,1630317320.0,32.000000
-26,2,58,1630317320.0,32.000000
-26,2,57,1630317320.0,32.000000
-25,3,58,1630317320.0,32.000000
-27,2,57,1630317320.0,32.000000
-29,2,56,1630317320.0,32.000000
-26,2,57,1630317320.0,32.000000
-26,2,58,1630317320.0,32.000000
-27,2,57,1630317320.0,32.000000
-23,2,58,1630317320.0,32.000000
-25,2,57,1630317320.0,32.000000
-26,2,58,1630317320.0,32.000000
-25,2,58,1630317320.0,32.000000
-28,2,57,1630317320.0,32.000000
-28,2,57,1630317320.0,32.000000
-26,2,57,1630317320.0,32.000000
-26,2,57,1630317320.0,32.000000
-26,2,58,1630317320.0,32.000000
-26,3,57,1630317320.0,32.000000
-27,2,57,1630317320.0,32.000000
-27,3,57,1630317320.0,32.000000
-28,3,56,1630317320.0,32.000000
-26,3,58,1630317320.0,32.000000
-26,3,58,1630317320.0,32.000000
-26,3,57,1630317320.0,32.000000
-26,3,58,1630317320.0,32.000000
-26,2,58,1630317320.0,32.000000
-27,3,57,1630317320.0,32.000000
-26,3,57,1630317320.0,32.000000
-27,3,57,1630317320.0,32.000000
-26,3,57,1630317320.0,32.000000
-26,3,58,1630317320.0,32.000000
-27,3,57,1630317320.0,32.000000
-28,3,57,1630317320.0,32.000000
-27,3,57,1630317320.0,32.000000
-26,4,58,1630317320.0,32.000000
-26,4,58,1630317320.0,32.000000
-25,3,58,1630317320.0,32.000000
-25,4,57,1630317320.0,32.000000
-26,3,57,1630317320.0,32.000000
-27,2,57,1630317320.0,32.000000
-27,2,58,1630317320.0,32.000000
-26,2,57,1630317320.0,32.000000
-26,3,58,1630317320.0,32.000000
-26,2,57,1630317320.0,32.000000
-26,2,58,1630317320.0,32.000000
-27,1,57,1630317320.0,32.000000
-27,2,57,1630317320.0,32.000000
-26,3,57,1630317320.0,32.000000
-25,3,58,1630317320.0,32.000000
-25,3,58,1630317320.0,32.000000
-26,2,58,1630317320.0,32.000000
-26,2,57,1630317320.0,32.000000
-27,3,57,1630317320.0,32.000000
-27,3,57,1630317320.0,32.000000
-27,3,57,1630317320.0,32.000000
-27,2,57,1630317320.0,32.000000
-28,6,57,1630317320.0,32.000000
-29,3,56,1630317320.0,32.000000
-29,2,56,1630317320.0,32.000000
-29,3,56,1630317320.0,32.000000
-29,3,56,1630317320.0,32.000000
-28,3,56,1630317320.0,32.000000
-28,3,56,1630317320.0,32.000000
-29,3,56,1630317320.0,32.000000
-29,3,56,1630317320.0,32.000000
-29,3,56,1630317320.0,32.000000
-29,3,56,1630317320.0,32.000000
-30,3,56,1630317320.0,32.000000
-30,3,55,1630317320.0,32.000000
-29,2,56,1630317320.0,32.000000
-29,3,56,1630317320.0,32.000000
-29,3,56,1630317320.0,32.000000
-29,3,56,1630317320.0,32.000000
-30,3,55,1630317320.0,32.000000
-30,3,55,1630317320.0,32.000000
-30,3,55,1630317320.0,32.000000
-30,3,55,1630317320.0,32.000000
-30,3,55,1630317320.0,32.000000
-30,2,56,1630317320.0,32.000000
-31,3,56,1630317320.0,32.000000
-31,3,54,1630317320.0,32.000000
-30,3,55,1630317320.0,32.000000
-31,3,55,1630317320.0,32.000000
-32,3,54,1630317320.0,32.000000
-33,4,54,1630317320.0,32.000000
-33,3,54,1630317320.0,32.000000
-37,3,52,1630317320.0,32.000000
-35,3,52,1630317320.0,32.000000
-35,3,53,1630317320.0,32.000000
-34,3,53,1630317320.0,32.000000
-36,3,51,1630317320.0,32.000000
-38,4,49,1630317320.0,32.000000
-40,4,48,1630317320.0,32.000000
-40,4,48,1630317320.0,32.000000
-41,4,48,1630317320.0,32.000000
-42,4,47,1630317320.0,32.000000
-44,3,45,1630317320.0,32.000000
-45,3,44,1630317320.0,32.000000
-47,3,42,1630317320.0,32.000000
-49,4,41,1630317320.0,32.000000
-48,2,41,1630317320.0,32.000000
-49,3,39,1630317320.0,32.000000
-51,3,38,1630317320.0,32.000000
-51,3,38,1630317320.0,32.000000
-51,3,38,1630317320.0,32.000000
-50,3,39,1630317320.0,32.000000
-49,3,40,1630317320.0,32.000000
-49,3,40,1630317320.0,32.000000
-49,3,40,1630317320.0,32.000000
-49,3,39,1630317320.0,32.000000
-49,3,40,1630317320.0,32.000000
-49,3,39,1630317320.0,32.000000
-49,3,39,1630317320.0,32.000000
-50,3,39,1630317320.0,32.000000
-50,3,39,1630317320.0,32.000000
-49,3,39,1630317320.0,32.000000
-49,3,39,1630317320.0,32.000000
-49,3,39,1630317320.0,32.000000
-50,3,39,1630317320.0,32.000000
-49,3,39,1630317320.0,32.000000
-48,3,39,1630317320.0,32.000000
-48,3,40,1630317320.0,32.000000
-48,4,40,1630317320.0,32.000000
-52,4,38,1630317320.0,32.000000
-51,2,39,1630317320.0,32.000000
-49,2,39,1630317320.0,32.000000
-50,3,38,1630317320.0,32.000000
-48,0,41,1630317320.0,32.000000
-47,1,43,1630317320.0,32.000000
-46,-2,43,1630317320.0,32.000000
-48,-2,42,1630317320.0,32.000000
-47,0,42,1630317320.0,32.000000
-47,0,42,1630317320.0,32.000000
-47,0,42,1630317320.0,32.000000
-48,0,41,1630317320.0,32.000000
-48,1,41,1630317320.0,32.000000
-48,1,41,1630317320.0,32.000000
-50,1,40,1630317320.0,32.000000
-50,1,39,1630317320.0,32.000000
-48,2,41,1630317320.0,32.000000
-49,3,40,1630317320.0,32.000000
-56,2,35,1630317320.0,32.000000
-56,-6,58,1630317320.0,32.000000
-67,-10,55,1630317320.0,32.000000
-62,9,120,1630317320.0,32.000000
-63,9,97,1630317320.0,32.000000
-58,24,83,1630317320.0,32.000000
-29,28,42,1630317320.0,32.000000
21,29,17,1630317320.0,32.000000
48,35,9,1630317320.0,32.000000
46,39,8,1630317320.0,32.000000
52,31,14,1630317320.0,32.000000
-3,25,-9,1630317320.0,32.000000
-21,26,-25,1630317320.0,32.000000
-18,25,-18,1630317320.0,32.000000
43,35,3,1630317320.0,32.000000
63,37,3,1630317320.0,32.000000
77,33,18,1630317320.0,32.000000
14,35,3,1630317320.0,32.000000
1,37,-4,1630317320.0,32.000000
1,28,6,1630317320.0,32.000000
15,29,55,1630317320.0,32.000000
16,37,65,1630317320.0,32.000000
14,38,71,1630317320.0,32.000000
12,32,78,1630317320.0,32.000000
-2,23,70,1630317320.0,32.000000
-26,13,74,1630317320.0,32.000000
-25,8,80,1630317320.0,32.000000
-24,7,68,1630317320.0,32.000000
-31,4,66,1630317320.0,32.000000
-29,3,69,1630317320.0,32.000000
-26,4,63,1630317320.0,32.000000
-31,3,59,1630317320.0,32.000000
-24,2,58,1630317320.0,32.000000
-20,3,54,1630317320.0,32.000000
-25,4,53,1630317320.0,32.000000
-21,2,54,1630317320.0,32.000000
-20,1,54,1630317320.0,32.000000
-50,-22,77,1630317320.0,32.000000
-25,3,62,1630317320.0,32.000000
-29,1,56,1630317320.0,32.000000
-27,2,57,1630317320.0,32.000000
-28,-1,57,1630317320.0,32.000000
-28,0,58,1630317320.0,32.000000
-28,1,57,1630317320.0,32.000000
-27,1,58,1630317320.0,32.000000
-26,1,58,1630317320.0,32.000000
-26,2,58,1630317320.0,32.000000
-25,2,58,1630317320.0,32.000000
-24,3,58,1630317320.0,32.000000
-25,1,58,1630317320.0,32.000000
-25,1,58,1630317320.0,32.000000
-28,1,57,1630317320.0,32.000000
-28,2,56,1630317320.0,32.000000
-26,1,57,1630317320.0,32.000000
-27,0,56,1630317320.0,32.000000
-28,1,57,1630317320.0,32.000000
-28,1,57,1630317320.0,32.000000
-26,1,57,1630317320.0,32.000000
-26,1,57,1630317320.0,32.000000
-28,1,57,1630317320.0,32.000000
-28,1,57,1630317320.0,32.000000
-26,1,57,1630317320.0,32.000000
-26,1,57,1630317320.0,32.000000
-26,1,57,1630317320.0,32.000000
-27,1,57,1630317320.0,32.000000
-27,1,58,1630317320.0,32.000000
-26,1,57,1630317320.0,32.000000
-26,1,57,1630317320.0,32.000000
-27,1,57,1630317320.0,32.000000
-27,1,57,1630317320.0,32.000000
-27,2,57,1630317320.0,32.000000
-26,2,58,1630317320.0,32.000000
-25,2,58,1630317320.0,32.000000
-26,2,58,1630317320.0,32.000000
-26,2,58,1630317320.0,32.000000
-26,2,57,1630317320.0,32.000000
-27,2,57,1630317320.0,32.000000
-26,2,58,1630317320.0,32.000000
-25,2,58,1630317320.0,32.000000
-26,2,58,1630317320.0,32.000000
-26,2,58,1630317320.0,32.000000
-26,2,57,1630317320.0,32.000000
-26,2,58,1630317320.0,32.000000
-26,2,58,1630317320.0,32.000000
-25,2,58,1630317320.0,32.000000
-25,2,58,1630317320.0,32.000000
-25,2,58,1630317320.0,32.000000
-26,2,58,1630317320.0,32.000000
-26,2,58,1630317320.0,32.000000
-26,2,58,1630317320.0,32.000000
-26,2,58,1630317320.0,32.000000
-25,2,58,1630317320.0,32.000000
-25,2,58,1630317320.0,32.000000
-26,2,58,1630317320.0,32.000000
-26,2,58,1630317320.0,32.000000
-26,2,58,1630317320.0,32.000000
-26,2,58,1630317320.0,32.000000
-26,2,58,1630317320.0,32.000000
-25,2,58,1630317320.0,32.000000
-26,2,58,1630317320.0,32.000000
-26,2,58,1630317320.0,32.000000
-26,2,58,1630317320.0,32.000000
-26,3,58,1630317320.0,32.000000
-26,2,58,1630317320.0,32.000000
-26,3,58,1630317320.0,32.000000
-26,2,58,1630317320.0,32.000000
-25,2,58,1630317320.0,32.000000
-25,2,58,1630317320.0,32.000000
-25,2,58,1630317320.0,32.000000
-25,2,58,1630317320.0,32.000000
-26,3,58,1630317320.0,32.000000
-25,2,58,1630317320.0,32.000000
-25,3,58,1630317320.0,32.000000
-30,6,58,1630317320.0,32.000000
-26,4,57,1630317320.0,32.000000
-25,3,58,1630317320.0,32.000000
-25,3,58,1630317320.0,32.000000
-24,2,58,1630317320.0,32.000000
-25,2,58,1630317320.0,32.000000
-26,3,58,1630317320.0,32.000000
-26,3,57,1630317320.0,32.000000
-26,2,58,1630317320.0,32.000000
-26,3,58,1630317320.0,32.000000
-25,2,58,1630317320.0,32.000000
-26,2,58,1630317320.0,32.000000
-26,2,57,1630317320.0,32.000000
-26,2,58,1630317320.0,32.000000
-26,2,58,1630317320.0,32.000000
-26,2,58,1630317320.0,32.000000
-26,3,58,1630317320.0,32.000000
-26,2,58,1630317320.0,32.000000
-26,2,57,1630317320.0,32.000000
-26,2,57,1630317320.0,32.000000
-26,2,58,1630317320.0,32.000000
-26,2,57,1630317320.0,32.000000
-26,2,58,1630317320.0,32.000000
-25,2,58,1630317320.0,32.000000
-26,2,58,1630317320.0,32.000000
-26,3,58,1630317320.0,32.000000
-28,3,57,1630317320.0,32.000000
-27,2,57,1630317320.0,32.000000
-26,2,58,1630317320.0,32.000000
-25,2,58,1630317320.0,32.000000
-26,2,58,1630317320.0,32.000000
-26,2,58,1630317320.0,32.000000
-26,3,57,1630317320.0,32.000000
-26,3,58,1630317320.0,32.000000
-26,3,57,1630317320.0,32.000000
-26,3,58,1630317320.0,32.000000
-26,3,58,1630317320.0,32.000000
-26,2,58,1630317320.0,32.000000
-26,2,57,1630317320.0,32.000000
-26,2,58,1630317320.0,32.000000
-26,3,58,1630317320.0,32.000000
-26,2,58,1630317320.0,32.000000
-26,2,58,1630317320.0,32.000000
-26,2,58,1630317320.0,32.000000
-26,3,58,1630317320.0,32.000000
-26,3,58,1630317320.0,32.000000
-26,2,58,1630317320.0,32.000000
-26,2,58,1630317320.0,32.000000
-26,2,58,1630317320.0,32.000000
-26,2,57,1630317320.0,32.000000
-26,2,57,1630317320.0,32.000000
-26,2,58,1630317320.0,32.000000
-26,3,58,1630317320.0,32.000000
-26,2,58,1630317320.0,32.000000
-26,2,58,1630317320.0,32.000000
-26,2,58,1630317320.0,32.000000
-26,2,58,1630317320.0,32.000000
-26,2,57,1630317320.0,32.000000
-26,2,58,1630317320.0,32.000000
-26,2,58,1630317320.0,32.000000
-26,2,58,1630317320.0,32.000000
-26,2,57,1630317320.0,32.000000
-26,2,58,1630317320.0,32.000000
-26,2,58,1630317320.0,32.000000
-26,2,57,1630317320.0,32.000000
-26,2,57,1630317320.0,32.000000
-26,2,57,1630317320.0,32.000000
-26,2,57,1630317320.0,32.000000
-27,2,57,1630317320.0,32.000000
-26,2,57,1630317320.0,32.000000
-28,2,57,1630317320.0,32.000000
-26,2,58,1630317320.0,32.000000
-26,2,58,1630317320.0,32.000000
-25,2,58,1630317320.0,32.000000
-26,2,58,1630317320.0,32.000000
-26,2,57,1630317320.0,32.000000
-26,2,57,1630317320.0,32.000000
-26,2,58,1630317320.0,32.000000
-26,2,57,1630317320.0,32.000000
-26,2,58,1630317320.0,32.000000
-26,2,57,1630317320.0,32.000000
-26,2,58,1630317320.0,32.000000
-27,2,57,1630317320.0,32.000000
-26,2,57,1630317320.0,32.000000
-26,2,58,1630317320.0,32.000000
-26,2,58,1630317320.0,32.000000
-26,2,57,1630317320.0,32.000000
-26,2,58,1630317320.0,32.000000
-26,2,57,1630317320.0,32.000000
-26,2,58,1630317320.0,32.000000
-26,2,57,1630317320.0,32.000000
-26,2,57,1630317320.0,32.000000
-26,2,57,1630317320.0,32.000000
-26,2,57,1630317320.0,32.000000
-26,2,57,1630317320.0,32.000000
-26,2,57,1630317320.0,32.000000
-26,2,58,1630317320.0,32.000000
-26,2,57,1630317320.0,32.000000
-26,2,58,1630317320.0,32.000000
-26,2,58,1630317320.0,32.000000
-26,2,57,1630317320.0,32.000000
-26,2,58,1630317320.0,32.000000
-26,2,57,1630317320.0,32.000000
-26,2,58,1630317320.0,32.000000
-26,2,58,1630317320.0,32.000000
-26,2,58,1630317320.0,32.000000
-26,2,57,1630317320.0,32.000000
-26,2,57,1630317320.0,32.000000
-26,2,58,1630317320.0,32.000000
-26,2,58,1630317320.0,32.000000
-26,2,58,1630317320.0,32.000000
-26,2,58,1630317320.0,32.000000
-26,2,58,1630317320.0,32.000000
-26,2,57,1630317320.0,32.000000
-26,2,57,1630317320.0,32.000000
-26,2,58,1630317320.0,32.000000
-26,2,57,1630317320.0,32.000000
-26,2,57,1630317320.0,32.000000
-26,2,57,1630317320.0,32.000000
-26,2,57,1630317320.0,32.000000
-26,2,58,1630317320.0,32.000000
-26,2,57,1630317320.0,32.000000
-26,2,58,1630317320.0,32.000000
-26,2,58,1630317320.0,32.000000
-26,2,57,1630317320.0,32.000000
-26,2,57,1630317320.0,32.000000
-26,2,57,1630317320.0,32.000000
-26,2,58,1630317320.0,32.000000
-26,2,58,1630317320.0,32.000000
-26,2,58,1630317320.0,32.000000
-26,2,58,1630317320.0,32.000000
-26,2,57,1630317320.0,32.000000
-26,2,58,1630317320.0,32.000000
-26,2,58,1630317320.0,32.000000
-26,2,58,1630317320.0,32.000000
-26,2,58,1630317320.0,32.000000
-26,2,58,1630317320.0,32.000000
-26,2,58,1630317320.0,32.000000
-26,2,58,1630317320.0,32.000000
-26,2,58,1630317320.0,32.000000
-26,2,57,1630317320.0,32.000000
-26,2,58,1630317320.0,32.000000
-26,2,57,1630317320.0,32.000000
-26,2,58,1630317320.0,32.000000
-26,2,57,1630317320.0,32.000000
-26,2,58,1630317320.0,32.000000
-26,2,57,1630317320.0,32.000000
-26,2,58,1630317320.0,32.000000
-26,2,58,1630317320.0,32.000000
-26,2,58,1630317320.0,32.000000
-26,2,58,1630317320.0,32.000000
-26,2,57,1630317320.0,32.000000
-26,2,58,1630317320.0,32.000000
-26,2,58,1630317320.0,32.000000
-26,2,58,1630317320.0,32.000000
-26,2,57,1630317320.0,32.000000
-26,2,58,1630317320.0,32.000000
-26,2,58,1630317320.0,32.000000
-26,2,58,1630317320.0,32.000000
-26,2,57,1630317320.0,32.000000
-26,2,57,1630317320.0,32.000000
-26,2,58,1630317320.0,32.000000
-26,2,58,1630317320.0,32.000000
-26,2,58,1630317320.0,32.000000
-26,2,58,1630317320.0,32.000000
-26,2,58,1630317320.0,32.000000
-26,2,58,1630317320.0,32.000000
-26,2,58,1630317320.0,32.000000
-26,2,58,1630317320.0,32.000000
-26,2,58,1630317320.0,32.000000
-26,2,58,1630317320.0,32.000000
-26,2,58,1630317320.0,32.000000
-26,2,57,1630317320.0,32.000000
-26,2,57,1630317320.0,32.000000
-26,2,58,1630317320.0,32.000000
-26,2,57,1630317320.0,32.000000
-26,2,58,1630317320.0,32.000000
-26,2,57,1630317320.0,32.000000
-26,2,57,1630317320.0,32.000000
-26,2,58,1630317320.0,32.000000
-26,3,57,1630317320.0,32.000000
-26,2,58,1630317320.0,32.000000
-26,2,57,1630317320.0,32.000000
-26,2,58,1630317320.0,32.000000
-26,2,58,1630317320.0,32.000000
-26,2,58,1630317320.0,32.000000
-26,2,57,1630317320.0,32.000000
-26,2,58,1630317320.0,32.000000
-26,2,58,1630317320.0,32.000000
-26,2,57,1630317320.0,32.000000
-26,2,58,1630317320.0,32.000000
-26,2,58,1630317320.0,32.000000
-26,2,58,1630317320.0,32.000000
-26,2,58,1630317320.0,32.000000
-26,2,58,1630317320.0,32.000000
-26,2,57,1630317320.0,32.000000
-26,2,58,1630317320.0,32.000000
-26,2,58,1630317320.0,32.000000
-26,2,58,1630317320.0,32.000000
-26,2,58,1630317320.0,32.000000
-26,2,58,1630317320.0,32.000000
-26,2,58,1630317320.0,32.000000
-26,2,58,1630317320.0,32.000000
-26,2,58,1630317320.0,32.000000
-26,2,57,1630317320.0,32.000000
-26,2,57,1630317320.0,32.000000
-26,2,57,1630317320.0,32.000000
-26,2,58,1630317320.0,32.000000
-26,2,57,1630317320.0,32.000000
-26,2,58,1630317320.0,32.000000
-25,2,58,1630317320.0,32.000000
-26,2,58,1630317320.0,32.000000
-26,2,58,1630317320.0,32.000000
-26,2,57,1630317320.0,32.000000
-26,2,58,1630317320.0,32.000000
-26,2,57,1630317320.0,32.000000
-26,2,58,1630317320.0,32.000000
-26,2,58,1630317320.0,32.000000
-26,2,58,1630317320.0,32.000000
-26,2,57,1630317320.0,32.000000
-26,2,57,1630317320.0,32.000000
-26,2,58,1630317320.0,32.000000
-26,2,58,1630317320.0,32.000000
-26,2,58,1630317320.0,32.000000
-26,2,58,1630317320.0,32.000000
-26,2,58,1630317320.0,32.000000
-26,2,57,1630317320.0,32.000000
-26,2,58,1630317320.0,32.000000
-26,2,58,1630317320.0,32.000000
-26,2,58,1630317320.0,32.000000
-26,2,57,1630317320.0,32.000000
-26,2,57,1630317320.0,32.000000
-26,2,57,1630317320.0,32.000000
-26,2,57,1630317320.0,32.000000
-26,2,58,1630317320.0,32.000000
-26,2,58,1630317320.0,32.000000
-26,2,58,1630317320.0,32.000000
-26,2,58,1630317320.0,32.000000
-26,2,58,1630317320.0,32.000000
-26,2,57,1630317320.0,32.000000
-26,2,58,1630317320.0,32.000000
-26,2,57,1630317320.0,32.000000
-26,2,58,1630317320.0,32.000000
-26,2,58,1630317320.0,32.000000
-26,2,58,1630317320.0,32.000000
-26,2,57,1630317320.0,32.000000
-26,2,57,1630317320.0,32.000000
-26,2,58,1630317320.0,32.000000
-26,2,58,1630317320.0,32.000000
-26,2,58,1630317320.0,32.000000
-26,2,58,1630317320.0,32.000000
-26,2,58,1630317320.0,32.000000
-26,2,58,1630317320.0,32.000000
-26,2,58,1630317320.0,32.000000
-26,2,58,1630317320.0,32.000000
-26,2,58,1630317320.0,32.000000
-26,2,57,1630317320.0,32.000000
-26,2,58,1630317320.0,32.000000
-26,2,58,1630317320.0,32.000000
-26,2,57,1630317320.0,32.000000
-26,2,57,1630317320.0,32.000000
-26,2,58,1630317320.0,32.000000
-26,2,58,1630317320.0,32.000000
-26,2,57,1630317320.0,32.000000
-26,2,58,1630317320.0,32.000000
-26,3,57,1630317320.0,32.000000
-26,2,58,1630317320.0,32.000000
-26,2,58,1630317320.0,32.000000
-26,2,58,1630317320.0,32.000000
-26,2,58,1630317320.0,32.000000
-26,2,57,1630317320.0,32.000000
-26,2,58,1630317320.0,32.000000
-26,2,58,1630317320.0,32.000000
-26,2,57,1630317320.0,32.000000
-26,2,58,1630317320.0,32.000000
-26,2,58,1630317320.0,32.000000
-26,2,58,1630317320.0,32.000000
-26,2,57,1630317320.0,32.000000
-26,2,57,1630317320.0,32.000000
-26,2,58,1630317320.0,32.000000
-26,2,58,1630317320.0,32.000000
-26,2,57,1630317320.0,32.000000
-26,2,57,1630317320.0,32.000000
-26,2,58,1630317320.0,32.000000
-26,2,57,1630317320.0,32.000000
-26,2,57,1630317320.0,32.000000
-26,2,57,1630317320.0,32.000000
-26,2,57,1630317320.0,32.000000
-26,2,57,1630317320.0,32.000000
-27,2,57,1630317320.0,32.000000
-26,2,57,1630317320.0,32.000000
-26,2,57,1630317320.0,32.000000
-27,1,57,1630317320.0,32.000000
-26,1,58,1630317320.0,32.000000
-26,2,57,1630317320.0,32.000000
-28,2,57,1630317320.0,32.000000
-27,2,57,1630317320.0,32.000000
-26,2,58,1630317320.0,32.000000
-26,2,57,1630317320.0,32.000000
-26,2,57,1630317320.0,32.000000
-26,2,58,1630317320.0,32.000000
-25,2,58,1630317320.0,32.000000
-25,2,58,1630317320.0,32.000000
-26,2,57,1630317320.0,32.000000
-26,2,58,1630317320.0,32.000000
-26,2,57,1630317320.0,32.000000
-25,2,58,1630317320.0,32.000000
-26,2,58,1630317320.0,32.000000
-26,2,57,1630317320.0,32.000000
-26,2,58,1630317320.0,32.000000
-26,2,58,1630317320.0,32.000000
-26,1,56,1630317320.0,32.000000
-26,1,58,1630317320.0,32.000000
-25,2,56,1630317320.0,32.000000
-26,1,58,1630317320.0,32.000000
-26,1,58,1630317320.0,32.000000
-26,2,58,1630317320.0,32.000000
-25,1,58,1630317320.0,32.000000
-25,1,58,1630317320.0,32.000000
-25,2,58,1630317320.0,32.000000
-26,1,58,1630317320.0,32.000000
-25,2,58,1630317320.0,32.000000
-25,2,58,1630317320.0,32.000000
-25,1,58,1630317320.0,32.000000
-25,1,58,1630317320.0,32.000000
-25,2,58,1630317320.0,32.000000
-26,1,58,1630317320.0,32.000000
-26,2,58,1630317320.0,32.000000
-25,2,58,1630317320.0,32.000000
-25,1,58,1630317320.0,32.000000
-26,2,58,1630317320.0,32.000000
-26,2,58,1630317320.0,32.000000
-25,2,58,1630317320.0,32.000000
-25,2,58,1630317320.0,32.000000
-26,2,58,1630317320.0,32.000000
-26,2,58,1630317320.0,32.000000
-26,2,58,1630317320.0,32.000000
-26,2,58,1630317320.0,32.000000
-26,2,58,1630317320.0,32.000000
-26,1,57,1630317320.0,32.000000
-26,2,58,1630317320.0,32.000000
-25,2,58,1630317320.0,32.000000
-26,2,57,1630317320.0,32.000000
-26,2,58,1630317320.0,32.000000
-25,2,58,1630317320.0,32.000000
-26,1,58,1630317320.0,32.000000
-26,1,58,1630317320.0,32.000000
-25,1,58,1630317320.0,32.000000
-25,2,58,1630317320.0,32.000000
-25,1,58,1630317320.0,32.000000
-26,2,58,1630317320.0,32.000000
-25,2,58,1630317320.0,32.000000
-25,2,58,1630317320.0,32.000000
-25,2,58,1630317320.0,32.000000
-26,2,58,1630317320.0,32.000000
-25,2,58,1630317320.0,32.000000
-25,2,58,1630317320.0,32.000000
-25,1,58,1630317320.0,32.000000
-26,2,58,1630317320.0,32.000000
-26,2,58,1630317320.0,32.000000
-25,2,58,1630317320.0,32.000000
-27,2,57,1630317320.0,32.000000
-26,2,58,1630317320.0,32.000000
-26,1,58,1630317320.0,32.000000
-26,2,58,1630317320.0,32.000000
-26,2,58,1630317320.0,32.000000
-26,2,58,1630317320.0,32.000000
-26,2,57,1630317320.0,32.000000
-26,2,57,1630317320.0,32.000000
-26,2,58,1630317320.0,32.000000
-26,2,58,1630317320.0,32.000000
-25,2,58,1630317320.0,32.000000
-26,2,57,1630317320.0,32.000000
-27,2,57,1630317320.0,32.000000
-27,2,57,1630317320.0,32.000000
-27,2,57,1630317320.0,32.000000
-27,2,57,1630317320.0,32.000000
-27,2,57,1630317320.0,32.000000
-26,1,57,1630317320.0,32.000000
-27,2,57,1630317320.0,32.000000
-26,2,58,1630317320.0,32.000000
-25,2,58,1630317320.0,32.000000
-25,2,58,1630317320.0,32.000000
-25,2,57,1630317320.0,32.000000
-26,2,58,1630317320.0,32.000000
-27,2,57,1630317320.0,32.000000
-26,2,58,1630317320.0,32.000000
-26,2,57,1630317320.0,32.000000
-26,2,57,1630317320.0,32.000000
-26,2,58,1630317320.0,32.000000
-26,2,58,1630317320.0,32.000000
-26,2,58,1630317320.0,32.000000
-26,2,58,1630317320.0,32.000000
-26,2,57,1630317320.0,32.000000
-27,2,57,1630317320.0,32.000000
-27,2,57,1630317320.0,32.000000
-26,2,57,1630317320.0,32.000000
-26,2,57,1630317320.0,32.000000
-26,2,57,1630317320.0,32.000000
-27,2,57,1630317320.0,32.000000
-27,3,57,1630317320.0,32.000000
-27,2,58,1630317320.0,32.000000
-26,2,57,1630317320.0,32.000000
-27,2,57,1630317320.0,32.000000
-27,2,57,1630317320.0,32.000000
-27,2,57,1630317320.0,32.000000
-27,2,57,1630317320.0,32.000000
-26,2,57,1630317320.0,32.000000
-26,2,57,1630317320.0,32.000000
-27,2,57,1630317320.0,32.000000
-27,2,58,1630317320.0,32.000000
-27,2,57,1630317320.0,32.000000
-27,2,57,1630317320.0,32.000000
-26,2,57,1630317320.0,32.000000
-27,2,57,1630317320.0,32.000000
-27,2,57,1630317320.0,32.000000
-26,2,57,1630317320.0,32.000000
-26,2,58,1630317320.0,32.000000
-26,2,57,1630317320.0,32.000000
-26,2,57,1630317320.0,32.000000
-27,2,57,1630317320.0,32.000000
-26,2,58,1630317320.0,32.000000
-27,2,57,1630317320.0,32.000000
-27,2,57,1630317320.0,32.000000
-26,2,57,1630317320.0,32.000000
-26,2,57,1630317320.0,32.000000
-27,2,57,1630317320.0,32.000000
-27,2,57,1630317320.0,32.000000
-26,2,57,1630317320.0,32.000000
-26,2,57,1630317320.0,32.000000
-26,2,57,1630317320.0,32.000000
-27,2,57,1630317320.0,32.000000
-26,2,57,1630317320.0,32.000000
-26,2,57,1630317320.0,32.000000
-26,2,57,1630317320.0,32.000000
-27,2,57,1630317320.0,32.000000
-26,2,58,1630317320.0,32.000000
-26,2,58,1630317320.0,32.000000
-26,2,58,1630317320.0,32.000000
-27,2,57,1630317320.0,32.000000
-26,2,57,1630317320.0,32.000000
-27,2,57,1630317320.0,32.000000
-27,2,57,1630317320.0,32.000000
-27,2,57,1630317320.0,32.000000
-27,2,57,1630317320.0,32.000000
-27,2,57,1630317320.0,32.000000
-27,2,57,1630317320.0,32.000000
-27,2,57,1630317320.0,32.000000
-27,2,57,1630317320.0,32.000000
-27,2,57,1630317320.0,32.000000
-27,2,57,1630317320.0,32.000000
-26,2,57,1630317320.0,32.000000
-26,2,57,1630317320.0,32.000000
-27,2,57,1630317320.0,32.000000
-27,2,57,1630317320.0,32.000000
-27,2,57,1630317320.0,32.000000
-27,2,57,1630317320.0,32.000000
-27,2,57,1630317320.0,32.000000
-27,2,57,1630317320.0,32.000000
-27,2,57,1630317320.0,32.000000
-27,2,57,1630317320.0,32.000000
-30,2,57,1630317320.0,32.000000
-29,3,57,1630317320.0,32.000000
-25,2,61,1630317320.0,32.000000
-15,3,74,1630317320.0,32.000000
7,-6,78,1630317320.0,32.000000
-98,0,28,1630317320.0,32.000000
-70,13,33,1630317320.0,32.000000
-30,-2,42,1630317320.0,32.000000
-47,6,31,1630317320.0,32.000000
-41,6,31,1630317320.0,32.000000
-38,7,36,1630317320.0,32.000000
-42,5,37,1630317320.0,32.000000
-46,3,39,1630317320.0,32.000000
-43,2,48,1630317320.0,32.000000
-41,3,51,1630317320.0,32.000000
-41,6,47,1630317320.0,32.000000
-34,6,50,1630317320.0,32.000000
-35,5,49,1630317320.0,32.000000
-42,5,45,1630317320.0,32.000000
-52,-7,58,1630317320.0,32.000000
-32,5,57,1630317320.0,32.000000
-33,1,52,1630317320.0,32.000000
-36,1,48,1630317320.0,32.000000
-36,1,49,1630317320.0,32.000000
-36,2,54,1630317320.0,32.000000
-35,2,54,1630317320.0,32.000000
-31,2,55,1630317320.0,32.000000
-29,2,56,1630317320.0,32.000000
-20,1,62,1630317320.0,32.000000
-22,2,59,1630317320.0,32.000000
-22,2,59,1630317320.0,32.000000
-25,2,58,1630317320.0,32.000000
-26,3,58,1630317320.0,32.000000
-27,3,57,1630317320.0,32.000000
-26,3,58,1630317320.0,32.000000
-25,2,58,1630317320.0,32.000000
-26,2,58,1630317320.0,32.000000
-25,2,58,1630317320.0,32.000000
-25,2,58,1630317320.0,32.000000
-25,2,58,1630317320.0,32.000000
-25,2,58,1630317320.0,32.000000
-26,3,58,1630317320.0,32.000000
-26,2,58,1630317320.0,32.000000
-25,2,58,1630317320.0,32.000000
-25,2,58,1630317320.0,32.000000
-25,2,58,1630317320.0,32.000000
-25,2,58,1630317320.0,32.000000
-26,2,57,1630317320.0,32.000000
-26,2,57,1630317320.0,32.000000
-25,2,58,1630317320.0,32.000000
-25,2,58,1630317320.0,32.000000
-25,2,58,1630317320.0,32.000000
-26,1,58,1630317320.0,32.000000
-26,1,58,1630317320.0,32.000000
-26,1,57,1630317320.0,32.000000
-26,1,58,1630317320.0,32.000000
-25,1,58,1630317320.0,32.000000
-26,1,57,1630317320.0,32.000000
-27,1,57,1630317320.0,32.000000
-26,1,58,1630317320.0,32.000000
-26,1,58,1630317320.0,32.000000
-26,1,57,1630317320.0,32.000000
-26,1,58,1630317320.0,32.000000
-26,1,58,1630317320.0,32.000000
-26,1,58,1630317320.0,32.000000
-26,1,58,1630317320.0,32.000000
-26,1,58,1630317320.0,32.000000
-26,1,57,1630317320.0,32.000000
-27,1,58,1630317320.0,32.000000
-27,1,57,1630317320.0,32.000000
-27,1,58,1630317320.0,32.000000
