ACC_X,ACC_Y,ACC_Z,start_time_unix,sampling_rate
-42,-2,49,1629130737.0,32.000000
-42,-2,49,1629130737.0,32.000000
-42,-2,49,1629130737.0,32.000000
-41,-2,49,1629130737.0,32.000000
-42,-2,49,1629130737.0,32.000000
-42,-2,49,1629130737.0,32.000000
-42,-2,49,1629130737.0,32.000000
-42,-2,48,1629130737.0,32.000000
-42,-2,48,1629130737.0,32.000000
-41,-2,49,1629130737.0,32.000000
-42,-2,49,1629130737.0,32.000000
-42,-2,48,1629130737.0,32.000000
-41,-2,49,1629130737.0,32.000000
-42,-2,48,1629130737.0,32.000000
-42,-2,48,1629130737.0,32.000000
-41,-2,49,1629130737.0,32.000000
-42,-2,49,1629130737.0,32.000000
-42,-2,49,1629130737.0,32.000000
-42,-2,49,1629130737.0,32.000000
-42,-2,49,1629130737.0,32.000000
-42,-2,48,1629130737.0,32.000000
-42,-2,48,1629130737.0,32.000000
-42,-2,49,1629130737.0,32.000000
-42,-2,48,1629130737.0,32.000000
-42,-2,49,1629130737.0,32.000000
-42,-2,49,1629130737.0,32.000000
-42,-2,48,1629130737.0,32.000000
-41,-2,49,1629130737.0,32.000000
-42,-2,49,1629130737.0,32.000000
-42,-2,48,1629130737.0,32.000000
-42,-2,48,1629130737.0,32.000000
-42,-2,48,1629130737.0,32.000000
-42,-2,48,1629130737.0,32.000000
-42,-2,49,1629130737.0,32.000000
-42,-2,49,1629130737.0,32.000000
-42,-2,49,1629130737.0,32.000000
-42,-2,48,1629130737.0,32.000000
-42,-2,49,1629130737.0,32.000000
-42,-2,48,1629130737.0,32.000000
-42,-2,48,1629130737.0,32.000000
-42,-2,48,1629130737.0,32.000000
-42,-2,48,1629130737.0,32.000000
-42,-2,49,1629130737.0,32.000000
-42,-2,48,1629130737.0,32.000000
-42,-2,48,1629130737.0,32.000000
-42,-2,48,1629130737.0,32.000000
-42,-2,48,1629130737.0,32.000000
-42,-2,49,1629130737.0,32.000000
-42,-2,48,1629130737.0,32.000000
-42,-2,48,1629130737.0,32.000000
-42,-2,49,1629130737.0,32.000000
-42,-2,48,1629130737.0,32.000000
-42,-2,48,1629130737.0,32.000000
-41,-2,48,1629130737.0,32.000000
-42,-2,48,1629130737.0,32.000000
-42,-2,48,1629130737.0,32.000000
-42,-2,48,1629130737.0,32.000000
-42,-2,48,1629130737.0,32.000000
-42,-2,48,1629130737.0,32.000000
-42,-2,48,1629130737.0,32.000000
-42,-2,48,1629130737.0,32.000000
-42,-2,48,1629130737.0,32.000000
-42,-2,49,1629130737.0,32.000000
-42,-2,48,1629130737.0,32.000000
-42,-2,48,1629130737.0,32.000000
-42,-2,48,1629130737.0,32.000000
-42,-2,48,1629130737.0,32.000000
-42,-2,49,1629130737.0,32.000000
-42,-2,48,1629130737.0,32.000000
-42,-2,48,1629130737.0,32.000000
-42,-2,48,1629130737.0,32.000000
-42,-2,49,1629130737.0,32.000000
-42,-2,48,1629130737.0,32.000000
-42,-2,48,1629130737.0,32.000000
-42,-2,48,1629130737.0,32.000000
-42,-2,48,1629130737.0,32.000000
-42,-2,48,1629130737.0,32.000000
-42,-2,48,1629130737.0,32.000000
-42,-2,48,1629130737.0,32.000000
-42,-2,48,1629130737.0,32.000000
-42,-2,48,1629130737.0,32.000000
-42,-2,48,1629130737.0,32.000000
-42,-2,48,1629130737.0,32.000000
-42,-2,48,1629130737.0,32.000000
-42,-2,48,1629130737.0,32.000000
-42,-2,48,1629130737.0,32.000000
-42,-2,48,1629130737.0,32.000000
-42,-2,48,1629130737.0,32.000000
-42,-2,48,1629130737.0,32.000000
-42,-2,48,1629130737.0,32.000000
-42,-2,48,1629130737.0,32.000000
-42,-2,48,1629130737.0,32.000000
-42,-2,48,1629130737.0,32.000000
-42,-2,48,1629130737.0,32.000000
-42,-2,48,1629130737.0,32.000000
-42,-2,48,1629130737.0,32.000000
-42,-2,48,1629130737.0,32.000000
-42,-2,48,1629130737.0,32.000000
-42,-2,48,1629130737.0,32.000000
-42,-2,48,1629130737.0,32.000000
-42,-2,48,1629130737.0,32.000000
-42,-2,48,1629130737.0,32.000000
-42,-2,48,1629130737.0,32.000000
-42,-2,48,1629130737.0,32.000000
-42,-2,48,1629130737.0,32.000000
-42,-2,49,1629130737.0,32.000000
-42,-2,49,1629130737.0,32.000000
-42,-2,48,1629130737.0,32.000000
-42,-2,48,1629130737.0,32.000000
-42,-2,48,1629130737.0,32.000000
-42,-2,48,1629130737.0,32.000000
-42,-2,49,1629130737.0,32.000000
-42,-2,48,1629130737.0,32.000000
-42,-2,48,1629130737.0,32.000000
-42,-2,48,1629130737.0,32.000000
-42,-2,48,1629130737.0,32.000000
-42,-2,49,1629130737.0,32.000000
-42,-2,48,1629130737.0,32.000000
-42,-2,48,1629130737.0,32.000000
-42,-2,48,1629130737.0,32.000000
-42,-2,49,1629130737.0,32.000000
-42,-2,49,1629130737.0,32.000000
-44,-2,47,1629130737.0,32.000000
-44,-2,47,1629130737.0,32.000000
-42,-2,48,1629130737.0,32.000000
-42,-2,48,1629130737.0,32.000000
-43,-2,47,1629130737.0,32.000000
-44,-2,47,1629130737.0,32.000000
-43,-2,48,1629130737.0,32.000000
-42,-1,48,1629130737.0,32.000000
-45,-2,45,1629130737.0,32.000000
-47,-2,44,1629130737.0,32.000000
-44,-2,47,1629130737.0,32.000000
-44,-2,47,1629130737.0,32.000000
-45,-2,46,1629130737.0,32.000000
-45,-2,46,1629130737.0,32.000000
-45,-2,46,1629130737.0,32.000000
-45,-2,46,1629130737.0,32.000000
-44,-2,46,1629130737.0,32.000000
-45,-2,46,1629130737.0,32.000000
-45,-2,46,1629130737.0,32.000000
-44,-2,47,1629130737.0,32.000000
-45,-2,46,1629130737.0,32.000000
-45,-2,46,1629130737.0,32.000000
-45,-2,46,1629130737.0,32.000000
-44,-2,46,1629130737.0,32.000000
-45,-2,46,1629130737.0,32.000000
-45,-2,46,1629130737.0,32.000000
-45,-2,46,1629130737.0,32.000000
-45,-2,46,1629130737.0,32.000000
-45,-1,46,1629130737.0,32.000000
-45,-2,46,1629130737.0,32.000000
-45,-2,46,1629130737.0,32.000000
-45,-2,46,1629130737.0,32.000000
-44,-2,47,1629130737.0,32.000000
-44,-2,47,1629130737.0,32.000000
-45,-2,46,1629130737.0,32.000000
-45,-2,46,1629130737.0,32.000000
-44,-2,47,1629130737.0,32.000000
-45,-2,46,1629130737.0,32.000000
-45,-2,46,1629130737.0,32.000000
-44,-2,47,1629130737.0,32.000000
-44,-2,47,1629130737.0,32.000000
-45,-2,46,1629130737.0,32.000000
-45,-2,46,1629130737.0,32.000000
-45,-1,46,1629130737.0,32.000000
-45,-1,46,1629130737.0,32.000000
-46,-2,46,1629130737.0,32.000000
-45,-2,45,1629130737.0,32.000000
-45,-2,46,1629130737.0,32.000000
-45,-1,47,1629130737.0,32.000000
-43,-2,46,1629130737.0,32.000000
-45,-1,48,1629130737.0,32.000000
-44,-2,46,1629130737.0,32.000000
-45,-2,47,1629130737.0,32.000000
-44,-1,48,1629130737.0,32.000000
-44,-2,47,1629130737.0,32.000000
-44,-2,47,1629130737.0,32.000000
-44,-1,48,1629130737.0,32.000000
-43,-2,46,1629130737.0,32.000000
-44,-2,47,1629130737.0,32.000000
-43,-2,47,1629130737.0,32.000000
-44,-2,47,1629130737.0,32.000000
-45,-2,46,1629130737.0,32.000000
-44,-3,45,1629130737.0,32.000000
-44,-2,48,1629130737.0,32.000000
-42,-2,47,1629130737.0,32.000000
-43,-2,47,1629130737.0,32.000000
-44,-2,47,1629130737.0,32.000000
-43,-2,48,1629130737.0,32.000000
-44,-2,47,1629130737.0,32.000000
-45,-2,45,1629130737.0,32.000000
-43,-1,47,1629130737.0,32.000000
-43,-2,48,1629130737.0,32.000000
-44,-2,47,1629130737.0,32.000000
-44,-2,47,1629130737.0,32.000000
-44,-2,47,1629130737.0,32.000000
-44,-2,47,1629130737.0,32.000000
-43,-2,47,1629130737.0,32.000000
-46,-1,46,1629130737.0,32.000000
-45,-2,45,1629130737.0,32.000000
-44,-2,47,1629130737.0,32.000000
-44,-2,46,1629130737.0,32.000000
-44,-2,47,1629130737.0,32.000000
-45,-2,45,1629130737.0,32.000000
-44,-2,47,1629130737.0,32.000000
-44,-2,47,1629130737.0,32.000000
-45,-1,46,1629130737.0,32.000000
-45,-2,45,1629130737.0,32.000000
-45,-1,46,1629130737.0,32.000000
-45,-2,47,1629130737.0,32.000000
-45,-2,45,1629130737.0,32.000000
-45,-1,46,1629130737.0,32.000000
-45,-2,47,1629130737.0,32.000000
-43,-2,46,1629130737.0,32.000000
-46,-1,46,1629130737.0,32.000000
-46,-2,46,1629130737.0,32.000000
-44,-2,46,1629130737.0,32.000000
-45,-2,46,1629130737.0,32.000000
-45,-2,46,1629130737.0,32.000000
-45,-2,45,1629130737.0,32.000000
-45,-2,45,1629130737.0,32.000000
-45,-1,47,1629130737.0,32.000000
-44,-1,47,1629130737.0,32.000000
-46,-2,45,1629130737.0,32.000000
-46,-2,45,1629130737.0,32.000000
-45,-2,46,1629130737.0,32.000000
-45,-2,46,1629130737.0,32.000000
-45,-2,46,1629130737.0,32.000000
-45,-2,46,1629130737.0,32.000000
-45,-2,46,1629130737.0,32.000000
-45,-2,46,1629130737.0,32.000000
-43,-2,47,1629130737.0,32.000000
-45,-2,46,1629130737.0,32.000000
-45,-1,46,1629130737.0,32.000000
-44,-1,46,1629130737.0,32.000000
-45,-1,46,1629130737.0,32.000000
-45,-2,46,1629130737.0,32.000000
-45,-1,46,1629130737.0,32.000000
-44,-1,47,1629130737.0,32.000000
-44,-2,46,1629130737.0,32.000000
-45,-2,46,1629130737.0,32.000000
-44,-2,47,1629130737.0,32.000000
-44,-1,47,1629130737.0,32.000000
-45,-2,46,1629130737.0,32.000000
-45,-1,46,1629130737.0,32.000000
-44,-1,46,1629130737.0,32.000000
-44,-2,47,1629130737.0,32.000000
-42,0,49,1629130737.0,32.000000
-47,-2,45,1629130737.0,32.000000
-45,-1,47,1629130737.0,32.000000
-45,-1,47,1629130737.0,32.000000
-44,-1,47,1629130737.0,32.000000
-45,-2,46,1629130737.0,32.000000
-45,-1,46,1629130737.0,32.000000
-45,-2,46,1629130737.0,32.000000
-45,-1,46,1629130737.0,32.000000
-45,-1,46,1629130737.0,32.000000
-45,-2,46,1629130737.0,32.000000
-45,-1,46,1629130737.0,32.000000
-45,-1,46,1629130737.0,32.000000
-45,-1,46,1629130737.0,32.000000
-45,-1,46,1629130737.0,32.000000
-45,-1,46,1629130737.0,32.000000
-45,-1,46,1629130737.0,32.000000
-45,-2,46,1629130737.0,32.000000
-45,-2,46,1629130737.0,32.000000
-45,-1,46,1629130737.0,32.000000
-45,-1,46,1629130737.0,32.000000
-45,-1,46,1629130737.0,32.000000
-45,-1,46,1629130737.0,32.000000
-45,-1,46,1629130737.0,32.000000
-45,-1,46,1629130737.0,32.000000
-45,-1,46,1629130737.0,32.000000
-45,-1,46,1629130737.0,32.000000
-45,-1,46,1629130737.0,32.000000
-45,-1,45,1629130737.0,32.000000
-46,-1,46,1629130737.0,32.000000
-45,-1,46,1629130737.0,32.000000
-45,-1,46,1629130737.0,32.000000
-45,-1,46,1629130737.0,32.000000
-45,-2,45,1629130737.0,32.000000
-45,-1,46,1629130737.0,32.000000
-45,-1,46,1629130737.0,32.000000
-46,-2,44,1629130737.0,32.000000
-46,-2,45,1629130737.0,32.000000
-46,-1,46,1629130737.0,32.000000
-46,-1,45,1629130737.0,32.000000
-46,-2,45,1629130737.0,32.000000
-46,-2,45,1629130737.0,32.000000
-46,-1,46,1629130737.0,32.000000
-45,-1,45,1629130737.0,32.000000
-46,-1,45,1629130737.0,32.000000
-46,-1,45,1629130737.0,32.000000
-46,-1,45,1629130737.0,32.000000
-46,-1,45,1629130737.0,32.000000
-46,-1,45,1629130737.0,32.000000
-46,-1,45,1629130737.0,32.000000
-45,-1,46,1629130737.0,32.000000
-46,-2,44,1629130737.0,32.000000
-46,-2,45,1629130737.0,32.000000
-45,-1,46,1629130737.0,32.000000
-46,-1,46,1629130737.0,32.000000
-46,-2,45,1629130737.0,32.000000
-46,-2,45,1629130737.0,32.000000
-45,-2,46,1629130737.0,32.000000
-46,-2,44,1629130737.0,32.000000
-52,3,52,1629130737.0,32.000000
-45,1,47,1629130737.0,32.000000
-50,-1,45,1629130737.0,32.000000
-46,-1,46,1629130737.0,32.000000
-46,-2,45,1629130737.0,32.000000
-47,-2,45,1629130737.0,32.000000
-45,-1,46,1629130737.0,32.000000
-46,-2,45,1629130737.0,32.000000
-46,-1,46,1629130737.0,32.000000
-45,-1,47,1629130737.0,32.000000
-44,-3,45,1629130737.0,32.000000
-47,-2,46,1629130737.0,32.000000
-45,-2,44,1629130737.0,32.000000
-47,-2,44,1629130737.0,32.000000
-43,-1,47,1629130737.0,32.000000
-45,-2,46,1629130737.0,32.000000
-45,-2,46,1629130737.0,32.000000
-45,-2,46,1629130737.0,32.000000
-47,-1,45,1629130737.0,32.000000
-45,-2,47,1629130737.0,32.000000
-45,-2,46,1629130737.0,32.000000
-46,-2,45,1629130737.0,32.000000
-46,-1,46,1629130737.0,32.000000
-45,-2,45,1629130737.0,32.000000
-46,-2,45,1629130737.0,32.000000
-45,-2,46,1629130737.0,32.000000
-45,-2,46,1629130737.0,32.000000
-45,-2,46,1629130737.0,32.000000
-46,-1,46,1629130737.0,32.000000
-45,-2,45,1629130737.0,32.000000
-45,-2,46,1629130737.0,32.000000
-45,-2,45,1629130737.0,32.000000
-45,-2,46,1629130737.0,32.000000
-46,-2,45,1629130737.0,32.000000
-46,-2,46,1629130737.0,32.000000
-45,-2,46,1629130737.0,32.000000
-45,-1,46,1629130737.0,32.000000
-45,-2,46,1629130737.0,32.000000
-45,-1,47,1629130737.0,32.000000
-45,-2,45,1629130737.0,32.000000
-46,-3,44,1629130737.0,32.000000
-46,-2,46,1629130737.0,32.000000
-49,0,45,1629130737.0,32.000000
-48,-1,44,1629130737.0,32.000000
-47,-2,43,1629130737.0,32.000000
-46,-1,45,1629130737.0,32.000000
-47,-1,45,1629130737.0,32.000000
-47,-1,45,1629130737.0,32.000000
-45,-1,45,1629130737.0,32.000000
-46,-1,45,1629130737.0,32.000000
-46,-1,45,1629130737.0,32.000000
-46,-2,44,1629130737.0,32.000000
-46,-1,45,1629130737.0,32.000000
-46,-2,44,1629130737.0,32.000000
-47,-2,45,1629130737.0,32.000000
-46,-2,46,1629130737.0,32.000000
-43,-2,46,1629130737.0,32.000000
-46,-2,45,1629130737.0,32.000000
-44,-1,46,1629130737.0,32.000000
-45,-2,45,1629130737.0,32.000000
-45,-2,46,1629130737.0,32.000000
-45,-2,46,1629130737.0,32.000000
-46,-1,45,1629130737.0,32.000000
-46,-2,44,1629130737.0,32.000000
-45,-2,46,1629130737.0,32.000000
-45,-2,46,1629130737.0,32.000000
-45,-2,46,1629130737.0,32.000000
-45,-2,45,1629130737.0,32.000000
-45,-1,46,1629130737.0,32.000000
-45,-2,46,1629130737.0,32.000000
-45,-2,45,1629130737.0,32.000000
-47,-2,45,1629130737.0,32.000000
-46,-1,46,1629130737.0,32.000000
-43,-1,48,1629130737.0,32.000000
-45,-1,47,1629130737.0,32.000000
-45,-2,46,1629130737.0,32.000000
-45,-1,46,1629130737.0,32.000000
-45,-1,46,1629130737.0,32.000000
-45,-2,45,1629130737.0,32.000000
-46,-2,44,1629130737.0,32.000000
-45,-2,45,1629130737.0,32.000000
-43,-1,48,1629130737.0,32.000000
-45,-3,44,1629130737.0,32.000000
-46,-2,45,1629130737.0,32.000000
-45,-2,46,1629130737.0,32.000000
-45,-2,45,1629130737.0,32.000000
-45,-2,45,1629130737.0,32.000000
-46,-2,46,1629130737.0,32.000000
-45,-1,46,1629130737.0,32.000000
-45,-2,46,1629130737.0,32.000000
-45,-1,46,1629130737.0,32.000000
-45,-2,46,1629130737.0,32.000000
-45,-1,46,1629130737.0,32.000000
-45,-1,46,1629130737.0,32.000000
-46,-2,45,1629130737.0,32.000000
-46,-2,46,1629130737.0,32.000000
-46,-2,45,1629130737.0,32.000000
-45,-1,46,1629130737.0,32.000000
-45,-2,46,1629130737.0,32.000000
-46,-2,46,1629130737.0,32.000000
-45,-2,46,1629130737.0,32.000000
-45,-2,46,1629130737.0,32.000000
-45,-2,46,1629130737.0,32.000000
-46,-2,45,1629130737.0,32.000000
-45,-2,47,1629130737.0,32.000000
-44,-2,46,1629130737.0,32.000000
-46,-2,46,1629130737.0,32.000000
-45,-2,46,1629130737.0,32.000000
-45,-2,45,1629130737.0,32.000000
-45,-2,47,1629130737.0,32.000000
-45,-2,46,1629130737.0,32.000000
-45,-2,46,1629130737.0,32.000000
-45,-2,46,1629130737.0,32.000000
-45,-2,46,1629130737.0,32.000000
-45,-2,46,1629130737.0,32.000000
-45,-2,46,1629130737.0,32.000000
-45,-2,46,1629130737.0,32.000000
-45,-1,46,1629130737.0,32.000000
-45,-2,46,1629130737.0,32.000000
-45,-2,45,1629130737.0,32.000000
-46,-2,46,1629130737.0,32.000000
-45,-2,46,1629130737.0,32.000000
-45,-2,46,1629130737.0,32.000000
-46,-3,44,1629130737.0,32.000000
-44,-3,45,1629130737.0,32.000000
-46,-2,45,1629130737.0,32.000000
-46,-2,44,1629130737.0,32.000000
-45,-2,47,1629130737.0,32.000000
-45,-2,46,1629130737.0,32.000000
-45,-3,46,1629130737.0,32.000000
-45,-2,46,1629130737.0,32.000000
-45,-3,46,1629130737.0,32.000000
-45,-2,46,1629130737.0,32.000000
-45,-2,46,1629130737.0,32.000000
-45,-3,46,1629130737.0,32.000000
-45,-2,46,1629130737.0,32.000000
-45,-2,46,1629130737.0,32.000000
-45,-2,46,1629130737.0,32.000000
-45,-2,46,1629130737.0,32.000000
-45,-2,46,1629130737.0,32.000000
-45,-2,46,1629130737.0,32.000000
-45,-2,46,1629130737.0,32.000000
-45,-2,46,1629130737.0,32.000000
-45,-2,46,1629130737.0,32.000000
-45,-2,46,1629130737.0,32.000000
-45,-2,46,1629130737.0,32.000000
-45,-2,46,1629130737.0,32.000000
-45,-2,46,1629130737.0,32.000000
-45,-3,46,1629130737.0,32.000000
-45,-2,46,1629130737.0,32.000000
-45,-2,46,1629130737.0,32.000000
-45,-2,45,1629130737.0,32.000000
-45,-2,46,1629130737.0,32.000000
-45,-2,46,1629130737.0,32.000000
-45,-2,46,1629130737.0,32.000000
-45,-2,46,1629130737.0,32.000000
-45,-2,46,1629130737.0,32.000000
-45,-2,46,1629130737.0,32.000000
-45,-2,46,1629130737.0,32.000000
-45,-2,46,1629130737.0,32.000000
-45,-2,46,1629130737.0,32.000000
-45,-2,46,1629130737.0,32.000000
-45,-2,46,1629130737.0,32.000000
-45,-2,46,1629130737.0,32.000000
-46,-2,46,1629130737.0,32.000000
-45,-2,46,1629130737.0,32.000000
-45,-2,46,1629130737.0,32.000000
-45,-2,46,1629130737.0,32.000000
-45,-2,46,1629130737.0,32.000000
-45,-2,46,1629130737.0,32.000000
-45,-2,46,1629130737.0,32.000000
-45,-2,46,1629130737.0,32.000000
-45,-2,46,1629130737.0,32.000000
-45,-2,45,1629130737.0,32.000000
-45,-2,45,1629130737.0,32.000000
-45,-2,46,1629130737.0,32.000000
-45,-2,46,1629130737.0,32.000000
-45,-2,46,1629130737.0,32.000000
-45,-2,45,1629130737.0,32.000000
-45,-2,46,1629130737.0,32.000000
-45,-2,46,1629130737.0,32.000000
-45,-2,46,1629130737.0,32.000000
-46,-2,46,1629130737.0,32.000000
-45,-2,46,1629130737.0,32.000000
-45,-2,46,1629130737.0,32.000000
-45,-2,46,1629130737.0,32.000000
-45,-2,46,1629130737.0,32.000000
-45,-2,46,1629130737.0,32.000000
-45,-2,46,1629130737.0,32.000000
-45,-2,46,1629130737.0,32.000000
-45,-2,46,1629130737.0,32.000000
-45,-2,46,1629130737.0,32.000000
-45,-2,46,1629130737.0,32.000000
-46,-2,46,1629130737.0,32.000000
-45,-2,46,1629130737.0,32.000000
-45,-2,46,1629130737.0,32.000000
-45,-2,46,1629130737.0,32.000000
-45,-2,46,1629130737.0,32.000000
-45,-2,46,1629130737.0,32.000000
-45,-2,46,1629130737.0,32.000000
-45,-2,46,1629130737.0,32.000000
-45,-2,46,1629130737.0,32.000000
-45,-3,46,1629130737.0,32.000000
-45,-2,46,1629130737.0,32.000000
-45,-2,45,1629130737.0,32.000000
-46,-2,46,1629130737.0,32.000000
-45,-2,46,1629130737.0,32.000000
-45,-2,46,1629130737.0,32.000000
-45,-2,46,1629130737.0,32.000000
-45,-2,46,1629130737.0,32.000000
-45,-2,46,1629130737.0,32.000000
-45,-2,46,1629130737.0,32.000000
-45,-2,46,1629130737.0,32.000000
-45,-2,46,1629130737.0,32.000000
-45,-2,46,1629130737.0,32.000000
-45,-2,46,1629130737.0,32.000000
-45,-2,46,1629130737.0,32.000000
-45,-2,46,1629130737.0,32.000000
-45,-2,46,1629130737.0,32.000000
-45,-2,46,1629130737.0,32.000000
-45,-2,46,1629130737.0,32.000000
-45,-2,46,1629130737.0,32.000000
-45,-2,46,1629130737.0,32.000000
-45,-2,46,1629130737.0,32.000000
-45,-2,46,1629130737.0,32.000000
-45,-2,46,1629130737.0,32.000000
-45,-2,46,1629130737.0,32.000000
-45,-2,46,1629130737.0,32.000000
-45,-2,46,1629130737.0,32.000000
-45,-2,46,1629130737.0,32.000000
-45,-2,46,1629130737.0,32.000000
-45,-2,45,1629130737.0,32.000000
-45,-2,46,1629130737.0,32.000000
-45,-2,45,1629130737.0,32.000000
-45,-2,45,1629130737.0,32.000000
-45,-2,46,1629130737.0,32.000000
-45,-2,46,1629130737.0,32.000000
-45,-2,46,1629130737.0,32.000000
-45,-2,46,1629130737.0,32.000000
-45,-2,46,1629130737.0,32.000000
-45,-2,46,1629130737.0,32.000000
-45,-2,46,1629130737.0,32.000000
-45,-2,46,1629130737.0,32.000000
-45,-2,46,1629130737.0,32.000000
-45,-2,46,1629130737.0,32.000000
-45,-2,46,1629130737.0,32.000000
-45,-2,46,1629130737.0,32.000000
-45,-2,46,1629130737.0,32.000000
-45,-2,46,1629130737.0,32.000000
-45,-2,46,1629130737.0,32.000000
-45,-2,46,1629130737.0,32.000000
-45,-2,46,1629130737.0,32.000000
-45,-2,46,1629130737.0,32.000000
-45,-2,46,1629130737.0,32.000000
-45,-2,46,1629130737.0,32.000000
-45,-2,46,1629130737.0,32.000000
-45,-2,46,1629130737.0,32.000000
-45,-2,46,1629130737.0,32.000000
-45,-2,45,1629130737.0,32.000000
-45,-2,46,1629130737.0,32.000000
-45,-2,46,1629130737.0,32.000000
-45,-2,46,1629130737.0,32.000000
-45,-2,46,1629130737.0,32.000000
-45,-2,45,1629130737.0,32.000000
-45,-2,46,1629130737.0,32.000000
-45,-2,46,1629130737.0,32.000000
-45,-2,46,1629130737.0,32.000000
-45,-2,46,1629130737.0,32.000000
-45,-2,45,1629130737.0,32.000000
-45,-2,46,1629130737.0,32.000000
-45,-2,46,1629130737.0,32.000000
-45,-2,46,1629130737.0,32.000000
-45,-2,45,1629130737.0,32.000000
-46,-2,45,1629130737.0,32.000000
-45,-2,46,1629130737.0,32.000000
-45,-2,46,1629130737.0,32.000000
-45,-2,45,1629130737.0,32.000000
-45,-2,45,1629130737.0,32.000000
-45,-2,45,1629130737.0,32.000000
-45,-2,46,1629130737.0,32.000000
-46,-2,45,1629130737.0,32.000000
-45,-2,46,1629130737.0,32.000000
-45,-2,46,1629130737.0,32.000000
-45,-2,46,1629130737.0,32.000000
-45,-2,46,1629130737.0,32.000000
-45,-2,45,1629130737.0,32.000000
-45,-2,46,1629130737.0,32.000000
-45,-2,45,1629130737.0,32.000000
-45,-2,46,1629130737.0,32.000000
-45,-2,46,1629130737.0,32.000000
-45,-2,46,1629130737.0,32.000000
-46,-2,45,1629130737.0,32.000000
-46,-2,45,1629130737.0,32.000000
-45,-2,46,1629130737.0,32.000000
-45,-2,46,1629130737.0,32.000000
-46,-2,45,1629130737.0,32.000000
-46,-2,45,1629130737.0,32.000000
-45,-2,45,1629130737.0,32.000000
-45,-2,46,1629130737.0,32.000000
-45,-2,45,1629130737.0,32.000000
-46,-2,45,1629130737.0,32.000000
-44,-2,45,1629130737.0,32.000000
-46,-2,46,1629130737.0,32.000000
-46,-2,46,1629130737.0,32.000000
-45,-2,46,1629130737.0,32.000000
-46,-2,46,1629130737.0,32.000000
-46,-1,47,1629130737.0,32.000000
-49,-5,41,1629130737.0,32.000000
-46,-2,48,1629130737.0,32.000000
-46,-2,45,1629130737.0,32.000000
-46,-2,47,1629130737.0,32.000000
-45,-2,46,1629130737.0,32.000000
-45,-2,46,1629130737.0,32.000000
-45,-2,46,1629130737.0,32.000000
-45,-2,46,1629130737.0,32.000000
-45,-2,46,1629130737.0,32.000000
-45,-2,46,1629130737.0,32.000000
-45,-2,46,1629130737.0,32.000000
-45,-2,46,1629130737.0,32.000000
-45,-2,46,1629130737.0,32.000000
-45,-2,46,1629130737.0,32.000000
-45,-2,46,1629130737.0,32.000000
-45,-2,46,1629130737.0,32.000000
-45,-2,46,1629130737.0,32.000000
-45,-2,45,1629130737.0,32.000000
-45,-2,46,1629130737.0,32.000000
-45,-2,46,1629130737.0,32.000000
-45,-2,46,1629130737.0,32.000000
-45,-2,46,1629130737.0,32.000000
-45,-2,46,1629130737.0,32.000000
-45,-2,46,1629130737.0,32.000000
-45,-2,46,1629130737.0,32.000000
-45,-2,46,1629130737.0,32.000000
-45,-2,46,1629130737.0,32.000000
-45,-2,46,1629130737.0,32.000000
-45,-2,46,1629130737.0,32.000000
-45,-2,46,1629130737.0,32.000000
-45,-2,46,1629130737.0,32.000000
-45,-2,46,1629130737.0,32.000000
-45,-2,46,1629130737.0,32.000000
-45,-2,46,1629130737.0,32.000000
-45,-2,46,1629130737.0,32.000000
-45,-2,46,1629130737.0,32.000000
-45,-2,46,1629130737.0,32.000000
-45,-2,46,1629130737.0,32.000000
-45,-2,46,1629130737.0,32.000000
-45,-2,46,1629130737.0,32.000000
-45,-2,46,1629130737.0,32.000000
-45,-2,46,1629130737.0,32.000000
-45,-2,46,1629130737.0,32.000000
-45,-2,46,1629130737.0,32.000000
-45,-2,46,1629130737.0,32.000000
-45,-2,46,1629130737.0,32.000000
-45,-2,46,1629130737.0,32.000000
-45,-2,46,1629130737.0,32.000000
-45,-2,46,1629130737.0,32.000000
-45,-2,46,1629130737.0,32.000000
-45,-2,45,1629130737.0,32.000000
-45,-2,46,1629130737.0,32.000000
-45,-2,46,1629130737.0,32.000000
-45,-2,46,1629130737.0,32.000000
-45,-2,46,1629130737.0,32.000000
-45,-2,46,1629130737.0,32.000000
-45,-2,46,1629130737.0,32.000000
-45,-2,46,1629130737.0,32.000000
-45,-2,46,1629130737.0,32.000000
-45,-2,46,1629130737.0,32.000000
-45,-2,46,1629130737.0,32.000000
-45,-2,46,1629130737.0,32.000000
-45,-2,46,1629130737.0,32.000000
-45,-2,46,1629130737.0,32.000000
-45,-2,46,1629130737.0,32.000000
-45,-2,46,1629130737.0,32.000000
-45,-2,46,1629130737.0,32.000000
-45,-2,46,1629130737.0,32.000000
-45,-2,46,1629130737.0,32.000000
-45,-2,46,1629130737.0,32.000000
-45,-2,46,1629130737.0,32.000000
-45,-2,46,1629130737.0,32.000000
-45,-2,46,1629130737.0,32.000000
-45,-2,46,1629130737.0,32.000000
-45,-2,45,1629130737.0,32.000000
-45,-2,46,1629130737.0,32.000000
-45,-2,46,1629130737.0,32.000000
-45,-2,46,1629130737.0,32.000000
-45,-2,46,1629130737.0,32.000000
-45,-2,46,1629130737.0,32.000000
-45,-2,46,1629130737.0,32.000000
-45,-2,46,1629130737.0,32.000000
-45,-2,46,1629130737.0,32.000000
-45,-2,46,1629130737.0,32.000000
-45,-2,46,1629130737.0,32.000000
-45,-2,46,1629130737.0,32.000000
-45,-2,46,1629130737.0,32.000000
-45,-2,46,1629130737.0,32.000000
-45,-2,46,1629130737.0,32.000000
-45,-2,46,1629130737.0,32.000000
-45,-2,46,1629130737.0,32.000000
-45,-2,46,1629130737.0,32.000000
-45,-2,46,1629130737.0,32.000000
-45,-2,46,1629130737.0,32.000000
-45,-2,46,1629130737.0,32.000000
-45,-2,46,1629130737.0,32.000000
-45,-2,46,1629130737.0,32.000000
-45,-2,45,1629130737.0,32.000000
-45,-2,46,1629130737.0,32.000000
-45,-2,46,1629130737.0,32.000000
-45,-2,46,1629130737.0,32.000000
-45,-2,46,1629130737.0,32.000000
-45,-2,46,1629130737.0,32.000000
-45,-2,46,1629130737.0,32.000000
-45,-2,46,1629130737.0,32.000000
-45,-2,46,1629130737.0,32.000000
-45,-2,46,1629130737.0,32.000000
-45,-2,46,1629130737.0,32.000000
-45,-2,46,1629130737.0,32.000000
-45,-2,46,1629130737.0,32.000000
-45,-2,46,1629130737.0,32.000000
-45,-2,46,1629130737.0,32.000000
-45,-2,46,1629130737.0,32.000000
-45,-2,46,1629130737.0,32.000000
-45,-2,46,1629130737.0,32.000000
-45,-2,46,1629130737.0,32.000000
-45,-2,46,1629130737.0,32.000000
-45,-2,46,1629130737.0,32.000000
-45,-2,46,1629130737.0,32.000000
-45,-2,46,1629130737.0,32.000000
-45,-2,46,1629130737.0,32.000000
-45,-2,46,1629130737.0,32.000000
-45,-2,46,1629130737.0,32.000000
-45,-2,46,1629130737.0,32.000000
-45,-2,46,1629130737.0,32.000000
-45,-2,46,1629130737.0,32.000000
-45,-2,46,1629130737.0,32.000000
-45,-2,46,1629130737.0,32.000000
-45,-2,46,1629130737.0,32.000000
-45,-2,46,1629130737.0,32.000000
-45,-2,46,1629130737.0,32.000000
-45,-2,46,1629130737.0,32.000000
-45,-2,46,1629130737.0,32.000000
-45,-2,46,1629130737.0,32.000000
-45,-2,46,1629130737.0,32.000000
-45,-2,46,1629130737.0,32.000000
-45,-2,46,1629130737.0,32.000000
-45,-2,46,1629130737.0,32.000000
-45,-2,46,1629130737.0,32.000000
-45,-2,46,1629130737.0,32.000000
-45,-2,46,1629130737.0,32.000000
-45,-2,46,1629130737.0,32.000000
-45,-2,46,1629130737.0,32.000000
-45,-2,46,1629130737.0,32.000000
-45,-2,46,1629130737.0,32.000000
-45,-2,46,1629130737.0,32.000000
-45,-2,46,1629130737.0,32.000000
-45,-2,46,1629130737.0,32.000000
-45,-2,46,1629130737.0,32.000000
-45,-2,46,1629130737.0,32.000000
-45,-2,46,1629130737.0,32.000000
-45,-2,46,1629130737.0,32.000000
-45,-2,46,1629130737.0,32.000000
-45,-2,46,1629130737.0,32.000000
-45,-2,46,1629130737.0,32.000000
-45,-2,46,1629130737.0,32.000000
-45,-2,46,1629130737.0,32.000000
-45,-2,46,1629130737.0,32.000000
-45,-2,46,1629130737.0,32.000000
-45,-2,46,1629130737.0,32.000000
-45,-2,46,1629130737.0,32.000000
-45,-2,46,1629130737.0,32.000000
-45,-2,46,1629130737.0,32.000000
-45,-2,46,1629130737.0,32.000000
-45,-2,46,1629130737.0,32.000000
-45,-2,46,1629130737.0,32.000000
-45,-2,46,1629130737.0,32.000000
-45,-2,46,1629130737.0,32.000000
-45,-2,46,1629130737.0,32.000000
-45,-2,46,1629130737.0,32.000000
-45,-2,46,1629130737.0,32.000000
-45,-2,46,1629130737.0,32.000000
-45,-2,46,1629130737.0,32.000000
-45,-2,46,1629130737.0,32.000000
-45,-2,46,1629130737.0,32.000000
-45,-2,46,1629130737.0,32.000000
-45,-2,46,1629130737.0,32.000000
-45,-2,46,1629130737.0,32.000000
-45,-2,46,1629130737.0,32.000000
-45,-2,46,1629130737.0,32.000000
-45,-2,46,1629130737.0,32.000000
-45,-2,46,1629130737.0,32.000000
-45,-2,46,1629130737.0,32.000000
-45,-2,46,1629130737.0,32.000000
-45,-2,46,1629130737.0,32.000000
-45,-2,46,1629130737.0,32.000000
-45,-2,46,1629130737.0,32.000000
-45,-2,46,1629130737.0,32.000000
-45,-2,46,1629130737.0,32.000000
-45,-2,46,1629130737.0,32.000000
-45,-2,46,1629130737.0,32.000000
-45,-2,46,1629130737.0,32.000000
-45,-2,46,1629130737.0,32.000000
-45,-2,46,1629130737.0,32.000000
-45,-2,46,1629130737.0,32.000000
-45,-2,46,1629130737.0,32.000000
-45,-2,46,1629130737.0,32.000000
-45,-2,46,1629130737.0,32.000000
-45,-2,46,1629130737.0,32.000000
-45,-2,46,1629130737.0,32.000000
-45,-2,46,1629130737.0,32.000000
-45,-2,46,1629130737.0,32.000000
-45,-2,46,1629130737.0,32.000000
-45,-2,46,1629130737.0,32.000000
-45,-2,46,1629130737.0,32.000000
-45,-2,46,1629130737.0,32.000000
-45,-2,46,1629130737.0,32.000000
-45,-2,46,1629130737.0,32.000000
-45,-2,46,1629130737.0,32.000000
-45,-2,46,1629130737.0,32.000000
-45,-2,46,1629130737.0,32.000000
-45,-2,46,1629130737.0,32.000000
-45,-2,46,1629130737.0,32.000000
-45,-2,46,1629130737.0,32.000000
-45,-2,46,1629130737.0,32.000000
-45,-2,46,1629130737.0,32.000000
-45,-2,46,1629130737.0,32.000000
-45,-2,46,1629130737.0,32.000000
-45,-2,46,1629130737.0,32.000000
-45,-2,46,1629130737.0,32.000000
-45,-2,46,1629130737.0,32.000000
-45,-2,46,1629130737.0,32.000000
-45,-2,46,1629130737.0,32.000000
-45,-2,46,1629130737.0,32.000000
-45,-2,46,1629130737.0,32.000000
-45,-2,46,1629130737.0,32.000000
-45,-2,46,1629130737.0,32.000000
-45,-2,46,1629130737.0,32.000000
-45,-2,46,1629130737.0,32.000000
-45,-2,46,1629130737.0,32.000000
-45,-2,46,1629130737.0,32.000000
-45,-2,46,1629130737.0,32.000000
-45,-2,46,1629130737.0,32.000000
-45,-2,46,1629130737.0,32.000000
-45,-2,46,1629130737.0,32.000000
-45,-2,46,1629130737.0,32.000000
-44,-3,46,1629130737.0,32.000000
-45,-2,46,1629130737.0,32.000000
-45,-2,46,1629130737.0,32.000000
-45,-2,45,1629130737.0,32.000000
-45,-2,46,1629130737.0,32.000000
-45,-2,46,1629130737.0,32.000000
-45,-2,46,1629130737.0,32.000000
-45,-2,46,1629130737.0,32.000000
-45,-2,46,1629130737.0,32.000000
-45,-2,46,1629130737.0,32.000000
-45,-2,46,1629130737.0,32.000000
-45,-2,46,1629130737.0,32.000000
-45,-2,46,1629130737.0,32.000000
-45,-2,46,1629130737.0,32.000000
-45,-2,46,1629130737.0,32.000000
-45,-2,46,1629130737.0,32.000000
-45,-2,46,1629130737.0,32.000000
-45,-2,46,1629130737.0,32.000000
-45,-2,45,1629130737.0,32.000000
-45,-2,46,1629130737.0,32.000000
-45,-2,46,1629130737.0,32.000000
-45,-2,46,1629130737.0,32.000000
-45,-2,46,1629130737.0,32.000000
-45,-2,46,1629130737.0,32.000000
-45,-2,46,1629130737.0,32.000000
-45,-2,46,1629130737.0,32.000000
-45,-3,46,1629130737.0,32.000000
-45,-2,46,1629130737.0,32.000000
-45,-2,46,1629130737.0,32.000000
-45,-2,46,1629130737.0,32.000000
-45,-2,46,1629130737.0,32.000000
-45,-3,46,1629130737.0,32.000000
-45,-3,46,1629130737.0,32.000000
-45,-2,46,1629130737.0,32.000000
-45,-2,46,1629130737.0,32.000000
-45,-2,46,1629130737.0,32.000000
-45,-2,46,1629130737.0,32.000000
-45,-2,46,1629130737.0,32.000000
-45,-2,45,1629130737.0,32.000000
-45,-2,46,1629130737.0,32.000000
-45,-2,46,1629130737.0,32.000000
-46,-3,45,1629130737.0,32.000000
-45,-2,46,1629130737.0,32.000000
-45,-2,46,1629130737.0,32.000000
-45,-2,46,1629130737.0,32.000000
-45,-2,46,1629130737.0,32.000000
-46,-2,45,1629130737.0,32.000000
-45,-2,45,1629130737.0,32.000000
-46,-3,46,1629130737.0,32.000000
-45,-2,46,1629130737.0,32.000000
-45,-2,46,1629130737.0,32.000000
-45,-2,46,1629130737.0,32.000000
-45,-3,46,1629130737.0,32.000000
-46,-2,46,1629130737.0,32.000000
-45,-3,45,1629130737.0,32.000000
-45,-2,45,1629130737.0,32.000000
-44,-2,46,1629130737.0,32.000000
-44,-2,46,1629130737.0,32.000000
-46,-2,46,1629130737.0,32.000000
-45,-3,46,1629130737.0,32.000000
-45,-2,46,1629130737.0,32.000000
-45,-2,46,1629130737.0,32.000000
-45,-2,46,1629130737.0,32.000000
-45,-2,46,1629130737.0,32.000000
-45,-3,45,1629130737.0,32.000000
-45,-3,46,1629130737.0,32.000000
-45,-2,46,1629130737.0,32.000000
-45,-2,46,1629130737.0,32.000000
-45,-3,46,1629130737.0,32.000000
-45,-2,45,1629130737.0,32.000000
-45,-2,46,1629130737.0,32.000000
-44,-3,46,1629130737.0,32.000000
-45,-3,46,1629130737.0,32.000000
-45,-2,45,1629130737.0,32.000000
-45,-2,46,1629130737.0,32.000000
-45,-3,45,1629130737.0,32.000000
-46,-3,46,1629130737.0,32.000000
-44,-2,46,1629130737.0,32.000000
-45,-3,46,1629130737.0,32.000000
-45,-2,46,1629130737.0,32.000000
-45,-3,46,1629130737.0,32.000000
-46,-2,46,1629130737.0,32.000000
-45,-3,46,1629130737.0,32.000000
-45,-3,46,1629130737.0,32.000000
-45,-2,46,1629130737.0,32.000000
-45,-3,46,1629130737.0,32.000000
-45,-2,45,1629130737.0,32.000000
-45,-3,46,1629130737.0,32.000000
-44,-3,46,1629130737.0,32.000000
-45,-2,46,1629130737.0,32.000000
-45,-2,46,1629130737.0,32.000000
-45,-3,46,1629130737.0,32.000000
-45,-3,46,1629130737.0,32.000000
-45,-2,46,1629130737.0,32.000000
-45,-2,46,1629130737.0,32.000000
-45,-3,46,1629130737.0,32.000000
-45,-3,45,1629130737.0,32.000000
-45,-3,46,1629130737.0,32.000000
-45,-2,46,1629130737.0,32.000000
-45,-3,46,1629130737.0,32.000000
-45,-3,46,1629130737.0,32.000000
-45,-2,46,1629130737.0,32.000000
-45,-3,46,1629130737.0,32.000000
-45,-3,46,1629130737.0,32.000000
-45,-2,46,1629130737.0,32.000000
-45,-2,46,1629130737.0,32.000000
-45,-3,46,1629130737.0,32.000000
-45,-3,46,1629130737.0,32.000000
-45,-3,46,1629130737.0,32.000000
-45,-2,46,1629130737.0,32.000000
-45,-3,46,1629130737.0,32.000000
-45,-3,46,1629130737.0,32.000000
-45,-3,46,1629130737.0,32.000000
-45,-2,46,1629130737.0,32.000000
-45,-3,46,1629130737.0,32.000000
-45,-2,46,1629130737.0,32.000000
-45,-2,46,1629130737.0,32.000000
-45,-3,46,1629130737.0,32.000000
-45,-3,46,1629130737.0,32.000000
-45,-2,46,1629130737.0,32.000000
-45,-2,46,1629130737.0,32.000000
-44,-3,46,1629130737.0,32.000000
-47,-3,45,1629130737.0,32.000000
-44,-3,46,1629130737.0,32.000000
-44,-2,47,1629130737.0,32.000000
-43,-3,46,1629130737.0,32.000000
-45,-2,47,1629130737.0,32.000000
-44,-2,47,1629130737.0,32.000000
-43,-2,47,1629130737.0,32.000000
-44,-2,47,1629130737.0,32.000000
-44,-3,47,1629130737.0,32.000000
-41,-3,48,1629130737.0,32.000000
-42,-2,48,1629130737.0,32.000000
-43,-3,48,1629130737.0,32.000000
-42,-2,48,1629130737.0,32.000000
-44,-3,47,1629130737.0,32.000000
-44,-4,45,1629130737.0,32.000000
-42,-4,48,1629130737.0,32.000000
-42,-4,49,1629130737.0,32.000000
-41,-4,48,1629130737.0,32.000000
-41,-3,49,1629130737.0,32.000000
-39,-3,50,1629130737.0,32.000000
-40,-5,47,1629130737.0,32.000000
-40,-3,51,1629130737.0,32.000000
-41,-2,52,1629130737.0,32.000000
-42,-3,49,1629130737.0,32.000000
-42,-4,48,1629130737.0,32.000000
-41,-3,48,1629130737.0,32.000000
-41,-4,48,1629130737.0,32.000000
-42,-4,44,1629130737.0,32.000000
-43,-4,49,1629130737.0,32.000000
-44,-4,46,1629130737.0,32.000000
-40,-3,50,1629130737.0,32.000000
-40,-3,50,1629130737.0,32.000000
-41,-4,49,1629130737.0,32.000000
-41,-4,48,1629130737.0,32.000000
-45,-3,50,1629130737.0,32.000000
-47,-2,47,1629130737.0,32.000000
-40,-4,48,1629130737.0,32.000000
-41,-4,49,1629130737.0,32.000000
-41,-3,49,1629130737.0,32.000000
-41,-4,48,1629130737.0,32.000000
-43,-4,48,1629130737.0,32.000000
-42,-4,48,1629130737.0,32.000000
-42,-4,48,1629130737.0,32.000000
-42,-4,48,1629130737.0,32.000000
-42,-4,48,1629130737.0,32.000000
-42,-4,48,1629130737.0,32.000000
-42,-4,48,1629130737.0,32.000000
-42,-4,48,1629130737.0,32.000000
-43,-4,48,1629130737.0,32.000000
-42,-4,48,1629130737.0,32.000000
-42,-4,48,1629130737.0,32.000000
-43,-4,48,1629130737.0,32.000000
-43,-4,48,1629130737.0,32.000000
-42,-4,48,1629130737.0,32.000000
-42,-4,48,1629130737.0,32.000000
-42,-4,48,1629130737.0,32.000000
-42,-4,48,1629130737.0,32.000000
-43,-4,48,1629130737.0,32.000000
-43,-4,48,1629130737.0,32.000000
-43,-4,48,1629130737.0,32.000000
-42,-4,48,1629130737.0,32.000000
-42,-4,48,1629130737.0,32.000000
-42,-4,48,1629130737.0,32.000000
-42,-4,48,1629130737.0,32.000000
-42,-4,48,1629130737.0,32.000000
-42,-4,48,1629130737.0,32.000000
-42,-4,48,1629130737.0,32.000000
-42,-4,48,1629130737.0,32.000000
-42,-4,48,1629130737.0,32.000000
-43,-4,48,1629130737.0,32.000000
-43,-4,48,1629130737.0,32.000000
-42,-4,48,1629130737.0,32.000000
-42,-4,48,1629130737.0,32.000000
-42,-4,49,1629130737.0,32.000000
-42,-4,48,1629130737.0,32.000000
-43,-4,48,1629130737.0,32.000000
-42,-4,48,1629130737.0,32.000000
-42,-4,48,1629130737.0,32.000000
-43,-4,48,1629130737.0,32.000000
-43,-3,48,1629130737.0,32.000000
-43,-3,48,1629130737.0,32.000000
-43,-3,47,1629130737.0,32.000000
-43,-4,48,1629130737.0,32.000000
-43,-4,48,1629130737.0,32.000000
-42,-4,48,1629130737.0,32.000000
-42,-3,48,1629130737.0,32.000000
-42,-4,48,1629130737.0,32.000000
-42,-4,48,1629130737.0,32.000000
-42,-4,48,1629130737.0,32.000000
-42,-4,48,1629130737.0,32.000000
-43,-3,48,1629130737.0,32.000000
-43,-3,48,1629130737.0,32.000000
-43,-4,47,1629130737.0,32.000000
-43,-4,47,1629130737.0,32.000000
-42,-4,48,1629130737.0,32.000000
-42,-4,48,1629130737.0,32.000000
-42,-4,48,1629130737.0,32.000000
-42,-4,48,1629130737.0,32.000000
-42,-4,48,1629130737.0,32.000000
-42,-4,48,1629130737.0,32.000000
-42,-4,48,1629130737.0,32.000000
-43,-3,48,1629130737.0,32.000000
-43,-3,48,1629130737.0,32.000000
-43,-4,48,1629130737.0,32.000000
-43,-4,48,1629130737.0,32.000000
-42,-3,48,1629130737.0,32.000000
-43,-3,48,1629130737.0,32.000000
-42,-4,48,1629130737.0,32.000000
-42,-4,48,1629130737.0,32.000000
-42,-4,48,1629130737.0,32.000000
-42,-4,48,1629130737.0,32.000000
-42,-3,48,1629130737.0,32.000000
-42,-4,48,1629130737.0,32.000000
-42,-4,48,1629130737.0,32.000000
-43,-4,48,1629130737.0,32.000000
-42,-4,48,1629130737.0,32.000000
-42,-4,48,1629130737.0,32.000000
-42,-4,48,1629130737.0,32.000000
-41,-4,48,1629130737.0,32.000000
-44,-4,47,1629130737.0,32.000000
-42,-4,48,1629130737.0,32.000000
-42,-4,48,1629130737.0,32.000000
-43,-4,48,1629130737.0,32.000000
-42,-4,48,1629130737.0,32.000000
-42,-4,48,1629130737.0,32.000000
-43,-4,48,1629130737.0,32.000000
-42,-4,48,1629130737.0,32.000000
-43,-4,48,1629130737.0,32.000000
-43,-4,48,1629130737.0,32.000000
-42,-4,48,1629130737.0,32.000000
-42,-4,48,1629130737.0,32.000000
-42,-4,48,1629130737.0,32.000000
-43,-4,48,1629130737.0,32.000000
-42,-4,48,1629130737.0,32.000000
-42,-4,48,1629130737.0,32.000000
-43,-4,48,1629130737.0,32.000000
-42,-4,48,1629130737.0,32.000000
-42,-4,48,1629130737.0,32.000000
-42,-4,48,1629130737.0,32.000000
-43,-4,48,1629130737.0,32.000000
-42,-4,48,1629130737.0,32.000000
-43,-4,48,1629130737.0,32.000000
-42,-4,48,1629130737.0,32.000000
-42,-4,48,1629130737.0,32.000000
-42,-4,48,1629130737.0,32.000000
-42,-4,48,1629130737.0,32.000000
-42,-4,48,1629130737.0,32.000000
-42,-4,48,1629130737.0,32.000000
-42,-4,48,1629130737.0,32.000000
-42,-4,48,1629130737.0,32.000000
-43,-4,48,1629130737.0,32.000000
-42,-4,48,1629130737.0,32.000000
-42,-4,48,1629130737.0,32.000000
-43,-4,48,1629130737.0,32.000000
-42,-4,48,1629130737.0,32.000000
-43,-4,48,1629130737.0,32.000000
-43,-4,48,1629130737.0,32.000000
-42,-4,48,1629130737.0,32.000000
-43,-3,48,1629130737.0,32.000000
-43,-4,48,1629130737.0,32.000000
-43,-4,48,1629130737.0,32.000000
-42,-4,48,1629130737.0,32.000000
-42,-4,48,1629130737.0,32.000000
-42,-4,48,1629130737.0,32.000000
-42,-4,48,1629130737.0,32.000000
-43,-4,47,1629130737.0,32.000000
-43,-4,48,1629130737.0,32.000000
-42,-4,48,1629130737.0,32.000000
-42,-4,48,1629130737.0,32.000000
-43,-4,48,1629130737.0,32.000000
-43,-4,48,1629130737.0,32.000000
-42,-4,48,1629130737.0,32.000000
-42,-4,48,1629130737.0,32.000000
-42,-4,48,1629130737.0,32.000000
-42,-4,48,1629130737.0,32.000000
-43,-4,47,1629130737.0,32.000000
-43,-4,48,1629130737.0,32.000000
-42,-4,48,1629130737.0,32.000000
-43,-4,48,1629130737.0,32.000000
-42,-4,48,1629130737.0,32.000000
-42,-4,48,1629130737.0,32.000000
-42,-4,48,1629130737.0,32.000000
-42,-4,48,1629130737.0,32.000000
-42,-4,48,1629130737.0,32.000000
-42,-4,48,1629130737.0,32.000000
-42,-4,48,1629130737.0,32.000000
-42,-4,48,1629130737.0,32.000000
-42,-4,48,1629130737.0,32.000000
-42,-4,48,1629130737.0,32.000000
-42,-4,48,1629130737.0,32.000000
-42,-4,48,1629130737.0,32.000000
-42,-4,48,1629130737.0,32.000000
-42,-4,48,1629130737.0,32.000000
-42,-4,48,1629130737.0,32.000000
-42,-4,48,1629130737.0,32.000000
-42,-4,48,1629130737.0,32.000000
-42,-4,48,1629130737.0,32.000000
-42,-4,48,1629130737.0,32.000000
-43,-4,48,1629130737.0,32.000000
-44,-4,49,1629130737.0,32.000000
-42,-5,48,1629130737.0,32.000000
-43,-3,48,1629130737.0,32.000000
-42,-4,48,1629130737.0,32.000000
-43,-4,48,1629130737.0,32.000000
-43,-4,48,1629130737.0,32.000000
-42,-4,48,1629130737.0,32.000000
-42,-4,48,1629130737.0,32.000000
-43,-4,48,1629130737.0,32.000000
-43,-4,48,1629130737.0,32.000000
-42,-4,48,1629130737.0,32.000000
-41,-4,48,1629130737.0,32.000000
-43,-4,48,1629130737.0,32.000000
-42,-4,48,1629130737.0,32.000000
-42,-4,48,1629130737.0,32.000000
-42,-4,48,1629130737.0,32.000000
-42,-4,48,1629130737.0,32.000000
-43,-4,48,1629130737.0,32.000000
-42,-4,48,1629130737.0,32.000000
-42,-4,48,1629130737.0,32.000000
-42,-4,48,1629130737.0,32.000000
-42,-4,48,1629130737.0,32.000000
-42,-4,48,1629130737.0,32.000000
-43,-4,48,1629130737.0,32.000000
-42,-4,48,1629130737.0,32.000000
-42,-4,48,1629130737.0,32.000000
-43,-4,47,1629130737.0,32.000000
-43,-3,48,1629130737.0,32.000000
-40,-3,49,1629130737.0,32.000000
-45,-4,47,1629130737.0,32.000000
-44,-3,48,1629130737.0,32.000000
-42,-3,49,1629130737.0,32.000000
-41,-4,49,1629130737.0,32.000000
-45,-5,48,1629130737.0,32.000000
-44,-4,50,1629130737.0,32.000000
-42,-4,49,1629130737.0,32.000000
-39,-6,50,1629130737.0,32.000000
-43,-7,47,1629130737.0,32.000000
-42,-7,47,1629130737.0,32.000000
-41,-7,47,1629130737.0,32.000000
-42,-7,46,1629130737.0,32.000000
-40,-8,47,1629130737.0,32.000000
-39,-8,46,1629130737.0,32.000000
-40,-10,48,1629130737.0,32.000000
-41,-10,45,1629130737.0,32.000000
-43,-9,39,1629130737.0,32.000000
-45,-8,41,1629130737.0,32.000000
-46,-5,48,1629130737.0,32.000000
-48,-4,49,1629130737.0,32.000000
-51,-2,47,1629130737.0,32.000000
-49,-5,41,1629130737.0,32.000000
-48,-5,43,1629130737.0,32.000000
-46,-4,45,1629130737.0,32.000000
-46,-4,45,1629130737.0,32.000000
-46,-4,44,1629130737.0,32.000000
-47,-5,44,1629130737.0,32.000000
-47,-4,44,1629130737.0,32.000000
-45,-4,45,1629130737.0,32.000000
-49,-3,44,1629130737.0,32.000000
-47,-4,44,1629130737.0,32.000000
-48,-4,43,1629130737.0,32.000000
-48,-5,43,1629130737.0,32.000000
-45,-4,45,1629130737.0,32.000000
-46,-5,45,1629130737.0,32.000000
-45,-4,45,1629130737.0,32.000000
-45,-4,45,1629130737.0,32.000000
-47,-4,44,1629130737.0,32.000000
-46,-5,44,1629130737.0,32.000000
-47,-4,44,1629130737.0,32.000000
-46,-4,45,1629130737.0,32.000000
-48,-4,44,1629130737.0,32.000000
-48,-5,44,1629130737.0,32.000000
-47,-3,45,1629130737.0,32.000000
-44,-6,46,1629130737.0,32.000000
-44,-5,46,1629130737.0,32.000000
-44,-6,45,1629130737.0,32.000000
-45,-5,47,1629130737.0,32.000000
-44,-5,46,1629130737.0,32.000000
-44,-6,46,1629130737.0,32.000000
-44,-5,46,1629130737.0,32.000000
-44,-5,47,1629130737.0,32.000000
-44,-5,47,1629130737.0,32.000000
-44,-5,45,1629130737.0,32.000000
-44,-5,46,1629130737.0,32.000000
-44,-6,46,1629130737.0,32.000000
-45,-6,46,1629130737.0,32.000000
-45,-5,46,1629130737.0,32.000000
-45,-6,47,1629130737.0,32.000000
-44,-5,46,1629130737.0,32.000000
-44,-5,45,1629130737.0,32.000000
-44,-4,48,1629130737.0,32.000000
-43,-5,47,1629130737.0,32.000000
-44,-5,46,1629130737.0,32.000000
-45,-3,47,1629130737.0,32.000000
-45,-3,48,1629130737.0,32.000000
-44,-4,46,1629130737.0,32.000000
-43,-4,47,1629130737.0,32.000000
-43,-5,46,1629130737.0,32.000000
-43,-5,46,1629130737.0,32.000000
-44,-4,47,1629130737.0,32.000000
-44,-4,47,1629130737.0,32.000000
-44,-5,47,1629130737.0,32.000000
-43,-5,46,1629130737.0,32.000000
-44,-4,46,1629130737.0,32.000000
-45,-4,46,1629130737.0,32.000000
-46,-3,46,1629130737.0,32.000000
-45,-4,46,1629130737.0,32.000000
-45,-4,46,1629130737.0,32.000000
-44,-4,46,1629130737.0,32.000000
-44,-4,47,1629130737.0,32.000000
-44,-4,46,1629130737.0,32.000000
-44,-4,46,1629130737.0,32.000000
-44,-4,46,1629130737.0,32.000000
-45,-4,47,1629130737.0,32.000000
-45,-4,46,1629130737.0,32.000000
-44,-4,46,1629130737.0,32.000000
-45,-4,46,1629130737.0,32.000000
-45,-4,46,1629130737.0,32.000000
-44,-4,46,1629130737.0,32.000000
-44,-4,46,1629130737.0,32.000000
-45,-4,46,1629130737.0,32.000000
-45,-4,46,1629130737.0,32.000000
-45,-4,46,1629130737.0,32.000000
-45,-4,46,1629130737.0,32.000000
-45,-4,46,1629130737.0,32.000000
-45,-4,46,1629130737.0,32.000000
-45,-4,46,1629130737.0,32.000000
-45,-4,46,1629130737.0,32.000000
-44,-4,46,1629130737.0,32.000000
-45,-4,46,1629130737.0,32.000000
-45,-4,46,1629130737.0,32.000000
-45,-4,46,1629130737.0,32.000000
-45,-4,46,1629130737.0,32.000000
-44,-4,47,1629130737.0,32.000000
-45,-4,46,1629130737.0,32.000000
-44,-4,46,1629130737.0,32.000000
-45,-4,46,1629130737.0,32.000000
-45,-4,46,1629130737.0,32.000000
-44,-4,46,1629130737.0,32.000000
-45,-4,46,1629130737.0,32.000000
-44,-4,46,1629130737.0,32.000000
-44,-4,46,1629130737.0,32.000000
-45,-4,46,1629130737.0,32.000000
-44,-4,46,1629130737.0,32.000000
-45,-4,46,1629130737.0,32.000000
-44,-4,46,1629130737.0,32.000000
-44,-4,46,1629130737.0,32.000000
-44,-4,46,1629130737.0,32.000000
-45,-4,46,1629130737.0,32.000000
-45,-4,46,1629130737.0,32.000000
-45,-4,46,1629130737.0,32.000000
-44,-4,46,1629130737.0,32.000000
-45,-4,46,1629130737.0,32.000000
-45,-4,46,1629130737.0,32.000000
-45,-4,46,1629130737.0,32.000000
-45,-4,46,1629130737.0,32.000000
-44,-4,46,1629130737.0,32.000000
-45,-4,46,1629130737.0,32.000000
-45,-4,46,1629130737.0,32.000000
-44,-4,46,1629130737.0,32.000000
-43,-4,47,1629130737.0,32.000000
-44,-5,46,1629130737.0,32.000000
-44,-5,46,1629130737.0,32.000000
-44,-5,46,1629130737.0,32.000000
-44,-4,46,1629130737.0,32.000000
-45,-4,47,1629130737.0,32.000000
-45,-4,46,1629130737.0,32.000000
-44,-4,46,1629130737.0,32.000000
-45,-4,47,1629130737.0,32.000000
-44,-4,47,1629130737.0,32.000000
-45,-4,46,1629130737.0,32.000000
-44,-4,47,1629130737.0,32.000000
-45,-4,46,1629130737.0,32.000000
-44,-4,47,1629130737.0,32.000000
-43,-4,46,1629130737.0,32.000000
-44,-4,46,1629130737.0,32.000000
-44,-4,46,1629130737.0,32.000000
-45,-4,46,1629130737.0,32.000000
-43,-4,47,1629130737.0,32.000000
-45,-4,46,1629130737.0,32.000000
-44,-4,47,1629130737.0,32.000000
-44,-4,47,1629130737.0,32.000000
-45,-4,47,1629130737.0,32.000000
-42,-4,49,1629130737.0,32.000000
-44,-5,47,1629130737.0,32.000000
-42,-5,46,1629130737.0,32.000000
-40,-4,49,1629130737.0,32.000000
-42,-4,50,1629130737.0,32.000000
-42,-5,50,1629130737.0,32.000000
-42,-5,47,1629130737.0,32.000000
-44,-5,47,1629130737.0,32.000000
-46,-6,41,1629130737.0,32.000000
-45,-6,39,1629130737.0,32.000000
-47,-7,47,1629130737.0,32.000000
-49,-2,49,1629130737.0,32.000000
-45,-1,49,1629130737.0,32.000000
-43,-3,49,1629130737.0,32.000000
-42,-5,46,1629130737.0,32.000000
-43,-4,46,1629130737.0,32.000000
-44,-3,47,1629130737.0,32.000000
-45,-3,46,1629130737.0,32.000000
-45,-3,45,1629130737.0,32.000000
-45,-3,46,1629130737.0,32.000000
-44,-3,47,1629130737.0,32.000000
-44,-3,47,1629130737.0,32.000000
-44,-3,47,1629130737.0,32.000000
-43,-2,48,1629130737.0,32.000000
-42,-2,48,1629130737.0,32.000000
-42,-3,47,1629130737.0,32.000000
-44,-3,45,1629130737.0,32.000000
-45,-4,47,1629130737.0,32.000000
-43,-2,48,1629130737.0,32.000000
-42,-2,48,1629130737.0,32.000000
-42,-2,49,1629130737.0,32.000000
-42,-3,48,1629130737.0,32.000000
-42,-3,49,1629130737.0,32.000000
-43,-3,48,1629130737.0,32.000000
-43,-3,46,1629130737.0,32.000000
-43,-3,48,1629130737.0,32.000000
-43,-3,48,1629130737.0,32.000000
-43,-3,48,1629130737.0,32.000000
-42,-3,48,1629130737.0,32.000000
-42,-3,48,1629130737.0,32.000000
-42,-3,49,1629130737.0,32.000000
-42,-3,48,1629130737.0,32.000000
-42,-3,47,1629130737.0,32.000000
-44,-4,48,1629130737.0,32.000000
-40,-2,50,1629130737.0,32.000000
-40,-3,49,1629130737.0,32.000000
-41,-2,49,1629130737.0,32.000000
-47,2,49,1629130737.0,32.000000
-46,-2,48,1629130737.0,32.000000
-39,-6,47,1629130737.0,32.000000
-40,-8,49,1629130737.0,32.000000
-42,-5,46,1629130737.0,32.000000
-42,-4,47,1629130737.0,32.000000
-44,-2,48,1629130737.0,32.000000
-45,-1,49,1629130737.0,32.000000
-45,-1,49,1629130737.0,32.000000
-43,-1,48,1629130737.0,32.000000
-41,-2,49,1629130737.0,32.000000
-38,-2,50,1629130737.0,32.000000
-39,-2,50,1629130737.0,32.000000
-39,-2,51,1629130737.0,32.000000
-40,-2,51,1629130737.0,32.000000
-37,-3,51,1629130737.0,32.000000
-36,-3,51,1629130737.0,32.000000
-40,-1,51,1629130737.0,32.000000
-39,-2,51,1629130737.0,32.000000
-36,-3,52,1629130737.0,32.000000
-37,-2,52,1629130737.0,32.000000
-37,-2,51,1629130737.0,32.000000
-38,-3,51,1629130737.0,32.000000
-39,0,53,1629130737.0,32.000000
-37,-1,53,1629130737.0,32.000000
-36,-1,53,1629130737.0,32.000000
-37,-1,52,1629130737.0,32.000000
-38,-3,51,1629130737.0,32.000000
-38,-2,52,1629130737.0,32.000000
-34,-3,53,1629130737.0,32.000000
-35,-4,53,1629130737.0,32.000000
-36,-4,52,1629130737.0,32.000000
-34,-2,55,1629130737.0,32.000000
-34,-2,56,1629130737.0,32.000000
-33,-1,56,1629130737.0,32.000000
-37,-2,52,1629130737.0,32.000000
-39,-4,50,1629130737.0,32.000000
-37,-3,52,1629130737.0,32.000000
-37,-2,53,1629130737.0,32.000000
-37,-2,52,1629130737.0,32.000000
-37,-3,52,1629130737.0,32.000000
-36,-2,53,1629130737.0,32.000000
-36,-3,53,1629130737.0,32.000000
-36,-2,53,1629130737.0,32.000000
-37,-3,52,1629130737.0,32.000000
-37,-3,52,1629130737.0,32.000000
-37,-3,52,1629130737.0,32.000000
-37,-2,53,1629130737.0,32.000000
-36,-2,53,1629130737.0,32.000000
-36,-2,52,1629130737.0,32.000000
-35,-3,53,1629130737.0,32.000000
-36,-3,53,1629130737.0,32.000000
-37,-2,53,1629130737.0,32.000000
-36,-2,53,1629130737.0,32.000000
-36,-2,52,1629130737.0,32.000000
-37,-2,52,1629130737.0,32.000000
-35,-3,53,1629130737.0,32.000000
-36,-2,53,1629130737.0,32.000000
-37,-2,53,1629130737.0,32.000000
-38,-1,53,1629130737.0,32.000000
-37,-2,52,1629130737.0,32.000000
-36,-2,53,1629130737.0,32.000000
-36,-3,52,1629130737.0,32.000000
-36,-3,52,1629130737.0,32.000000
-35,-3,53,1629130737.0,32.000000
-36,-1,53,1629130737.0,32.000000
-36,-1,53,1629130737.0,32.000000
-36,-2,52,1629130737.0,32.000000
-36,-2,53,1629130737.0,32.000000
-36,-1,53,1629130737.0,32.000000
-36,-1,54,1629130737.0,32.000000
-37,-2,51,1629130737.0,32.000000
-35,-1,54,1629130737.0,32.000000
-36,-1,53,1629130737.0,32.000000
-36,-1,52,1629130737.0,32.000000
-36,-1,53,1629130737.0,32.000000
-36,-1,53,1629130737.0,32.000000
-35,-1,54,1629130737.0,32.000000
-37,-1,53,1629130737.0,32.000000
-36,-1,53,1629130737.0,32.000000
-36,-1,53,1629130737.0,32.000000
-37,0,53,1629130737.0,32.000000
-38,0,53,1629130737.0,32.000000
-36,-1,53,1629130737.0,32.000000
-35,-2,53,1629130737.0,32.000000
-36,-1,53,1629130737.0,32.000000
-38,-1,52,1629130737.0,32.000000
-38,-1,52,1629130737.0,32.000000
-34,-1,54,1629130737.0,32.000000
-35,-1,54,1629130737.0,32.000000
-36,-2,52,1629130737.0,32.000000
-36,-1,52,1629130737.0,32.000000
-36,-1,53,1629130737.0,32.000000
-36,-2,52,1629130737.0,32.000000
-37,-1,52,1629130737.0,32.000000
-37,-1,52,1629130737.0,32.000000
-37,-2,52,1629130737.0,32.000000
-36,-1,53,1629130737.0,32.000000
-38,-1,51,1629130737.0,32.000000
-36,-2,54,1629130737.0,32.000000
-38,-2,52,1629130737.0,32.000000
-36,-1,53,1629130737.0,32.000000
-36,-1,54,1629130737.0,32.000000
-37,-1,53,1629130737.0,32.000000
-36,-1,53,1629130737.0,32.000000
-35,-1,53,1629130737.0,32.000000
-37,-2,52,1629130737.0,32.000000
-36,-1,53,1629130737.0,32.000000
-36,-1,53,1629130737.0,32.000000
-36,-1,53,1629130737.0,32.000000
-37,-1,52,1629130737.0,32.000000
-35,-1,53,1629130737.0,32.000000
-35,-1,53,1629130737.0,32.000000
-37,-1,52,1629130737.0,32.000000
-36,-1,53,1629130737.0,32.000000
-36,-1,53,1629130737.0,32.000000
-36,-1,52,1629130737.0,32.000000
-37,-1,53,1629130737.0,32.000000
-37,-1,52,1629130737.0,32.000000
-36,-1,53,1629130737.0,32.000000
-36,-1,53,1629130737.0,32.000000
-36,-1,53,1629130737.0,32.000000
-37,-1,52,1629130737.0,32.000000
-36,-1,53,1629130737.0,32.000000
-36,-1,53,1629130737.0,32.000000
-36,-1,53,1629130737.0,32.000000
-36,-1,53,1629130737.0,32.000000
-35,-1,54,1629130737.0,32.000000
-35,-1,54,1629130737.0,32.000000
-36,-1,53,1629130737.0,32.000000
-35,-1,53,1629130737.0,32.000000
-36,-1,52,1629130737.0,32.000000
-34,-2,53,1629130737.0,32.000000
-36,-1,54,1629130737.0,32.000000
-36,-2,52,1629130737.0,32.000000
-36,-2,53,1629130737.0,32.000000
-34,-1,54,1629130737.0,32.000000
-34,-1,55,1629130737.0,32.000000
-37,-1,52,1629130737.0,32.000000
-36,-2,52,1629130737.0,32.000000
-34,-1,55,1629130737.0,32.000000
-36,-1,53,1629130737.0,32.000000
-36,-1,53,1629130737.0,32.000000
-35,-1,53,1629130737.0,32.000000
-36,-1,54,1629130737.0,32.000000
-36,-1,52,1629130737.0,32.000000
-35,-1,54,1629130737.0,32.000000
-36,-1,53,1629130737.0,32.000000
-35,-1,53,1629130737.0,32.000000
-34,-2,53,1629130737.0,32.000000
-40,-1,51,1629130737.0,32.000000
-36,-2,52,1629130737.0,32.000000
-34,-1,54,1629130737.0,32.000000
-35,-1,54,1629130737.0,32.000000
-36,-2,52,1629130737.0,32.000000
-35,-1,54,1629130737.0,32.000000
-35,0,55,1629130737.0,32.000000
-36,-1,53,1629130737.0,32.000000
-36,-1,52,1629130737.0,32.000000
-35,-1,54,1629130737.0,32.000000
-35,-1,54,1629130737.0,32.000000
-35,-1,54,1629130737.0,32.000000
-36,-1,53,1629130737.0,32.000000
-35,-1,53,1629130737.0,32.000000
-34,-1,54,1629130737.0,32.000000
-35,-1,54,1629130737.0,32.000000
-36,-1,53,1629130737.0,32.000000
-35,-1,53,1629130737.0,32.000000
-34,-1,54,1629130737.0,32.000000
-37,-1,52,1629130737.0,32.000000
-36,-2,52,1629130737.0,32.000000
-34,-1,54,1629130737.0,32.000000
-35,-1,53,1629130737.0,32.000000
-34,-1,53,1629130737.0,32.000000
-35,-1,54,1629130737.0,32.000000
-37,-1,52,1629130737.0,32.000000
-36,-1,54,1629130737.0,32.000000
-33,-2,53,1629130737.0,32.000000
-35,-1,54,1629130737.0,32.000000
-37,-2,52,1629130737.0,32.000000
-38,-2,51,1629130737.0,32.000000
-37,-1,53,1629130737.0,32.000000
-35,-2,54,1629130737.0,32.000000
-36,-2,53,1629130737.0,32.000000
-35,-1,53,1629130737.0,32.000000
-37,-1,53,1629130737.0,32.000000
-35,-1,54,1629130737.0,32.000000
-37,-1,53,1629130737.0,32.000000
-35,-1,54,1629130737.0,32.000000
-34,-2,54,1629130737.0,32.000000
-35,-2,53,1629130737.0,32.000000
-36,-2,52,1629130737.0,32.000000
-34,0,55,1629130737.0,32.000000
-35,-1,54,1629130737.0,32.000000
-33,-3,52,1629130737.0,32.000000
-37,-3,51,1629130737.0,32.000000
-39,-1,52,1629130737.0,32.000000
-39,-2,51,1629130737.0,32.000000
-35,-3,52,1629130737.0,32.000000
-35,-3,53,1629130737.0,32.000000
-38,-2,53,1629130737.0,32.000000
-38,-1,53,1629130737.0,32.000000
-36,-3,52,1629130737.0,32.000000
-36,-2,53,1629130737.0,32.000000
-37,-2,53,1629130737.0,32.000000
-36,-2,53,1629130737.0,32.000000
-36,-2,53,1629130737.0,32.000000
-35,-1,55,1629130737.0,32.000000
-39,-4,52,1629130737.0,32.000000
-35,-2,54,1629130737.0,32.000000
-37,-3,52,1629130737.0,32.000000
-36,-2,54,1629130737.0,32.000000
-37,-4,52,1629130737.0,32.000000
-37,-3,52,1629130737.0,32.000000
-36,-3,53,1629130737.0,32.000000
-35,-3,54,1629130737.0,32.000000
-36,-4,52,1629130737.0,32.000000
-37,-4,52,1629130737.0,32.000000
-36,-3,53,1629130737.0,32.000000
-35,-3,54,1629130737.0,32.000000
-35,-3,53,1629130737.0,32.000000
-36,-3,53,1629130737.0,32.000000
-35,-4,53,1629130737.0,32.000000
-36,-3,54,1629130737.0,32.000000
-36,-3,53,1629130737.0,32.000000
-36,-4,52,1629130737.0,32.000000
-38,-4,51,1629130737.0,32.000000
-35,-2,55,1629130737.0,32.000000
-37,-3,53,1629130737.0,32.000000
-36,-3,53,1629130737.0,32.000000
-35,-4,53,1629130737.0,32.000000
-34,-3,54,1629130737.0,32.000000
-36,-4,53,1629130737.0,32.000000
-35,-3,53,1629130737.0,32.000000
-36,-3,53,1629130737.0,32.000000
-35,-3,54,1629130737.0,32.000000
-34,-3,54,1629130737.0,32.000000
-32,-5,53,1629130737.0,32.000000
-39,-4,52,1629130737.0,32.000000
-37,-3,53,1629130737.0,32.000000
-36,-4,52,1629130737.0,32.000000
-40,-3,51,1629130737.0,32.000000
-33,-1,56,1629130737.0,32.000000
-34,-3,55,1629130737.0,32.000000
-37,-5,49,1629130737.0,32.000000
-41,-5,49,1629130737.0,32.000000
-38,-3,51,1629130737.0,32.000000
-37,-3,52,1629130737.0,32.000000
-36,-2,54,1629130737.0,32.000000
-36,-2,53,1629130737.0,32.000000
-36,-3,52,1629130737.0,32.000000
-36,-3,53,1629130737.0,32.000000
-37,-2,53,1629130737.0,32.000000
-37,-3,52,1629130737.0,32.000000
-37,-3,52,1629130737.0,32.000000
-37,-3,52,1629130737.0,32.000000
-37,-3,52,1629130737.0,32.000000
-37,-3,53,1629130737.0,32.000000
-38,-3,52,1629130737.0,32.000000
-37,-3,52,1629130737.0,32.000000
-37,-3,52,1629130737.0,32.000000
-37,-3,52,1629130737.0,32.000000
-37,-3,52,1629130737.0,32.000000
-37,-3,52,1629130737.0,32.000000
-38,-2,52,1629130737.0,32.000000
-38,-3,52,1629130737.0,32.000000
-37,-3,53,1629130737.0,32.000000
-36,-3,53,1629130737.0,32.000000
-36,-3,53,1629130737.0,32.000000
-37,-3,52,1629130737.0,32.000000
-37,-3,52,1629130737.0,32.000000
-37,-3,52,1629130737.0,32.000000
-36,-4,52,1629130737.0,32.000000
-36,-3,53,1629130737.0,32.000000
-36,-3,53,1629130737.0,32.000000
-36,-3,52,1629130737.0,32.000000
-37,-3,52,1629130737.0,32.000000
-37,-3,52,1629130737.0,32.000000
-36,-4,52,1629130737.0,32.000000
-37,-3,53,1629130737.0,32.000000
-36,-3,52,1629130737.0,32.000000
-37,-3,52,1629130737.0,32.000000
-37,-3,53,1629130737.0,32.000000
-37,-3,53,1629130737.0,32.000000
-37,-3,52,1629130737.0,32.000000
-37,-3,52,1629130737.0,32.000000
-37,-3,52,1629130737.0,32.000000
-37,-3,52,1629130737.0,32.000000
-37,-3,52,1629130737.0,32.000000
-37,-3,52,1629130737.0,32.000000
-37,-3,53,1629130737.0,32.000000
-37,-3,52,1629130737.0,32.000000
-37,-3,52,1629130737.0,32.000000
-37,-3,52,1629130737.0,32.000000
-37,-3,52,1629130737.0,32.000000
-37,-3,52,1629130737.0,32.000000
-37,-3,52,1629130737.0,32.000000
-37,-3,52,1629130737.0,32.000000
-36,-4,52,1629130737.0,32.000000
-37,-3,52,1629130737.0,32.000000
-37,-3,52,1629130737.0,32.000000
-37,-3,52,1629130737.0,32.000000
-37,-3,52,1629130737.0,32.000000
-37,-3,52,1629130737.0,32.000000
-37,-3,52,1629130737.0,32.000000
-37,-3,52,1629130737.0,32.000000
-37,-3,52,1629130737.0,32.000000
-37,-3,52,1629130737.0,32.000000
-37,-3,52,1629130737.0,32.000000
-37,-3,52,1629130737.0,32.000000
-36,-3,52,1629130737.0,32.000000
-37,-3,52,1629130737.0,32.000000
-37,-3,52,1629130737.0,32.000000
-37,-3,52,1629130737.0,32.000000
-37,-3,52,1629130737.0,32.000000
-37,-3,53,1629130737.0,32.000000
-37,-3,53,1629130737.0,32.000000
-38,-3,52,1629130737.0,32.000000
-37,-3,52,1629130737.0,32.000000
-36,-3,52,1629130737.0,32.000000
-37,-3,53,1629130737.0,32.000000
-37,-3,52,1629130737.0,32.000000
-36,-3,52,1629130737.0,32.000000
-37,-3,52,1629130737.0,32.000000
-37,-3,52,1629130737.0,32.000000
-37,-3,52,1629130737.0,32.000000
-38,-3,52,1629130737.0,32.000000
-37,-3,52,1629130737.0,32.000000
-36,-3,52,1629130737.0,32.000000
-37,-3,52,1629130737.0,32.000000
-37,-3,52,1629130737.0,32.000000
-37,-3,52,1629130737.0,32.000000
-37,-4,52,1629130737.0,32.000000
-37,-3,52,1629130737.0,32.000000
-37,-3,52,1629130737.0,32.000000
-38,-3,52,1629130737.0,32.000000
-37,-3,52,1629130737.0,32.000000
-36,-3,52,1629130737.0,32.000000
-37,-3,52,1629130737.0,32.000000
-37,-3,52,1629130737.0,32.000000
-37,-3,52,1629130737.0,32.000000
-37,-3,53,1629130737.0,32.000000
-36,-3,53,1629130737.0,32.000000
-36,-3,53,1629130737.0,32.000000
-38,-3,52,1629130737.0,32.000000
-38,-3,52,1629130737.0,32.000000
-37,-3,52,1629130737.0,32.000000
-36,-3,52,1629130737.0,32.000000
-36,-3,52,1629130737.0,32.000000
-37,-3,53,1629130737.0,32.000000
-38,-3,52,1629130737.0,32.000000
-37,-3,52,1629130737.0,32.000000
-36,-3,52,1629130737.0,32.000000
-37,-3,52,1629130737.0,32.000000
-37,-3,52,1629130737.0,32.000000
-37,-3,52,1629130737.0,32.000000
-37,-3,52,1629130737.0,32.000000
-37,-3,53,1629130737.0,32.000000
-37,-3,52,1629130737.0,32.000000
-37,-3,52,1629130737.0,32.000000
-37,-3,52,1629130737.0,32.000000
-37,-3,52,1629130737.0,32.000000
-37,-3,52,1629130737.0,32.000000
-37,-3,52,1629130737.0,32.000000
-37,-3,52,1629130737.0,32.000000
-38,-3,51,1629130737.0,32.000000
-37,-4,52,1629130737.0,32.000000
-37,-3,52,1629130737.0,32.000000
-36,-3,52,1629130737.0,32.000000
-36,-3,53,1629130737.0,32.000000
-36,-4,53,1629130737.0,32.000000
-36,-4,52,1629130737.0,32.000000
-36,-3,52,1629130737.0,32.000000
-37,-3,52,1629130737.0,32.000000
-37,-3,53,1629130737.0,32.000000
-36,-3,52,1629130737.0,32.000000
-37,-3,53,1629130737.0,32.000000
-37,-3,53,1629130737.0,32.000000
-37,-3,52,1629130737.0,32.000000
-37,-3,53,1629130737.0,32.000000
-37,-3,53,1629130737.0,32.000000
-37,-3,52,1629130737.0,32.000000
-37,-3,52,1629130737.0,32.000000
-37,-3,53,1629130737.0,32.000000
-37,-3,53,1629130737.0,32.000000
-37,-3,52,1629130737.0,32.000000
-37,-3,52,1629130737.0,32.000000
-37,-3,53,1629130737.0,32.000000
-37,-3,53,1629130737.0,32.000000
-36,-3,52,1629130737.0,32.000000
-36,-3,52,1629130737.0,32.000000
-37,-3,52,1629130737.0,32.000000
-37,-3,53,1629130737.0,32.000000
-36,-3,52,1629130737.0,32.000000
-36,-3,52,1629130737.0,32.000000
-37,-3,52,1629130737.0,32.000000
-37,-3,52,1629130737.0,32.000000
-37,-3,53,1629130737.0,32.000000
-37,-3,53,1629130737.0,32.000000
-37,-4,52,1629130737.0,32.000000
-36,-3,52,1629130737.0,32.000000
-37,-3,52,1629130737.0,32.000000
-37,-3,53,1629130737.0,32.000000
-36,-3,52,1629130737.0,32.000000
-37,-4,52,1629130737.0,32.000000
-36,-3,53,1629130737.0,32.000000
-36,-3,53,1629130737.0,32.000000
-37,-3,52,1629130737.0,32.000000
-37,-3,52,1629130737.0,32.000000
-37,-3,52,1629130737.0,32.000000
-36,-3,52,1629130737.0,32.000000
-37,-3,52,1629130737.0,32.000000
-37,-3,52,1629130737.0,32.000000
-37,-3,52,1629130737.0,32.000000
-37,-3,53,1629130737.0,32.000000
-36,-3,52,1629130737.0,32.000000
-36,-4,52,1629130737.0,32.000000
-36,-3,53,1629130737.0,32.000000
-37,-3,53,1629130737.0,32.000000
-36,-3,52,1629130737.0,32.000000
-37,-3,52,1629130737.0,32.000000
-37,-3,53,1629130737.0,32.000000
-37,-3,53,1629130737.0,32.000000
-36,-3,52,1629130737.0,32.000000
-37,-3,52,1629130737.0,32.000000
-37,-3,52,1629130737.0,32.000000
-37,-3,52,1629130737.0,32.000000
-37,-3,53,1629130737.0,32.000000
-36,-3,53,1629130737.0,32.000000
-37,-3,53,1629130737.0,32.000000
-36,-3,52,1629130737.0,32.000000
-36,-3,53,1629130737.0,32.000000
-36,-3,52,1629130737.0,32.000000
-37,-3,53,1629130737.0,32.000000
-37,-3,53,1629130737.0,32.000000
-36,-3,52,1629130737.0,32.000000
-36,-3,52,1629130737.0,32.000000
-36,-3,53,1629130737.0,32.000000
-37,-3,52,1629130737.0,32.000000
-36,-3,53,1629130737.0,32.000000
-36,-3,52,1629130737.0,32.000000
-36,-4,52,1629130737.0,32.000000
-36,-4,52,1629130737.0,32.000000
-36,-4,53,1629130737.0,32.000000
-37,-2,53,1629130737.0,32.000000
-37,-2,53,1629130737.0,32.000000
-36,-4,52,1629130737.0,32.000000
-36,-4,52,1629130737.0,32.000000
-36,-3,53,1629130737.0,32.000000
-36,-4,53,1629130737.0,32.000000
-37,-4,52,1629130737.0,32.000000
-36,-3,52,1629130737.0,32.000000
-37,-3,53,1629130737.0,32.000000
-36,-3,53,1629130737.0,32.000000
-36,-3,53,1629130737.0,32.000000
-36,-3,52,1629130737.0,32.000000
-37,-3,53,1629130737.0,32.000000
-37,-3,52,1629130737.0,32.000000
-36,-3,53,1629130737.0,32.000000
-36,-3,53,1629130737.0,32.000000
-37,-3,52,1629130737.0,32.000000
-37,-3,52,1629130737.0,32.000000
-36,-4,52,1629130737.0,32.000000
-36,-3,53,1629130737.0,32.000000
-36,-3,53,1629130737.0,32.000000
-35,-4,53,1629130737.0,32.000000
-35,-4,53,1629130737.0,32.000000
-36,-3,53,1629130737.0,32.000000
-38,-3,52,1629130737.0,32.000000
-37,-3,51,1629130737.0,32.000000
-37,-3,52,1629130737.0,32.000000
-36,-3,53,1629130737.0,32.000000
-36,-3,53,1629130737.0,32.000000
-37,-3,52,1629130737.0,32.000000
-37,-3,52,1629130737.0,32.000000
-36,-3,53,1629130737.0,32.000000
-36,-3,53,1629130737.0,32.000000
-36,-3,53,1629130737.0,32.000000
-37,-3,53,1629130737.0,32.000000
-37,-3,53,1629130737.0,32.000000
-36,-3,52,1629130737.0,32.000000
-36,-3,53,1629130737.0,32.000000
-37,-3,52,1629130737.0,32.000000
-36,-3,52,1629130737.0,32.000000
-36,-3,52,1629130737.0,32.000000
-37,-3,53,1629130737.0,32.000000
-37,-3,52,1629130737.0,32.000000
-36,-3,53,1629130737.0,32.000000
-36,-3,52,1629130737.0,32.000000
-37,-3,53,1629130737.0,32.000000
-37,-3,53,1629130737.0,32.000000
-36,-3,52,1629130737.0,32.000000
-36,-3,52,1629130737.0,32.000000
-37,-3,53,1629130737.0,32.000000
-37,-3,53,1629130737.0,32.000000
-36,-3,52,1629130737.0,32.000000
-36,-3,52,1629130737.0,32.000000
-37,-3,52,1629130737.0,32.000000
-36,-3,53,1629130737.0,32.000000
-37,-3,53,1629130737.0,32.000000
-37,-3,52,1629130737.0,32.000000
-37,-3,53,1629130737.0,32.000000
-36,-3,52,1629130737.0,32.000000
-36,-3,53,1629130737.0,32.000000
-37,-3,52,1629130737.0,32.000000
-37,-3,52,1629130737.0,32.000000
-37,-3,52,1629130737.0,32.000000
-36,-3,53,1629130737.0,32.000000
-37,-3,52,1629130737.0,32.000000
-37,-3,53,1629130737.0,32.000000
-36,-3,53,1629130737.0,32.000000
-36,-3,53,1629130737.0,32.000000
-37,-3,52,1629130737.0,32.000000
-37,-3,52,1629130737.0,32.000000
-36,-3,53,1629130737.0,32.000000
-36,-3,53,1629130737.0,32.000000
-37,-3,52,1629130737.0,32.000000
-37,-3,52,1629130737.0,32.000000
-36,-3,52,1629130737.0,32.000000
-36,-3,53,1629130737.0,32.000000
-37,-3,52,1629130737.0,32.000000
-37,-3,53,1629130737.0,32.000000
-36,-3,52,1629130737.0,32.000000
-37,-3,53,1629130737.0,32.000000
-37,-3,53,1629130737.0,32.000000
-36,-3,52,1629130737.0,32.000000
-36,-3,53,1629130737.0,32.000000
-36,-3,53,1629130737.0,32.000000
-36,-3,52,1629130737.0,32.000000
-37,-3,52,1629130737.0,32.000000
-36,-3,52,1629130737.0,32.000000
-37,-3,52,1629130737.0,32.000000
-37,-3,53,1629130737.0,32.000000
-36,-3,53,1629130737.0,32.000000
-36,-3,52,1629130737.0,32.000000
-37,-3,52,1629130737.0,32.000000
-37,-2,53,1629130737.0,32.000000
-36,-3,53,1629130737.0,32.000000
-37,-3,53,1629130737.0,32.000000
-37,-3,52,1629130737.0,32.000000
-37,-3,53,1629130737.0,32.000000
-36,-3,53,1629130737.0,32.000000
-36,-3,53,1629130737.0,32.000000
-36,-3,53,1629130737.0,32.000000
-36,-3,53,1629130737.0,32.000000
-37,-3,52,1629130737.0,32.000000
-36,-3,52,1629130737.0,32.000000
-36,-3,53,1629130737.0,32.000000
-37,-3,53,1629130737.0,32.000000
-37,-2,53,1629130737.0,32.000000
-37,-3,52,1629130737.0,32.000000
-37,-3,52,1629130737.0,32.000000
-37,-3,53,1629130737.0,32.000000
-37,-2,53,1629130737.0,32.000000
-37,-3,53,1629130737.0,32.000000
-37,-3,52,1629130737.0,32.000000
-37,-2,53,1629130737.0,32.000000
-37,-3,53,1629130737.0,32.000000
-36,-3,52,1629130737.0,32.000000
-36,-3,52,1629130737.0,32.000000
-37,-3,52,1629130737.0,32.000000
-37,-3,53,1629130737.0,32.000000
-36,-3,53,1629130737.0,32.000000
-37,-3,53,1629130737.0,32.000000
-37,-3,52,1629130737.0,32.000000
-37,-3,53,1629130737.0,32.000000
-36,-3,52,1629130737.0,32.000000
-36,-3,52,1629130737.0,32.000000
-37,-3,53,1629130737.0,32.000000
-37,-3,53,1629130737.0,32.000000
-36,-3,53,1629130737.0,32.000000
-36,-3,52,1629130737.0,32.000000
-37,-3,52,1629130737.0,32.000000
-37,-3,52,1629130737.0,32.000000
-37,-2,52,1629130737.0,32.000000
-37,-3,53,1629130737.0,32.000000
-37,-3,53,1629130737.0,32.000000
-37,-2,52,1629130737.0,32.000000
-37,-3,52,1629130737.0,32.000000
-37,-3,53,1629130737.0,32.000000
-37,-3,53,1629130737.0,32.000000
-37,-3,53,1629130737.0,32.000000
-37,-3,52,1629130737.0,32.000000
-37,-2,52,1629130737.0,32.000000
-37,-3,52,1629130737.0,32.000000
-36,-2,53,1629130737.0,32.000000
-37,-3,52,1629130737.0,32.000000
-37,-3,52,1629130737.0,32.000000
-37,-2,52,1629130737.0,32.000000
-36,-3,52,1629130737.0,32.000000
-37,-3,52,1629130737.0,32.000000
-37,-2,53,1629130737.0,32.000000
-37,-3,52,1629130737.0,32.000000
-37,-3,52,1629130737.0,32.000000
-37,-2,53,1629130737.0,32.000000
-36,-3,52,1629130737.0,32.000000
-37,-3,52,1629130737.0,32.000000
-37,-3,52,1629130737.0,32.000000
-37,-2,53,1629130737.0,32.000000
-37,-2,52,1629130737.0,32.000000
-37,-3,52,1629130737.0,32.000000
-37,-3,52,1629130737.0,32.000000
-37,-3,52,1629130737.0,32.000000
-37,-3,52,1629130737.0,32.000000
-37,-3,53,1629130737.0,32.000000
-37,-3,52,1629130737.0,32.000000
-37,-3,52,1629130737.0,32.000000
-37,-3,52,1629130737.0,32.000000
-37,-2,52,1629130737.0,32.000000
-37,-2,52,1629130737.0,32.000000
-37,-3,52,1629130737.0,32.000000
-37,-3,52,1629130737.0,32.000000
-37,-2,52,1629130737.0,32.000000
-37,-2,53,1629130737.0,32.000000
-37,-3,52,1629130737.0,32.000000
-37,-3,53,1629130737.0,32.000000
-37,-3,52,1629130737.0,32.000000
-37,-3,53,1629130737.0,32.000000
-36,-3,52,1629130737.0,32.000000
-36,-3,52,1629130737.0,32.000000
-37,-3,52,1629130737.0,32.000000
-37,-3,52,1629130737.0,32.000000
-36,-3,52,1629130737.0,32.000000
-36,-3,52,1629130737.0,32.000000
-37,-2,52,1629130737.0,32.000000
-37,-2,52,1629130737.0,32.000000
-37,-3,52,1629130737.0,32.000000
-36,-3,53,1629130737.0,32.000000
-36,-3,53,1629130737.0,32.000000
-37,-3,52,1629130737.0,32.000000
-37,-3,52,1629130737.0,32.000000
-37,-3,52,1629130737.0,32.000000
-37,-3,53,1629130737.0,32.000000
-36,-3,52,1629130737.0,32.000000
-36,-3,52,1629130737.0,32.000000
-37,-2,52,1629130737.0,32.000000
-37,-3,53,1629130737.0,32.000000
-36,-3,52,1629130737.0,32.000000
-36,-2,53,1629130737.0,32.000000
-37,-3,52,1629130737.0,32.000000
-37,-3,52,1629130737.0,32.000000
-36,-3,53,1629130737.0,32.000000
-36,-3,53,1629130737.0,32.000000
-37,-3,52,1629130737.0,32.000000
-37,-2,52,1629130737.0,32.000000
-36,-3,53,1629130737.0,32.000000
-36,-3,53,1629130737.0,32.000000
-37,-3,52,1629130737.0,32.000000
-37,-3,52,1629130737.0,32.000000
-37,-3,53,1629130737.0,32.000000
-36,-3,53,1629130737.0,32.000000
-36,-3,53,1629130737.0,32.000000
-37,-3,52,1629130737.0,32.000000
-37,-3,53,1629130737.0,32.000000
-36,-3,52,1629130737.0,32.000000
-37,-3,53,1629130737.0,32.000000
-36,-3,53,1629130737.0,32.000000
-37,-3,53,1629130737.0,32.000000
-37,-3,53,1629130737.0,32.000000
-37,-2,53,1629130737.0,32.000000
-36,-3,52,1629130737.0,32.000000
-36,-3,53,1629130737.0,32.000000
-37,-2,53,1629130737.0,32.000000
-37,-3,52,1629130737.0,32.000000
-37,-3,52,1629130737.0,32.000000
-36,-2,52,1629130737.0,32.000000
-36,-3,53,1629130737.0,32.000000
-36,-3,53,1629130737.0,32.000000
-37,-3,52,1629130737.0,32.000000
-37,-3,52,1629130737.0,32.000000
-36,-3,53,1629130737.0,32.000000
-36,-3,53,1629130737.0,32.000000
-37,-3,52,1629130737.0,32.000000
-37,-3,52,1629130737.0,32.000000
-36,-3,52,1629130737.0,32.000000
-36,-3,53,1629130737.0,32.000000
-37,-3,53,1629130737.0,32.000000
-37,-3,52,1629130737.0,32.000000
-37,-2,52,1629130737.0,32.000000
-37,-2,52,1629130737.0,32.000000
-36,-2,52,1629130737.0,32.000000
-37,-3,53,1629130737.0,32.000000
-37,-3,52,1629130737.0,32.000000
-37,-2,53,1629130737.0,32.000000
-37,-2,52,1629130737.0,32.000000
-36,-2,52,1629130737.0,32.000000
-36,-2,53,1629130737.0,32.000000
-37,-3,52,1629130737.0,32.000000
-36,-3,52,1629130737.0,32.000000
-37,-2,52,1629130737.0,32.000000
-37,-2,52,1629130737.0,32.000000
-36,-2,53,1629130737.0,32.000000
-37,-3,53,1629130737.0,32.000000
-37,-3,52,1629130737.0,32.000000
-37,-2,52,1629130737.0,32.000000
-36,-3,52,1629130737.0,32.000000
-36,-3,53,1629130737.0,32.000000
-37,-2,52,1629130737.0,32.000000
-37,-3,52,1629130737.0,32.000000
-37,-3,52,1629130737.0,32.000000
-36,-3,53,1629130737.0,32.000000
-37,-3,53,1629130737.0,32.000000
-36,-2,52,1629130737.0,32.000000
-37,-3,52,1629130737.0,32.000000
-37,-3,52,1629130737.0,32.000000
-37,-3,52,1629130737.0,32.000000
-36,-3,52,1629130737.0,32.000000
-37,-2,53,1629130737.0,32.000000
-37,-2,53,1629130737.0,32.000000
-37,-3,52,1629130737.0,32.000000
-37,-3,53,1629130737.0,32.000000
-37,-2,53,1629130737.0,32.000000
-36,-2,53,1629130737.0,32.000000
-36,-3,52,1629130737.0,32.000000
-37,-3,52,1629130737.0,32.000000
-37,-2,52,1629130737.0,32.000000
-37,-3,52,1629130737.0,32.000000
-36,-2,52,1629130737.0,32.000000
-37,-3,53,1629130737.0,32.000000
-37,-2,53,1629130737.0,32.000000
-36,-3,53,1629130737.0,32.000000
-37,-3,53,1629130737.0,32.000000
-37,-3,52,1629130737.0,32.000000
-36,-3,53,1629130737.0,32.000000
-37,-3,52,1629130737.0,32.000000
-37,-3,52,1629130737.0,32.000000
-37,-2,53,1629130737.0,32.000000
-37,-3,52,1629130737.0,32.000000
-37,-2,53,1629130737.0,32.000000
-37,-3,53,1629130737.0,32.000000
-37,-3,52,1629130737.0,32.000000
-37,-3,52,1629130737.0,32.000000
-37,-2,53,1629130737.0,32.000000
-37,-2,53,1629130737.0,32.000000
-37,-3,52,1629130737.0,32.000000
-37,-3,52,1629130737.0,32.000000
-37,-3,52,1629130737.0,32.000000
-36,-3,52,1629130737.0,32.000000
-37,-3,53,1629130737.0,32.000000
-36,-2,53,1629130737.0,32.000000
-37,-1,53,1629130737.0,32.000000
-36,-2,53,1629130737.0,32.000000
-36,-2,53,1629130737.0,32.000000
-35,-3,53,1629130737.0,32.000000
-36,-3,53,1629130737.0,32.000000
-37,-4,52,1629130737.0,32.000000
-36,-3,52,1629130737.0,32.000000
-36,-2,53,1629130737.0,32.000000
-36,-2,53,1629130737.0,32.000000
-37,-3,52,1629130737.0,32.000000
-37,-3,52,1629130737.0,32.000000
-36,-3,52,1629130737.0,32.000000
-36,-3,53,1629130737.0,32.000000
-37,-3,52,1629130737.0,32.000000
-37,-3,52,1629130737.0,32.000000
-37,-3,52,1629130737.0,32.000000
-37,-2,52,1629130737.0,32.000000
-37,-2,53,1629130737.0,32.000000
-37,-2,52,1629130737.0,32.000000
-37,-2,53,1629130737.0,32.000000
-37,-2,52,1629130737.0,32.000000
-37,-2,52,1629130737.0,32.000000
-37,-2,52,1629130737.0,32.000000
-37,-2,53,1629130737.0,32.000000
-37,-2,52,1629130737.0,32.000000
-36,-3,52,1629130737.0,32.000000
-36,-2,53,1629130737.0,32.000000
-36,-2,53,1629130737.0,32.000000
-35,-3,53,1629130737.0,32.000000
-36,-3,53,1629130737.0,32.000000
-36,-3,53,1629130737.0,32.000000
-36,-2,53,1629130737.0,32.000000
-37,-3,52,1629130737.0,32.000000
-37,-2,53,1629130737.0,32.000000
-37,-2,53,1629130737.0,32.000000
-37,-2,53,1629130737.0,32.000000
-37,-3,52,1629130737.0,32.000000
-38,-2,52,1629130737.0,32.000000
-36,-2,53,1629130737.0,32.000000
-37,-3,52,1629130737.0,32.000000
-37,-3,53,1629130737.0,32.000000
-36,-3,52,1629130737.0,32.000000
-36,-3,53,1629130737.0,32.000000
-36,-2,53,1629130737.0,32.000000
-36,-2,53,1629130737.0,32.000000
-36,-3,53,1629130737.0,32.000000
-36,-3,53,1629130737.0,32.000000
-36,-3,53,1629130737.0,32.000000
-36,-3,53,1629130737.0,32.000000
-36,-2,53,1629130737.0,32.000000
-37,-2,52,1629130737.0,32.000000
-37,-3,52,1629130737.0,32.000000
-37,-3,53,1629130737.0,32.000000
-36,-2,53,1629130737.0,32.000000
-36,-2,53,1629130737.0,32.000000
-36,-3,53,1629130737.0,32.000000
-37,-3,53,1629130737.0,32.000000
-37,-2,53,1629130737.0,32.000000
-36,-2,53,1629130737.0,32.000000
-36,-2,52,1629130737.0,32.000000
-36,-3,52,1629130737.0,32.000000
-37,-2,53,1629130737.0,32.000000
-36,-2,52,1629130737.0,32.000000
-36,-2,52,1629130737.0,32.000000
-37,-3,53,1629130737.0,32.000000
-36,-2,53,1629130737.0,32.000000
-36,-3,53,1629130737.0,32.000000
-37,-3,53,1629130737.0,32.000000
-36,-3,53,1629130737.0,32.000000
-36,-3,53,1629130737.0,32.000000
-36,-3,53,1629130737.0,32.000000
-36,-3,53,1629130737.0,32.000000
-37,-3,52,1629130737.0,32.000000
-37,-3,52,1629130737.0,32.000000
-36,-3,52,1629130737.0,32.000000
-37,-2,53,1629130737.0,32.000000
-37,-2,52,1629130737.0,32.000000
-37,-3,52,1629130737.0,32.000000
-37,-3,52,1629130737.0,32.000000
-37,-2,52,1629130737.0,32.000000
-37,-2,52,1629130737.0,32.000000
-37,-3,52,1629130737.0,32.000000
-36,-2,53,1629130737.0,32.000000
-36,-2,53,1629130737.0,32.000000
-37,-2,52,1629130737.0,32.000000
-37,-2,52,1629130737.0,32.000000
-37,-2,52,1629130737.0,32.000000
-37,-3,52,1629130737.0,32.000000
-37,-2,53,1629130737.0,32.000000
-37,-2,53,1629130737.0,32.000000
-37,-3,52,1629130737.0,32.000000
-37,-3,52,1629130737.0,32.000000
-37,-2,52,1629130737.0,32.000000
-36,-2,52,1629130737.0,32.000000
-36,-2,53,1629130737.0,32.000000
-37,-2,53,1629130737.0,32.000000
-36,-2,53,1629130737.0,32.000000
-36,-2,53,1629130737.0,32.000000
-37,-3,52,1629130737.0,32.000000
-36,-3,52,1629130737.0,32.000000
-36,-3,53,1629130737.0,32.000000
-36,-2,53,1629130737.0,32.000000
-36,-3,53,1629130737.0,32.000000
-37,-3,52,1629130737.0,32.000000
-37,-3,52,1629130737.0,32.000000
-36,-2,53,1629130737.0,32.000000
-36,-3,53,1629130737.0,32.000000
-37,-3,52,1629130737.0,32.000000
-37,-2,52,1629130737.0,32.000000
-37,-3,52,1629130737.0,32.000000
-37,-3,52,1629130737.0,32.000000
-37,-2,53,1629130737.0,32.000000
-37,-2,52,1629130737.0,32.000000
-37,-2,52,1629130737.0,32.000000
-37,-2,52,1629130737.0,32.000000
-37,-2,52,1629130737.0,32.000000
-36,-2,53,1629130737.0,32.000000
-37,-2,52,1629130737.0,32.000000
-37,-2,53,1629130737.0,32.000000
-37,-2,52,1629130737.0,32.000000
-37,-3,52,1629130737.0,32.000000
-36,-2,52,1629130737.0,32.000000
-36,-2,53,1629130737.0,32.000000
-37,-3,52,1629130737.0,32.000000
-37,-2,52,1629130737.0,32.000000
-37,-2,53,1629130737.0,32.000000
-37,-3,52,1629130737.0,32.000000
-37,-3,52,1629130737.0,32.000000
-37,-2,53,1629130737.0,32.000000
-37,-2,53,1629130737.0,32.000000
-37,-3,52,1629130737.0,32.000000
-37,-3,52,1629130737.0,32.000000
-36,-3,52,1629130737.0,32.000000
-37,-2,53,1629130737.0,32.000000
-37,-2,52,1629130737.0,32.000000
-36,-2,53,1629130737.0,32.000000
-36,-3,53,1629130737.0,32.000000
-36,-3,53,1629130737.0,32.000000
-36,-3,53,1629130737.0,32.000000
-36,-3,53,1629130737.0,32.000000
-36,-3,53,1629130737.0,32.000000
-36,-3,53,1629130737.0,32.000000
-36,-3,52,1629130737.0,32.000000
-37,-3,52,1629130737.0,32.000000
-37,-3,52,1629130737.0,32.000000
-37,-2,52,1629130737.0,32.000000
-36,-2,53,1629130737.0,32.000000
-37,-3,53,1629130737.0,32.000000
-37,-3,52,1629130737.0,32.000000
-37,-3,52,1629130737.0,32.000000
-36,-3,52,1629130737.0,32.000000
-36,-2,53,1629130737.0,32.000000
-37,-2,53,1629130737.0,32.000000
-37,-2,53,1629130737.0,32.000000
-37,-2,53,1629130737.0,32.000000
-37,-3,52,1629130737.0,32.000000
-37,-3,52,1629130737.0,32.000000
-36,-2,53,1629130737.0,32.000000
-36,-2,53,1629130737.0,32.000000
-37,-2,53,1629130737.0,32.000000
-36,-2,53,1629130737.0,32.000000
-37,-3,53,1629130737.0,32.000000
-36,-3,53,1629130737.0,32.000000
-36,-3,52,1629130737.0,32.000000
-36,-3,52,1629130737.0,32.000000
-37,-3,52,1629130737.0,32.000000
-36,-3,53,1629130737.0,32.000000
-37,-3,52,1629130737.0,32.000000
-37,-3,53,1629130737.0,32.000000
-36,-3,53,1629130737.0,32.000000
-36,-3,53,1629130737.0,32.000000
-37,-3,52,1629130737.0,32.000000
-37,-3,52,1629130737.0,32.000000
-37,-3,52,1629130737.0,32.000000
-36,-3,53,1629130737.0,32.000000
-37,-3,53,1629130737.0,32.000000
-37,-3,52,1629130737.0,32.000000
-37,-3,52,1629130737.0,32.000000
-37,-2,53,1629130737.0,32.000000
-36,-2,52,1629130737.0,32.000000
-37,-2,52,1629130737.0,32.000000
-37,-3,52,1629130737.0,32.000000
-37,-3,52,1629130737.0,32.000000
-36,-3,53,1629130737.0,32.000000
-36,-2,52,1629130737.0,32.000000
-37,-3,52,1629130737.0,32.000000
-36,-3,52,1629130737.0,32.000000
-37,-2,53,1629130737.0,32.000000
-37,-3,52,1629130737.0,32.000000
-37,-2,52,1629130737.0,32.000000
-37,-2,52,1629130737.0,32.000000
-37,-3,53,1629130737.0,32.000000
-37,-3,52,1629130737.0,32.000000
-37,-3,52,1629130737.0,32.000000
-37,-3,53,1629130737.0,32.000000
-37,-2,53,1629130737.0,32.000000
-36,-3,52,1629130737.0,32.000000
-37,-3,52,1629130737.0,32.000000
-38,-3,53,1629130737.0,32.000000
-36,-2,53,1629130737.0,32.000000
-36,-2,53,1629130737.0,32.000000
-37,-2,53,1629130737.0,32.000000
-36,-2,53,1629130737.0,32.000000
-37,-3,53,1629130737.0,32.000000
-36,-3,53,1629130737.0,32.000000
-36,-3,53,1629130737.0,32.000000
-37,-3,52,1629130737.0,32.000000
-36,-3,53,1629130737.0,32.000000
-36,-3,52,1629130737.0,32.000000
-37,-3,53,1629130737.0,32.000000
-37,-3,53,1629130737.0,32.000000
-36,-2,52,1629130737.0,32.000000
-37,-3,52,1629130737.0,32.000000
-37,-2,52,1629130737.0,32.000000
-37,-3,53,1629130737.0,32.000000
-37,-2,53,1629130737.0,32.000000
-37,-3,52,1629130737.0,32.000000
-36,-3,52,1629130737.0,32.000000
-37,-3,53,1629130737.0,32.000000
-37,-3,53,1629130737.0,32.000000
-36,-3,52,1629130737.0,32.000000
-37,-2,53,1629130737.0,32.000000
-37,-2,53,1629130737.0,32.000000
-37,-3,52,1629130737.0,32.000000
-37,-2,52,1629130737.0,32.000000
-37,-3,52,1629130737.0,32.000000
-36,-3,52,1629130737.0,32.000000
-37,-3,52,1629130737.0,32.000000
-37,-3,52,1629130737.0,32.000000
-37,-3,52,1629130737.0,32.000000
-36,-3,53,1629130737.0,32.000000
-37,-3,52,1629130737.0,32.000000
-37,-3,52,1629130737.0,32.000000
-37,-2,52,1629130737.0,32.000000
-37,-2,52,1629130737.0,32.000000
-36,-2,53,1629130737.0,32.000000
-37,-2,53,1629130737.0,32.000000
-37,-3,53,1629130737.0,32.000000
-37,-3,52,1629130737.0,32.000000
-37,-3,52,1629130737.0,32.000000
-36,-3,52,1629130737.0,32.000000
-36,-3,53,1629130737.0,32.000000
-37,-2,52,1629130737.0,32.000000
-37,-2,52,1629130737.0,32.000000
-37,-2,53,1629130737.0,32.000000
-36,-2,53,1629130737.0,32.000000
-36,-3,52,1629130737.0,32.000000
-36,-3,52,1629130737.0,32.000000
-36,-3,52,1629130737.0,32.000000
-37,-3,53,1629130737.0,32.000000
-36,-2,53,1629130737.0,32.000000
-37,-3,52,1629130737.0,32.000000
-37,-3,52,1629130737.0,32.000000
-37,-2,53,1629130737.0,32.000000
-36,-3,52,1629130737.0,32.000000
-36,-3,52,1629130737.0,32.000000
-36,-3,52,1629130737.0,32.000000
-37,-3,52,1629130737.0,32.000000
-37,-3,53,1629130737.0,32.000000
-36,-3,53,1629130737.0,32.000000
-36,-3,53,1629130737.0,32.000000
-37,-3,52,1629130737.0,32.000000
-37,-2,52,1629130737.0,32.000000
-37,-3,53,1629130737.0,32.000000
-36,-2,53,1629130737.0,32.000000
-37,-3,52,1629130737.0,32.000000
-37,-2,53,1629130737.0,32.000000
-36,-3,52,1629130737.0,32.000000
-36,-3,52,1629130737.0,32.000000
-36,-3,53,1629130737.0,32.000000
-37,-3,53,1629130737.0,32.000000
-37,-3,53,1629130737.0,32.000000
-36,-3,53,1629130737.0,32.000000
-36,-3,52,1629130737.0,32.000000
-36,-2,53,1629130737.0,32.000000
-36,-2,53,1629130737.0,32.000000
-37,-3,52,1629130737.0,32.000000
-36,-3,53,1629130737.0,32.000000
-36,-2,53,1629130737.0,32.000000
-36,-3,53,1629130737.0,32.000000
-36,-3,52,1629130737.0,32.000000
-36,-3,52,1629130737.0,32.000000
-37,-3,52,1629130737.0,32.000000
-37,-2,52,1629130737.0,32.000000
-37,-3,52,1629130737.0,32.000000
-36,-2,52,1629130737.0,32.000000
-37,-2,53,1629130737.0,32.000000
-37,-3,52,1629130737.0,32.000000
-37,-3,53,1629130737.0,32.000000
-37,-3,52,1629130737.0,32.000000
-36,-2,53,1629130737.0,32.000000
-37,-2,52,1629130737.0,32.000000
-37,-3,52,1629130737.0,32.000000
-37,-2,52,1629130737.0,32.000000
-37,-3,52,1629130737.0,32.000000
-37,-3,52,1629130737.0,32.000000
-37,-2,52,1629130737.0,32.000000
-37,-2,53,1629130737.0,32.000000
-36,-3,53,1629130737.0,32.000000
-37,-2,52,1629130737.0,32.000000
-37,-2,52,1629130737.0,32.000000
-37,-2,52,1629130737.0,32.000000
-37,-3,53,1629130737.0,32.000000
-37,-2,53,1629130737.0,32.000000
-37,-3,52,1629130737.0,32.000000
-37,-2,53,1629130737.0,32.000000
-37,-2,53,1629130737.0,32.000000
-37,-2,52,1629130737.0,32.000000
-37,-3,52,1629130737.0,32.000000
-36,-2,53,1629130737.0,32.000000
-37,-3,52,1629130737.0,32.000000
-37,-3,52,1629130737.0,32.000000
-36,-2,53,1629130737.0,32.000000
-36,-2,53,1629130737.0,32.000000
-37,-2,52,1629130737.0,32.000000
-36,-3,53,1629130737.0,32.000000
-37,-3,52,1629130737.0,32.000000
-36,-2,53,1629130737.0,32.000000
-36,-2,53,1629130737.0,32.000000
-37,-3,52,1629130737.0,32.000000
-37,-3,52,1629130737.0,32.000000
-36,-3,52,1629130737.0,32.000000
-37,-3,52,1629130737.0,32.000000
-37,-2,53,1629130737.0,32.000000
-37,-3,52,1629130737.0,32.000000
-37,-3,52,1629130737.0,32.000000
-36,-3,52,1629130737.0,32.000000
-36,-3,53,1629130737.0,32.000000
-37,-2,52,1629130737.0,32.000000
-37,-3,52,1629130737.0,32.000000
-37,-2,52,1629130737.0,32.000000
-37,-2,53,1629130737.0,32.000000
-37,-3,52,1629130737.0,32.000000
-37,-3,52,1629130737.0,32.000000
-37,-2,52,1629130737.0,32.000000
-37,-2,52,1629130737.0,32.000000
-36,-3,53,1629130737.0,32.000000
-37,-2,52,1629130737.0,32.000000
-37,-3,52,1629130737.0,32.000000
-37,-3,53,1629130737.0,32.000000
-37,-2,53,1629130737.0,32.000000
-37,-2,52,1629130737.0,32.000000
-37,-3,52,1629130737.0,32.000000
-37,-2,52,1629130737.0,32.000000
-37,-2,52,1629130737.0,32.000000
-37,-3,52,1629130737.0,32.000000
-37,-3,52,1629130737.0,32.000000
-37,-3,53,1629130737.0,32.000000
-37,-2,52,1629130737.0,32.000000
-36,-3,53,1629130737.0,32.000000
-36,-2,53,1629130737.0,32.000000
-36,-3,52,1629130737.0,32.000000
-37,-2,53,1629130737.0,32.000000
-37,-2,52,1629130737.0,32.000000
-37,-2,53,1629130737.0,32.000000
-37,-3,52,1629130737.0,32.000000
-37,-3,53,1629130737.0,32.000000
-37,-3,53,1629130737.0,32.000000
-37,-2,53,1629130737.0,32.000000
-37,-2,53,1629130737.0,32.000000
-37,-3,52,1629130737.0,32.000000
-37,-3,52,1629130737.0,32.000000
-37,-2,52,1629130737.0,32.000000
-37,-3,53,1629130737.0,32.000000
-37,-3,52,1629130737.0,32.000000
-36,-3,52,1629130737.0,32.000000
-36,-3,53,1629130737.0,32.000000
-37,-3,52,1629130737.0,32.000000
-37,-3,52,1629130737.0,32.000000
-36,-2,52,1629130737.0,32.000000
-37,-2,53,1629130737.0,32.000000
-36,-2,52,1629130737.0,32.000000
-36,-2,53,1629130737.0,32.000000
-36,-2,53,1629130737.0,32.000000
-36,-3,53,1629130737.0,32.000000
-36,-3,53,1629130737.0,32.000000
-36,-3,53,1629130737.0,32.000000
-37,-3,52,1629130737.0,32.000000
-36,-3,52,1629130737.0,32.000000
-37,-2,52,1629130737.0,32.000000
-37,-2,52,1629130737.0,32.000000
-37,-2,53,1629130737.0,32.000000
-37,-3,53,1629130737.0,32.000000
-37,-3,52,1629130737.0,32.000000
-37,-3,52,1629130737.0,32.000000
-37,-2,53,1629130737.0,32.000000
-37,-2,53,1629130737.0,32.000000
-36,-2,52,1629130737.0,32.000000
-37,-3,52,1629130737.0,32.000000
-37,-3,53,1629130737.0,32.000000
-37,-2,53,1629130737.0,32.000000
-36,-2,52,1629130737.0,32.000000
-36,-2,52,1629130737.0,32.000000
-37,-2,52,1629130737.0,32.000000
-37,-3,52,1629130737.0,32.000000
-37,-3,53,1629130737.0,32.000000
-37,-3,53,1629130737.0,32.000000
-37,-3,52,1629130737.0,32.000000
-36,-2,53,1629130737.0,32.000000
-37,-2,52,1629130737.0,32.000000
-37,-2,52,1629130737.0,32.000000
-37,-3,53,1629130737.0,32.000000
-37,-2,53,1629130737.0,32.000000
-37,-3,53,1629130737.0,32.000000
-37,-3,52,1629130737.0,32.000000
-37,-2,52,1629130737.0,32.000000
-37,-2,52,1629130737.0,32.000000
-37,-2,52,1629130737.0,32.000000
-37,-2,52,1629130737.0,32.000000
-37,-3,52,1629130737.0,32.000000
-37,-2,52,1629130737.0,32.000000
-37,-3,52,1629130737.0,32.000000
-37,-3,52,1629130737.0,32.000000
-37,-2,53,1629130737.0,32.000000
-37,-2,52,1629130737.0,32.000000
-37,-2,52,1629130737.0,32.000000
-37,-2,52,1629130737.0,32.000000
-37,-2,52,1629130737.0,32.000000
-37,-2,53,1629130737.0,32.000000
-37,-3,52,1629130737.0,32.000000
-36,-3,52,1629130737.0,32.000000
-37,-2,52,1629130737.0,32.000000
-37,-2,52,1629130737.0,32.000000
-36,-2,52,1629130737.0,32.000000
-37,-3,53,1629130737.0,32.000000
-37,-3,52,1629130737.0,32.000000
-37,-3,52,1629130737.0,32.000000
-37,-3,53,1629130737.0,32.000000
-36,-2,53,1629130737.0,32.000000
-37,-2,53,1629130737.0,32.000000
-37,-2,53,1629130737.0,32.000000
-37,-3,52,1629130737.0,32.000000
-37,-2,53,1629130737.0,32.000000
-37,-2,52,1629130737.0,32.000000
-36,-3,52,1629130737.0,32.000000
-36,-2,53,1629130737.0,32.000000
-37,-3,53,1629130737.0,32.000000
-36,-3,52,1629130737.0,32.000000
-37,-2,52,1629130737.0,32.000000
-37,-2,52,1629130737.0,32.000000
-37,-2,52,1629130737.0,32.000000
-36,-3,53,1629130737.0,32.000000
-36,-3,52,1629130737.0,32.000000
-36,-3,52,1629130737.0,32.000000
-37,-3,52,1629130737.0,32.000000
-37,-2,52,1629130737.0,32.000000
-37,-3,53,1629130737.0,32.000000
-37,-3,53,1629130737.0,32.000000
-37,-2,53,1629130737.0,32.000000
-37,-2,52,1629130737.0,32.000000
-37,-3,52,1629130737.0,32.000000
-36,-3,53,1629130737.0,32.000000
-37,-2,52,1629130737.0,32.000000
-37,-2,52,1629130737.0,32.000000
-36,-3,53,1629130737.0,32.000000
-36,-3,52,1629130737.0,32.000000
-36,-3,52,1629130737.0,32.000000
-37,-2,53,1629130737.0,32.000000
-37,-2,53,1629130737.0,32.000000
-36,-3,52,1629130737.0,32.000000
-36,-3,52,1629130737.0,32.000000
-37,-2,52,1629130737.0,32.000000
-37,-3,52,1629130737.0,32.000000
-36,-2,53,1629130737.0,32.000000
-36,-2,53,1629130737.0,32.000000
-37,-2,52,1629130737.0,32.000000
-37,-2,53,1629130737.0,32.000000
-37,-3,52,1629130737.0,32.000000
-37,-2,52,1629130737.0,32.000000
-37,-2,52,1629130737.0,32.000000
-37,-2,52,1629130737.0,32.000000
-37,-2,53,1629130737.0,32.000000
-37,-2,53,1629130737.0,32.000000
-37,-2,53,1629130737.0,32.000000
-37,-2,52,1629130737.0,32.000000
-37,-2,53,1629130737.0,32.000000
-38,-2,53,1629130737.0,32.000000
-41,0,56,1629130737.0,32.000000
-44,4,58,1629130737.0,32.000000
-58,0,60,1629130737.0,32.000000
-54,-4,62,1629130737.0,32.000000
-55,-9,60,1629130737.0,32.000000
-54,-18,56,1629130737.0,32.000000
-46,-28,57,1629130737.0,32.000000
-43,-27,58,1629130737.0,32.000000
-40,-31,61,1629130737.0,32.000000
-37,-31,63,1629130737.0,32.000000
-26,-32,63,1629130737.0,32.000000
-9,-33,56,1629130737.0,32.000000
-8,-35,50,1629130737.0,32.000000
-12,-32,38,1629130737.0,32.000000
-7,-28,38,1629130737.0,32.000000
-16,-19,30,1629130737.0,32.000000
-23,-17,27,1629130737.0,32.000000
-30,-16,26,1629130737.0,32.000000
-30,-18,27,1629130737.0,32.000000
-22,-22,32,1629130737.0,32.000000
-20,-25,35,1629130737.0,32.000000
-25,-33,39,1629130737.0,32.000000
-26,-35,42,1629130737.0,32.000000
-32,-38,46,1629130737.0,32.000000
-34,-39,47,1629130737.0,32.000000
-33,-38,51,1629130737.0,32.000000
-34,-37,53,1629130737.0,32.000000
-31,-36,51,1629130737.0,32.000000
-30,-36,51,1629130737.0,32.000000
-29,-35,45,1629130737.0,32.000000
-28,-35,46,1629130737.0,32.000000
-28,-35,45,1629130737.0,32.000000
-26,-34,47,1629130737.0,32.000000
-26,-33,46,1629130737.0,32.000000
-29,-32,42,1629130737.0,32.000000
-28,-31,43,1629130737.0,32.000000
-24,-31,47,1629130737.0,32.000000
-21,-31,48,1629130737.0,32.000000
-24,-29,47,1629130737.0,32.000000
-28,-30,45,1629130737.0,32.000000
-29,-30,47,1629130737.0,32.000000
-27,-31,49,1629130737.0,32.000000
-26,-31,49,1629130737.0,32.000000
-28,-33,49,1629130737.0,32.000000
-26,-33,50,1629130737.0,32.000000
-24,-32,50,1629130737.0,32.000000
-24,-32,47,1629130737.0,32.000000
-26,-33,46,1629130737.0,32.000000
-26,-33,48,1629130737.0,32.000000
-26,-34,49,1629130737.0,32.000000
-27,-32,50,1629130737.0,32.000000
-27,-32,51,1629130737.0,32.000000
-28,-32,47,1629130737.0,32.000000
-27,-31,48,1629130737.0,32.000000
-26,-32,48,1629130737.0,32.000000
-26,-32,47,1629130737.0,32.000000
-28,-32,47,1629130737.0,32.000000
-27,-31,48,1629130737.0,32.000000
-27,-31,49,1629130737.0,32.000000
-28,-31,48,1629130737.0,32.000000
-29,-32,47,1629130737.0,32.000000
-27,-32,49,1629130737.0,32.000000
-26,-31,50,1629130737.0,32.000000
-27,-32,48,1629130737.0,32.000000
-27,-32,48,1629130737.0,32.000000
-28,-33,47,1629130737.0,32.000000
-27,-32,48,1629130737.0,32.000000
-26,-30,46,1629130737.0,32.000000
-25,-30,44,1629130737.0,32.000000
-23,-28,41,1629130737.0,32.000000
-23,-26,39,1629130737.0,32.000000
-17,-17,31,1629130737.0,32.000000
-15,-16,24,1629130737.0,32.000000
-24,-17,20,1629130737.0,32.000000
-25,-21,26,1629130737.0,32.000000
-29,-28,28,1629130737.0,32.000000
-33,-27,31,1629130737.0,32.000000
-43,-19,51,1629130737.0,32.000000
-47,-17,60,1629130737.0,32.000000
-48,-4,84,1629130737.0,32.000000
-42,-2,88,1629130737.0,32.000000
-10,-7,82,1629130737.0,32.000000
1,-6,78,1629130737.0,32.000000
4,-3,77,1629130737.0,32.000000
0,1,68,1629130737.0,32.000000
-8,5,64,1629130737.0,32.000000
-29,11,104,1629130737.0,32.000000
-41,18,66,1629130737.0,32.000000
-13,-7,58,1629130737.0,32.000000
-23,-10,53,1629130737.0,32.000000
-25,-4,57,1629130737.0,32.000000
-29,4,60,1629130737.0,32.000000
-29,3,57,1629130737.0,32.000000
-29,2,57,1629130737.0,32.000000
-33,2,55,1629130737.0,32.000000
-33,1,56,1629130737.0,32.000000
-34,1,55,1629130737.0,32.000000
-33,1,55,1629130737.0,32.000000
-33,1,55,1629130737.0,32.000000
-32,1,56,1629130737.0,32.000000
-32,2,56,1629130737.0,32.000000
-30,1,56,1629130737.0,32.000000
-29,1,57,1629130737.0,32.000000
-30,1,57,1629130737.0,32.000000
-28,1,57,1629130737.0,32.000000
-29,-1,57,1629130737.0,32.000000
-29,-1,57,1629130737.0,32.000000
-30,0,57,1629130737.0,32.000000
-29,-1,56,1629130737.0,32.000000
-29,0,57,1629130737.0,32.000000
-28,1,57,1629130737.0,32.000000
-30,3,57,1629130737.0,32.000000
-28,1,57,1629130737.0,32.000000
-29,0,57,1629130737.0,32.000000
-30,-1,57,1629130737.0,32.000000
-29,-1,57,1629130737.0,32.000000
-22,-4,57,1629130737.0,32.000000
-26,-2,58,1629130737.0,32.000000
-31,-2,56,1629130737.0,32.000000
-30,-1,56,1629130737.0,32.000000
-29,-1,57,1629130737.0,32.000000
-26,-1,58,1629130737.0,32.000000
-26,0,59,1629130737.0,32.000000
-30,0,57,1629130737.0,32.000000
-31,1,56,1629130737.0,32.000000
-30,0,57,1629130737.0,32.000000
-29,1,57,1629130737.0,32.000000
-29,1,57,1629130737.0,32.000000
-29,0,57,1629130737.0,32.000000
-29,1,57,1629130737.0,32.000000
-29,1,57,1629130737.0,32.000000
-30,1,57,1629130737.0,32.000000
-30,1,56,1629130737.0,32.000000
-29,1,57,1629130737.0,32.000000
-30,1,57,1629130737.0,32.000000
-29,1,57,1629130737.0,32.000000
-29,0,57,1629130737.0,32.000000
-30,1,57,1629130737.0,32.000000
-30,1,56,1629130737.0,32.000000
-30,1,56,1629130737.0,32.000000
-30,1,56,1629130737.0,32.000000
-30,0,56,1629130737.0,32.000000
-30,1,56,1629130737.0,32.000000
-30,1,57,1629130737.0,32.000000
-30,1,56,1629130737.0,32.000000
-30,1,57,1629130737.0,32.000000
-30,1,56,1629130737.0,32.000000
-30,1,56,1629130737.0,32.000000
-30,1,56,1629130737.0,32.000000
-30,1,57,1629130737.0,32.000000
-30,1,56,1629130737.0,32.000000
-30,1,56,1629130737.0,32.000000
-30,1,56,1629130737.0,32.000000
-29,1,57,1629130737.0,32.000000
-29,1,57,1629130737.0,32.000000
-29,1,57,1629130737.0,32.000000
-30,1,57,1629130737.0,32.000000
-30,1,56,1629130737.0,32.000000
-30,1,57,1629130737.0,32.000000
-30,1,57,1629130737.0,32.000000
-30,1,56,1629130737.0,32.000000
-30,1,56,1629130737.0,32.000000
-30,1,56,1629130737.0,32.000000
-29,1,57,1629130737.0,32.000000
-30,1,57,1629130737.0,32.000000
-30,1,57,1629130737.0,32.000000
-30,1,57,1629130737.0,32.000000
-30,1,56,1629130737.0,32.000000
-30,1,57,1629130737.0,32.000000
-30,1,56,1629130737.0,32.000000
-30,1,56,1629130737.0,32.000000
-30,1,57,1629130737.0,32.000000
-30,1,56,1629130737.0,32.000000
-30,1,56,1629130737.0,32.000000
-30,1,57,1629130737.0,32.000000
-30,1,57,1629130737.0,32.000000
-30,1,56,1629130737.0,32.000000
-30,1,56,1629130737.0,32.000000
-30,1,56,1629130737.0,32.000000
-30,1,56,1629130737.0,32.000000
-30,1,56,1629130737.0,32.000000
-30,1,56,1629130737.0,32.000000
-30,1,56,1629130737.0,32.000000
-30,1,56,1629130737.0,32.000000
-30,1,56,1629130737.0,32.000000
-30,1,56,1629130737.0,32.000000
-30,1,56,1629130737.0,32.000000
-30,1,57,1629130737.0,32.000000
-30,1,56,1629130737.0,32.000000
-30,1,56,1629130737.0,32.000000
-30,1,56,1629130737.0,32.000000
-30,1,56,1629130737.0,32.000000
-30,1,56,1629130737.0,32.000000
-30,1,56,1629130737.0,32.000000
-30,1,56,1629130737.0,32.000000
-30,1,56,1629130737.0,32.000000
-30,1,57,1629130737.0,32.000000
-30,1,56,1629130737.0,32.000000
-30,1,56,1629130737.0,32.000000
-30,1,56,1629130737.0,32.000000
-30,1,56,1629130737.0,32.000000
-30,1,56,1629130737.0,32.000000
-30,1,56,1629130737.0,32.000000
-30,1,57,1629130737.0,32.000000
-30,1,56,1629130737.0,32.000000
-30,1,57,1629130737.0,32.000000
-30,1,57,1629130737.0,32.000000
-30,1,56,1629130737.0,32.000000
-30,1,56,1629130737.0,32.000000
-30,1,56,1629130737.0,32.000000
-30,1,56,1629130737.0,32.000000
-30,1,56,1629130737.0,32.000000
-30,1,57,1629130737.0,32.000000
-30,1,57,1629130737.0,32.000000
-30,1,56,1629130737.0,32.000000
-30,1,56,1629130737.0,32.000000
-30,1,56,1629130737.0,32.000000
-30,1,56,1629130737.0,32.000000
-30,1,56,1629130737.0,32.000000
-31,1,56,1629130737.0,32.000000
-30,1,56,1629130737.0,32.000000
-30,1,56,1629130737.0,32.000000
-30,1,56,1629130737.0,32.000000
-30,1,56,1629130737.0,32.000000
-30,1,56,1629130737.0,32.000000
-30,1,56,1629130737.0,32.000000
-30,1,56,1629130737.0,32.000000
-30,1,56,1629130737.0,32.000000
-30,1,56,1629130737.0,32.000000
-30,1,56,1629130737.0,32.000000
-30,1,56,1629130737.0,32.000000
-30,1,56,1629130737.0,32.000000
-30,1,56,1629130737.0,32.000000
-30,1,56,1629130737.0,32.000000
-30,1,56,1629130737.0,32.000000
-30,1,56,1629130737.0,32.000000
-30,1,56,1629130737.0,32.000000
-30,1,56,1629130737.0,32.000000
-30,1,56,1629130737.0,32.000000
-30,1,56,1629130737.0,32.000000
-30,1,56,1629130737.0,32.000000
-30,1,56,1629130737.0,32.000000
-30,1,56,1629130737.0,32.000000
-30,1,57,1629130737.0,32.000000
-30,1,56,1629130737.0,32.000000
-30,1,56,1629130737.0,32.000000
-30,1,56,1629130737.0,32.000000
-30,1,56,1629130737.0,32.000000
-30,1,56,1629130737.0,32.000000
-30,1,56,1629130737.0,32.000000
-30,1,56,1629130737.0,32.000000
-30,1,56,1629130737.0,32.000000
-30,1,56,1629130737.0,32.000000
-30,1,56,1629130737.0,32.000000
-30,1,56,1629130737.0,32.000000
-30,1,56,1629130737.0,32.000000
-30,1,56,1629130737.0,32.000000
-30,1,56,1629130737.0,32.000000
-30,1,56,1629130737.0,32.000000
-30,1,56,1629130737.0,32.000000
-30,1,56,1629130737.0,32.000000
-30,1,56,1629130737.0,32.000000
-30,1,56,1629130737.0,32.000000
-30,1,56,1629130737.0,32.000000
-30,1,56,1629130737.0,32.000000
-30,1,56,1629130737.0,32.000000
-30,1,56,1629130737.0,32.000000
-30,1,56,1629130737.0,32.000000
-30,1,56,1629130737.0,32.000000
-30,1,56,1629130737.0,32.000000
-30,1,56,1629130737.0,32.000000
-30,1,56,1629130737.0,32.000000
-30,1,56,1629130737.0,32.000000
-30,1,56,1629130737.0,32.000000
-30,1,56,1629130737.0,32.000000
-30,1,56,1629130737.0,32.000000
-30,1,56,1629130737.0,32.000000
-30,1,56,1629130737.0,32.000000
-30,1,56,1629130737.0,32.000000
-31,1,57,1629130737.0,32.000000
-30,1,57,1629130737.0,32.000000
-30,1,56,1629130737.0,32.000000
-29,0,56,1629130737.0,32.000000
-30,1,56,1629130737.0,32.000000
-31,1,56,1629130737.0,32.000000
-30,1,57,1629130737.0,32.000000
-30,1,57,1629130737.0,32.000000
-30,0,56,1629130737.0,32.000000
-30,1,56,1629130737.0,32.000000
-30,1,57,1629130737.0,32.000000
-30,1,56,1629130737.0,32.000000
-30,1,56,1629130737.0,32.000000
-31,0,56,1629130737.0,32.000000
-31,0,56,1629130737.0,32.000000
-30,1,56,1629130737.0,32.000000
-30,1,56,1629130737.0,32.000000
-30,1,56,1629130737.0,32.000000
-30,1,56,1629130737.0,32.000000
-31,1,56,1629130737.0,32.000000
-30,1,56,1629130737.0,32.000000
-30,1,56,1629130737.0,32.000000
-30,1,56,1629130737.0,32.000000
-30,1,56,1629130737.0,32.000000
-30,1,56,1629130737.0,32.000000
-31,1,56,1629130737.0,32.000000
-30,1,56,1629130737.0,32.000000
-30,1,56,1629130737.0,32.000000
-30,1,56,1629130737.0,32.000000
-30,1,56,1629130737.0,32.000000
-30,1,56,1629130737.0,32.000000
-30,1,56,1629130737.0,32.000000
-30,1,56,1629130737.0,32.000000
-30,1,56,1629130737.0,32.000000
-31,1,56,1629130737.0,32.000000
-30,1,56,1629130737.0,32.000000
-30,1,56,1629130737.0,32.000000
-30,1,56,1629130737.0,32.000000
-30,1,56,1629130737.0,32.000000
-30,1,56,1629130737.0,32.000000
-30,1,56,1629130737.0,32.000000
-31,1,56,1629130737.0,32.000000
-30,1,56,1629130737.0,32.000000
-30,1,56,1629130737.0,32.000000
-30,1,56,1629130737.0,32.000000
-30,1,56,1629130737.0,32.000000
-30,1,56,1629130737.0,32.000000
-31,1,56,1629130737.0,32.000000
-31,1,56,1629130737.0,32.000000
-30,1,56,1629130737.0,32.000000
-30,1,56,1629130737.0,32.000000
-30,1,56,1629130737.0,32.000000
-30,1,56,1629130737.0,32.000000
-31,1,56,1629130737.0,32.000000
-30,1,56,1629130737.0,32.000000
-30,1,56,1629130737.0,32.000000
-31,1,56,1629130737.0,32.000000
-30,1,56,1629130737.0,32.000000
-30,1,56,1629130737.0,32.000000
-30,1,56,1629130737.0,32.000000
-30,1,56,1629130737.0,32.000000
-30,1,56,1629130737.0,32.000000
-30,1,56,1629130737.0,32.000000
-30,1,56,1629130737.0,32.000000
-30,1,56,1629130737.0,32.000000
-30,1,56,1629130737.0,32.000000
-30,1,56,1629130737.0,32.000000
-30,1,57,1629130737.0,32.000000
-30,1,56,1629130737.0,32.000000
-30,1,56,1629130737.0,32.000000
-30,1,56,1629130737.0,32.000000
-31,1,56,1629130737.0,32.000000
-31,1,56,1629130737.0,32.000000
-30,1,56,1629130737.0,32.000000
-30,1,56,1629130737.0,32.000000
-31,1,56,1629130737.0,32.000000
-31,1,56,1629130737.0,32.000000
-30,1,56,1629130737.0,32.000000
-30,1,56,1629130737.0,32.000000
-30,1,56,1629130737.0,32.000000
-31,1,56,1629130737.0,32.000000
-30,1,56,1629130737.0,32.000000
-30,1,56,1629130737.0,32.000000
-30,1,56,1629130737.0,32.000000
-30,1,56,1629130737.0,32.000000
-30,1,56,1629130737.0,32.000000
-30,1,56,1629130737.0,32.000000
-30,1,56,1629130737.0,32.000000
-30,1,56,1629130737.0,32.000000
-31,1,56,1629130737.0,32.000000
-30,1,56,1629130737.0,32.000000
-30,1,56,1629130737.0,32.000000
-31,1,56,1629130737.0,32.000000
-30,1,56,1629130737.0,32.000000
-30,1,56,1629130737.0,32.000000
-30,1,56,1629130737.0,32.000000
-31,1,56,1629130737.0,32.000000
-30,1,56,1629130737.0,32.000000
-30,1,56,1629130737.0,32.000000
-30,1,56,1629130737.0,32.000000
-30,1,56,1629130737.0,32.000000
-30,1,56,1629130737.0,32.000000
-30,1,56,1629130737.0,32.000000
-30,1,56,1629130737.0,32.000000
-30,1,56,1629130737.0,32.000000
-30,1,56,1629130737.0,32.000000
-30,1,56,1629130737.0,32.000000
-30,1,56,1629130737.0,32.000000
-30,1,56,1629130737.0,32.000000
-30,1,56,1629130737.0,32.000000
-30,1,56,1629130737.0,32.000000
-31,1,56,1629130737.0,32.000000
-30,1,56,1629130737.0,32.000000
-30,1,56,1629130737.0,32.000000
-31,1,56,1629130737.0,32.000000
-30,1,56,1629130737.0,32.000000
-30,1,56,1629130737.0,32.000000
-30,1,56,1629130737.0,32.000000
-30,1,56,1629130737.0,32.000000
-30,1,56,1629130737.0,32.000000
-30,1,56,1629130737.0,32.000000
-31,1,56,1629130737.0,32.000000
-30,1,56,1629130737.0,32.000000
-30,1,56,1629130737.0,32.000000
-30,1,56,1629130737.0,32.000000
-30,1,56,1629130737.0,32.000000
-30,1,56,1629130737.0,32.000000
-30,1,56,1629130737.0,32.000000
-30,1,56,1629130737.0,32.000000
-30,1,56,1629130737.0,32.000000
-31,1,56,1629130737.0,32.000000
-31,1,56,1629130737.0,32.000000
-30,1,56,1629130737.0,32.000000
-31,1,56,1629130737.0,32.000000
-31,1,56,1629130737.0,32.000000
-30,1,56,1629130737.0,32.000000
-30,1,56,1629130737.0,32.000000
-30,1,56,1629130737.0,32.000000
-31,1,56,1629130737.0,32.000000
-30,1,56,1629130737.0,32.000000
-31,1,56,1629130737.0,32.000000
-30,1,56,1629130737.0,32.000000
-30,1,56,1629130737.0,32.000000
-31,1,56,1629130737.0,32.000000
-30,1,56,1629130737.0,32.000000
-30,1,56,1629130737.0,32.000000
-31,1,56,1629130737.0,32.000000
-30,1,56,1629130737.0,32.000000
-31,1,56,1629130737.0,32.000000
-31,1,56,1629130737.0,32.000000
-31,1,56,1629130737.0,32.000000
-30,1,56,1629130737.0,32.000000
-30,1,56,1629130737.0,32.000000
-30,1,56,1629130737.0,32.000000
-30,1,56,1629130737.0,32.000000
-30,1,56,1629130737.0,32.000000
-30,1,56,1629130737.0,32.000000
-30,1,56,1629130737.0,32.000000
-30,1,56,1629130737.0,32.000000
-30,1,56,1629130737.0,32.000000
-30,1,56,1629130737.0,32.000000
-31,1,56,1629130737.0,32.000000
-30,1,56,1629130737.0,32.000000
-30,1,56,1629130737.0,32.000000
-30,1,56,1629130737.0,32.000000
-30,1,56,1629130737.0,32.000000
-30,1,56,1629130737.0,32.000000
-30,1,56,1629130737.0,32.000000
-30,1,56,1629130737.0,32.000000
-31,1,56,1629130737.0,32.000000
-30,1,56,1629130737.0,32.000000
-30,1,56,1629130737.0,32.000000
-30,1,56,1629130737.0,32.000000
-30,1,56,1629130737.0,32.000000
-30,1,56,1629130737.0,32.000000
-30,1,56,1629130737.0,32.000000
-30,1,56,1629130737.0,32.000000
-30,1,56,1629130737.0,32.000000
-30,1,56,1629130737.0,32.000000
-30,1,56,1629130737.0,32.000000
-31,1,56,1629130737.0,32.000000
-30,1,56,1629130737.0,32.000000
-30,1,56,1629130737.0,32.000000
-31,1,56,1629130737.0,32.000000
-30,1,56,1629130737.0,32.000000
-30,1,56,1629130737.0,32.000000
-30,1,56,1629130737.0,32.000000
-30,1,56,1629130737.0,32.000000
-30,1,56,1629130737.0,32.000000
-30,1,56,1629130737.0,32.000000
-31,1,56,1629130737.0,32.000000
-30,1,56,1629130737.0,32.000000
-31,1,56,1629130737.0,32.000000
-30,1,56,1629130737.0,32.000000
-30,1,56,1629130737.0,32.000000
-30,1,56,1629130737.0,32.000000
-30,1,56,1629130737.0,32.000000
-30,1,56,1629130737.0,32.000000
-31,1,56,1629130737.0,32.000000
-30,1,56,1629130737.0,32.000000
-30,1,56,1629130737.0,32.000000
-30,1,56,1629130737.0,32.000000
-30,1,56,1629130737.0,32.000000
-30,1,56,1629130737.0,32.000000
-30,1,56,1629130737.0,32.000000
-30,1,56,1629130737.0,32.000000
-30,1,56,1629130737.0,32.000000
-30,1,56,1629130737.0,32.000000
-30,1,56,1629130737.0,32.000000
-30,1,56,1629130737.0,32.000000
-30,1,56,1629130737.0,32.000000
-30,1,56,1629130737.0,32.000000
-31,1,56,1629130737.0,32.000000
-30,1,56,1629130737.0,32.000000
-31,1,56,1629130737.0,32.000000
-30,1,56,1629130737.0,32.000000
-30,1,56,1629130737.0,32.000000
-30,1,56,1629130737.0,32.000000
-30,1,56,1629130737.0,32.000000
-30,1,56,1629130737.0,32.000000
-31,1,56,1629130737.0,32.000000
-30,1,56,1629130737.0,32.000000
-30,1,56,1629130737.0,32.000000
-30,1,56,1629130737.0,32.000000
-30,1,56,1629130737.0,32.000000
-30,1,56,1629130737.0,32.000000
-31,1,56,1629130737.0,32.000000
-30,1,56,1629130737.0,32.000000
-30,1,56,1629130737.0,32.000000
-30,1,56,1629130737.0,32.000000
-30,1,56,1629130737.0,32.000000
-30,1,56,1629130737.0,32.000000
-30,1,56,1629130737.0,32.000000
-30,1,56,1629130737.0,32.000000
-31,1,56,1629130737.0,32.000000
-31,1,56,1629130737.0,32.000000
-30,1,56,1629130737.0,32.000000
-30,1,56,1629130737.0,32.000000
-30,1,56,1629130737.0,32.000000
-31,1,56,1629130737.0,32.000000
-30,1,56,1629130737.0,32.000000
-30,1,56,1629130737.0,32.000000
-31,1,56,1629130737.0,32.000000
-30,1,56,1629130737.0,32.000000
-30,1,56,1629130737.0,32.000000
-31,1,56,1629130737.0,32.000000
-30,1,56,1629130737.0,32.000000
-30,1,56,1629130737.0,32.000000
-30,1,56,1629130737.0,32.000000
-30,1,56,1629130737.0,32.000000
-30,1,56,1629130737.0,32.000000
-30,1,56,1629130737.0,32.000000
-30,1,56,1629130737.0,32.000000
-30,1,56,1629130737.0,32.000000
-31,1,56,1629130737.0,32.000000
-31,1,56,1629130737.0,32.000000
-30,1,56,1629130737.0,32.000000
-30,1,56,1629130737.0,32.000000
-31,1,56,1629130737.0,32.000000
-31,1,56,1629130737.0,32.000000
-30,1,56,1629130737.0,32.000000
-31,1,56,1629130737.0,32.000000
-30,1,56,1629130737.0,32.000000
-31,1,56,1629130737.0,32.000000
-30,1,56,1629130737.0,32.000000
-30,1,56,1629130737.0,32.000000
-30,1,56,1629130737.0,32.000000
-31,1,56,1629130737.0,32.000000
-31,1,56,1629130737.0,32.000000
-31,1,56,1629130737.0,32.000000
-30,1,56,1629130737.0,32.000000
-30,1,56,1629130737.0,32.000000
-30,1,56,1629130737.0,32.000000
-31,1,56,1629130737.0,32.000000
-31,1,56,1629130737.0,32.000000
-30,1,56,1629130737.0,32.000000
-31,1,56,1629130737.0,32.000000
-30,1,56,1629130737.0,32.000000
-30,1,56,1629130737.0,32.000000
-30,1,56,1629130737.0,32.000000
-30,1,56,1629130737.0,32.000000
-30,1,56,1629130737.0,32.000000
-30,1,56,1629130737.0,32.000000
-30,1,56,1629130737.0,32.000000
-30,1,56,1629130737.0,32.000000
-30,1,56,1629130737.0,32.000000
-31,1,56,1629130737.0,32.000000
-30,1,56,1629130737.0,32.000000
-30,1,56,1629130737.0,32.000000
-31,1,56,1629130737.0,32.000000
-30,1,56,1629130737.0,32.000000
-30,1,56,1629130737.0,32.000000
-30,1,56,1629130737.0,32.000000
-30,1,56,1629130737.0,32.000000
-30,1,56,1629130737.0,32.000000
-30,1,56,1629130737.0,32.000000
-30,1,56,1629130737.0,32.000000
-30,1,56,1629130737.0,32.000000
-30,1,56,1629130737.0,32.000000
-30,1,56,1629130737.0,32.000000
-30,1,56,1629130737.0,32.000000
-30,1,56,1629130737.0,32.000000
-30,1,56,1629130737.0,32.000000
-31,1,56,1629130737.0,32.000000
-30,1,56,1629130737.0,32.000000
-30,1,56,1629130737.0,32.000000
-30,1,56,1629130737.0,32.000000
-30,1,56,1629130737.0,32.000000
-30,1,56,1629130737.0,32.000000
-30,1,56,1629130737.0,32.000000
-30,1,56,1629130737.0,32.000000
-30,1,56,1629130737.0,32.000000
-30,1,56,1629130737.0,32.000000
-30,1,56,1629130737.0,32.000000
-31,1,56,1629130737.0,32.000000
-31,1,56,1629130737.0,32.000000
-30,1,56,1629130737.0,32.000000
-30,1,56,1629130737.0,32.000000
-31,1,56,1629130737.0,32.000000
-31,1,56,1629130737.0,32.000000
-31,1,56,1629130737.0,32.000000
-30,1,56,1629130737.0,32.000000
-31,1,56,1629130737.0,32.000000
-30,1,56,1629130737.0,32.000000
-30,1,56,1629130737.0,32.000000
-30,1,56,1629130737.0,32.000000
-30,1,56,1629130737.0,32.000000
-30,1,56,1629130737.0,32.000000
-30,1,56,1629130737.0,32.000000
-30,1,56,1629130737.0,32.000000
-30,1,56,1629130737.0,32.000000
-30,1,56,1629130737.0,32.000000
-31,1,56,1629130737.0,32.000000
-30,1,56,1629130737.0,32.000000
-30,1,56,1629130737.0,32.000000
-31,1,56,1629130737.0,32.000000
-31,1,56,1629130737.0,32.000000
-30,1,56,1629130737.0,32.000000
-30,1,56,1629130737.0,32.000000
-30,1,56,1629130737.0,32.000000
-31,1,56,1629130737.0,32.000000
-30,1,56,1629130737.0,32.000000
-30,1,56,1629130737.0,32.000000
-30,1,56,1629130737.0,32.000000
-30,1,56,1629130737.0,32.000000
-31,1,56,1629130737.0,32.000000
-30,1,56,1629130737.0,32.000000
-31,1,56,1629130737.0,32.000000
-31,1,56,1629130737.0,32.000000
-30,1,56,1629130737.0,32.000000
-30,1,56,1629130737.0,32.000000
-31,1,56,1629130737.0,32.000000
-30,1,56,1629130737.0,32.000000
-30,1,56,1629130737.0,32.000000
-30,1,56,1629130737.0,32.000000
-31,1,56,1629130737.0,32.000000
-30,1,56,1629130737.0,32.000000
-30,1,56,1629130737.0,32.000000
-30,1,56,1629130737.0,32.000000
-30,1,56,1629130737.0,32.000000
-30,1,56,1629130737.0,32.000000
-30,1,56,1629130737.0,32.000000
-30,1,56,1629130737.0,32.000000
-31,1,56,1629130737.0,32.000000
-30,1,56,1629130737.0,32.000000
-30,1,56,1629130737.0,32.000000
-30,1,56,1629130737.0,32.000000
-30,1,56,1629130737.0,32.000000
-31,1,56,1629130737.0,32.000000
-30,1,56,1629130737.0,32.000000
-30,1,56,1629130737.0,32.000000
-30,1,56,1629130737.0,32.000000
-30,1,56,1629130737.0,32.000000
-30,1,56,1629130737.0,32.000000
-30,1,56,1629130737.0,32.000000
-30,1,56,1629130737.0,32.000000
-30,1,56,1629130737.0,32.000000
-30,1,56,1629130737.0,32.000000
-30,1,56,1629130737.0,32.000000
-30,1,56,1629130737.0,32.000000
-30,1,56,1629130737.0,32.000000
-30,1,56,1629130737.0,32.000000
-30,1,57,1629130737.0,32.000000
-30,1,56,1629130737.0,32.000000
-30,1,57,1629130737.0,32.000000
-30,1,56,1629130737.0,32.000000
-30,0,56,1629130737.0,32.000000
-30,1,56,1629130737.0,32.000000
-30,1,56,1629130737.0,32.000000
-31,1,56,1629130737.0,32.000000
-31,1,56,1629130737.0,32.000000
-31,1,56,1629130737.0,32.000000
-31,1,56,1629130737.0,32.000000
-31,1,56,1629130737.0,32.000000
-31,1,55,1629130737.0,32.000000
-31,1,56,1629130737.0,32.000000
-31,1,56,1629130737.0,32.000000
-31,1,56,1629130737.0,32.000000
-31,1,56,1629130737.0,32.000000
-30,1,56,1629130737.0,32.000000
-31,1,56,1629130737.0,32.000000
-30,1,57,1629130737.0,32.000000
-30,1,56,1629130737.0,32.000000
-31,1,56,1629130737.0,32.000000
-31,1,56,1629130737.0,32.000000
-31,1,56,1629130737.0,32.000000
-31,1,56,1629130737.0,32.000000
-31,1,56,1629130737.0,32.000000
-31,1,56,1629130737.0,32.000000
-31,1,56,1629130737.0,32.000000
-30,1,56,1629130737.0,32.000000
-30,1,56,1629130737.0,32.000000
-30,1,56,1629130737.0,32.000000
-30,1,56,1629130737.0,32.000000
-30,1,56,1629130737.0,32.000000
-30,1,56,1629130737.0,32.000000
-30,1,57,1629130737.0,32.000000
-30,1,56,1629130737.0,32.000000
-30,1,56,1629130737.0,32.000000
-30,1,56,1629130737.0,32.000000
-31,1,56,1629130737.0,32.000000
-31,1,56,1629130737.0,32.000000
-30,0,56,1629130737.0,32.000000
-30,0,56,1629130737.0,32.000000
-31,1,56,1629130737.0,32.000000
-28,1,58,1629130737.0,32.000000
-31,0,56,1629130737.0,32.000000
-31,1,56,1629130737.0,32.000000
-31,1,56,1629130737.0,32.000000
-30,1,56,1629130737.0,32.000000
-30,1,56,1629130737.0,32.000000
-30,1,56,1629130737.0,32.000000
-30,1,56,1629130737.0,32.000000
-30,1,56,1629130737.0,32.000000
-30,1,56,1629130737.0,32.000000
-31,1,56,1629130737.0,32.000000
-30,1,56,1629130737.0,32.000000
-30,1,56,1629130737.0,32.000000
-30,1,56,1629130737.0,32.000000
-30,1,56,1629130737.0,32.000000
-30,1,56,1629130737.0,32.000000
-30,1,56,1629130737.0,32.000000
-30,1,57,1629130737.0,32.000000
-30,1,56,1629130737.0,32.000000
-31,1,56,1629130737.0,32.000000
-30,1,56,1629130737.0,32.000000
-30,1,56,1629130737.0,32.000000
-31,1,56,1629130737.0,32.000000
-30,1,56,1629130737.0,32.000000
-30,1,56,1629130737.0,32.000000
-30,1,56,1629130737.0,32.000000
-30,1,57,1629130737.0,32.000000
-30,1,56,1629130737.0,32.000000
-30,1,56,1629130737.0,32.000000
-30,1,56,1629130737.0,32.000000
-30,1,56,1629130737.0,32.000000
-30,1,56,1629130737.0,32.000000
-30,1,56,1629130737.0,32.000000
-30,1,56,1629130737.0,32.000000
-30,1,56,1629130737.0,32.000000
-30,1,57,1629130737.0,32.000000
-30,1,56,1629130737.0,32.000000
-30,1,56,1629130737.0,32.000000
-30,1,56,1629130737.0,32.000000
-30,1,56,1629130737.0,32.000000
-30,1,56,1629130737.0,32.000000
-30,1,56,1629130737.0,32.000000
-30,1,56,1629130737.0,32.000000
-30,1,56,1629130737.0,32.000000
-30,1,56,1629130737.0,32.000000
-30,1,57,1629130737.0,32.000000
-30,1,57,1629130737.0,32.000000
-30,1,56,1629130737.0,32.000000
-30,1,56,1629130737.0,32.000000
-30,1,56,1629130737.0,32.000000
-30,1,56,1629130737.0,32.000000
-30,1,56,1629130737.0,32.000000
-30,1,56,1629130737.0,32.000000
-30,1,56,1629130737.0,32.000000
-30,1,56,1629130737.0,32.000000
-30,1,57,1629130737.0,32.000000
-30,1,57,1629130737.0,32.000000
-30,1,56,1629130737.0,32.000000
-30,1,56,1629130737.0,32.000000
-30,1,56,1629130737.0,32.000000
-30,1,57,1629130737.0,32.000000
-30,1,57,1629130737.0,32.000000
-30,1,56,1629130737.0,32.000000
-30,1,56,1629130737.0,32.000000
-30,1,56,1629130737.0,32.000000
-30,1,56,1629130737.0,32.000000
-30,1,56,1629130737.0,32.000000
-30,1,56,1629130737.0,32.000000
-30,1,56,1629130737.0,32.000000
-30,1,56,1629130737.0,32.000000
-30,1,56,1629130737.0,32.000000
-30,1,56,1629130737.0,32.000000
-30,1,56,1629130737.0,32.000000
-30,1,56,1629130737.0,32.000000
-30,1,56,1629130737.0,32.000000
-30,1,57,1629130737.0,32.000000
-30,1,57,1629130737.0,32.000000
-30,1,57,1629130737.0,32.000000
-30,1,56,1629130737.0,32.000000
-30,1,56,1629130737.0,32.000000
-30,1,56,1629130737.0,32.000000
-30,1,56,1629130737.0,32.000000
-30,1,57,1629130737.0,32.000000
-30,1,56,1629130737.0,32.000000
-30,1,56,1629130737.0,32.000000
-30,1,56,1629130737.0,32.000000
-30,1,56,1629130737.0,32.000000
-30,1,56,1629130737.0,32.000000
-30,1,57,1629130737.0,32.000000
-30,1,57,1629130737.0,32.000000
-30,1,56,1629130737.0,32.000000
-30,1,56,1629130737.0,32.000000
-30,1,56,1629130737.0,32.000000
-30,1,56,1629130737.0,32.000000
-30,1,57,1629130737.0,32.000000
-30,1,56,1629130737.0,32.000000
-30,1,56,1629130737.0,32.000000
-30,1,56,1629130737.0,32.000000
-30,1,56,1629130737.0,32.000000
-30,1,57,1629130737.0,32.000000
-30,1,56,1629130737.0,32.000000
-30,1,56,1629130737.0,32.000000
-30,1,56,1629130737.0,32.000000
-30,1,56,1629130737.0,32.000000
-30,1,56,1629130737.0,32.000000
-30,1,56,1629130737.0,32.000000
-30,1,56,1629130737.0,32.000000
-30,1,56,1629130737.0,32.000000
-30,1,56,1629130737.0,32.000000
-30,1,56,1629130737.0,32.000000
-30,1,56,1629130737.0,32.000000
-30,1,56,1629130737.0,32.000000
-30,1,56,1629130737.0,32.000000
-30,1,57,1629130737.0,32.000000
-30,1,56,1629130737.0,32.000000
-30,1,56,1629130737.0,32.000000
-30,1,57,1629130737.0,32.000000
-30,1,56,1629130737.0,32.000000
-30,1,56,1629130737.0,32.000000
-30,1,56,1629130737.0,32.000000
-30,1,56,1629130737.0,32.000000
-30,1,56,1629130737.0,32.000000
-30,1,56,1629130737.0,32.000000
-30,1,56,1629130737.0,32.000000
-30,1,56,1629130737.0,32.000000
-30,1,56,1629130737.0,32.000000
-30,1,56,1629130737.0,32.000000
-30,1,56,1629130737.0,32.000000
-30,1,56,1629130737.0,32.000000
-30,1,56,1629130737.0,32.000000
-30,1,56,1629130737.0,32.000000
-30,1,57,1629130737.0,32.000000
-30,1,56,1629130737.0,32.000000
-30,1,56,1629130737.0,32.000000
-30,1,56,1629130737.0,32.000000
-30,1,56,1629130737.0,32.000000
-30,1,57,1629130737.0,32.000000
-30,1,56,1629130737.0,32.000000
-30,1,56,1629130737.0,32.000000
-30,1,56,1629130737.0,32.000000
-30,1,56,1629130737.0,32.000000
-30,1,56,1629130737.0,32.000000
-30,1,56,1629130737.0,32.000000
-30,0,56,1629130737.0,32.000000
-30,0,56,1629130737.0,32.000000
-30,1,56,1629130737.0,32.000000
-30,1,56,1629130737.0,32.000000
-30,1,56,1629130737.0,32.000000
-30,1,56,1629130737.0,32.000000
-30,1,56,1629130737.0,32.000000
-30,1,56,1629130737.0,32.000000
-30,1,57,1629130737.0,32.000000
-30,1,57,1629130737.0,32.000000
-30,0,57,1629130737.0,32.000000
-29,1,56,1629130737.0,32.000000
-30,1,57,1629130737.0,32.000000
-30,1,56,1629130737.0,32.000000
-30,1,56,1629130737.0,32.000000
-30,1,56,1629130737.0,32.000000
-30,1,56,1629130737.0,32.000000
-30,1,56,1629130737.0,32.000000
-30,1,56,1629130737.0,32.000000
-30,1,56,1629130737.0,32.000000
-30,1,57,1629130737.0,32.000000
-30,1,56,1629130737.0,32.000000
-30,1,56,1629130737.0,32.000000
-30,1,56,1629130737.0,32.000000
-30,1,56,1629130737.0,32.000000
-30,1,56,1629130737.0,32.000000
-30,1,56,1629130737.0,32.000000
-30,1,56,1629130737.0,32.000000
-30,1,56,1629130737.0,32.000000
-30,1,56,1629130737.0,32.000000
-30,1,56,1629130737.0,32.000000
-30,0,56,1629130737.0,32.000000
-30,1,56,1629130737.0,32.000000
-30,1,56,1629130737.0,32.000000
-30,1,56,1629130737.0,32.000000
-30,0,56,1629130737.0,32.000000
-30,1,56,1629130737.0,32.000000
-30,1,56,1629130737.0,32.000000
-30,1,56,1629130737.0,32.000000
-30,1,56,1629130737.0,32.000000
-30,1,56,1629130737.0,32.000000
-30,1,56,1629130737.0,32.000000
-30,1,56,1629130737.0,32.000000
-30,1,56,1629130737.0,32.000000
-30,1,56,1629130737.0,32.000000
-30,1,56,1629130737.0,32.000000
-30,1,56,1629130737.0,32.000000
-30,1,56,1629130737.0,32.000000
-30,1,56,1629130737.0,32.000000
-30,1,56,1629130737.0,32.000000
-30,1,56,1629130737.0,32.000000
-30,1,56,1629130737.0,32.000000
-30,1,56,1629130737.0,32.000000
-30,1,56,1629130737.0,32.000000
-30,1,56,1629130737.0,32.000000
-30,1,56,1629130737.0,32.000000
-30,1,56,1629130737.0,32.000000
-30,1,56,1629130737.0,32.000000
-30,1,56,1629130737.0,32.000000
-30,1,57,1629130737.0,32.000000
-30,0,56,1629130737.0,32.000000
-30,1,57,1629130737.0,32.000000
-30,0,56,1629130737.0,32.000000
-29,0,57,1629130737.0,32.000000
-31,1,56,1629130737.0,32.000000
-30,0,56,1629130737.0,32.000000
-30,1,57,1629130737.0,32.000000
-30,1,56,1629130737.0,32.000000
-30,0,56,1629130737.0,32.000000
-31,1,56,1629130737.0,32.000000
-30,1,57,1629130737.0,32.000000
-29,1,57,1629130737.0,32.000000
-30,0,56,1629130737.0,32.000000
-30,1,57,1629130737.0,32.000000
-30,0,56,1629130737.0,32.000000
-31,0,56,1629130737.0,32.000000
-30,1,56,1629130737.0,32.000000
-29,1,57,1629130737.0,32.000000
-31,0,56,1629130737.0,32.000000
-30,0,56,1629130737.0,32.000000
-30,0,56,1629130737.0,32.000000
-31,0,55,1629130737.0,32.000000
-30,1,57,1629130737.0,32.000000
-32,0,56,1629130737.0,32.000000
-31,0,56,1629130737.0,32.000000
-30,0,56,1629130737.0,32.000000
-30,0,57,1629130737.0,32.000000
-30,0,56,1629130737.0,32.000000
-34,0,54,1629130737.0,32.000000
-29,0,57,1629130737.0,32.000000
-31,1,57,1629130737.0,32.000000
-25,1,58,1629130737.0,32.000000
-27,1,57,1629130737.0,32.000000
-28,1,57,1629130737.0,32.000000
-33,1,55,1629130737.0,32.000000
-31,1,55,1629130737.0,32.000000
-31,1,56,1629130737.0,32.000000
-28,1,57,1629130737.0,32.000000
-28,1,58,1629130737.0,32.000000
-29,1,57,1629130737.0,32.000000
-33,0,54,1629130737.0,32.000000
-29,1,57,1629130737.0,32.000000
-28,1,57,1629130737.0,32.000000
-29,1,57,1629130737.0,32.000000
-29,1,57,1629130737.0,32.000000
-30,1,56,1629130737.0,32.000000
-30,1,57,1629130737.0,32.000000
-29,1,57,1629130737.0,32.000000
-29,1,57,1629130737.0,32.000000
-29,1,57,1629130737.0,32.000000
-29,1,57,1629130737.0,32.000000
-29,1,57,1629130737.0,32.000000
-30,0,56,1629130737.0,32.000000
-31,1,56,1629130737.0,32.000000
-30,1,56,1629130737.0,32.000000
-29,1,57,1629130737.0,32.000000
-30,1,57,1629130737.0,32.000000
-31,0,56,1629130737.0,32.000000
-31,1,56,1629130737.0,32.000000
-29,1,57,1629130737.0,32.000000
-29,1,57,1629130737.0,32.000000
-31,1,56,1629130737.0,32.000000
-31,1,56,1629130737.0,32.000000
-30,1,56,1629130737.0,32.000000
-30,1,56,1629130737.0,32.000000
-30,1,56,1629130737.0,32.000000
-31,1,56,1629130737.0,32.000000
-30,1,57,1629130737.0,32.000000
-30,1,56,1629130737.0,32.000000
-30,1,57,1629130737.0,32.000000
-30,1,56,1629130737.0,32.000000
-30,1,56,1629130737.0,32.000000
-30,1,56,1629130737.0,32.000000
-31,1,56,1629130737.0,32.000000
-31,1,56,1629130737.0,32.000000
-30,1,56,1629130737.0,32.000000
-30,1,56,1629130737.0,32.000000
-30,1,56,1629130737.0,32.000000
-30,1,57,1629130737.0,32.000000
-30,1,56,1629130737.0,32.000000
-30,1,56,1629130737.0,32.000000
-30,1,56,1629130737.0,32.000000
-30,1,56,1629130737.0,32.000000
-30,1,56,1629130737.0,32.000000
-30,1,56,1629130737.0,32.000000
-30,1,56,1629130737.0,32.000000
-30,1,56,1629130737.0,32.000000
-30,1,56,1629130737.0,32.000000
-30,1,56,1629130737.0,32.000000
-30,1,56,1629130737.0,32.000000
-31,1,56,1629130737.0,32.000000
-30,1,56,1629130737.0,32.000000
-30,1,56,1629130737.0,32.000000
-30,1,56,1629130737.0,32.000000
-30,1,56,1629130737.0,32.000000
-30,1,56,1629130737.0,32.000000
-30,1,56,1629130737.0,32.000000
-30,1,56,1629130737.0,32.000000
-30,1,56,1629130737.0,32.000000
-30,1,56,1629130737.0,32.000000
-30,1,56,1629130737.0,32.000000
-30,1,56,1629130737.0,32.000000
-30,1,56,1629130737.0,32.000000
-30,1,56,1629130737.0,32.000000
-30,1,56,1629130737.0,32.000000
-30,1,56,1629130737.0,32.000000
-30,1,56,1629130737.0,32.000000
-31,1,56,1629130737.0,32.000000
-31,1,56,1629130737.0,32.000000
-30,1,56,1629130737.0,32.000000
-30,1,56,1629130737.0,32.000000
-30,1,56,1629130737.0,32.000000
-30,1,56,1629130737.0,32.000000
-30,1,56,1629130737.0,32.000000
-31,1,56,1629130737.0,32.000000
-30,1,56,1629130737.0,32.000000
-30,1,56,1629130737.0,32.000000
-30,0,56,1629130737.0,32.000000
-30,1,56,1629130737.0,32.000000
-30,1,56,1629130737.0,32.000000
-31,1,56,1629130737.0,32.000000
-30,1,56,1629130737.0,32.000000
-30,0,56,1629130737.0,32.000000
-30,1,57,1629130737.0,32.000000
-30,0,56,1629130737.0,32.000000
-30,1,56,1629130737.0,32.000000
-30,0,56,1629130737.0,32.000000
-30,1,56,1629130737.0,32.000000
-30,1,56,1629130737.0,32.000000
-30,1,56,1629130737.0,32.000000
-30,1,57,1629130737.0,32.000000
-31,0,55,1629130737.0,32.000000
-31,0,56,1629130737.0,32.000000
-30,1,56,1629130737.0,32.000000
-30,1,56,1629130737.0,32.000000
-31,1,56,1629130737.0,32.000000
