ACC_X,ACC_Y,ACC_Z,start_time_unix,sampling_rate
-50,7,43,1629130737.0,32.000000
-50,7,43,1629130737.0,32.000000
-50,7,43,1629130737.0,32.000000
-50,7,43,1629130737.0,32.000000
-50,7,43,1629130737.0,32.000000
-50,7,42,1629130737.0,32.000000
-50,7,43,1629130737.0,32.000000
-50,7,43,1629130737.0,32.000000
-50,7,43,1629130737.0,32.000000
-50,7,42,1629130737.0,32.000000
-50,7,42,1629130737.0,32.000000
-50,7,43,1629130737.0,32.000000
-49,7,43,1629130737.0,32.000000
-50,7,43,1629130737.0,32.000000
-50,7,42,1629130737.0,32.000000
-50,7,43,1629130737.0,32.000000
-50,7,42,1629130737.0,32.000000
-50,7,42,1629130737.0,32.000000
-50,7,42,1629130737.0,32.000000
-50,7,43,1629130737.0,32.000000
-50,7,42,1629130737.0,32.000000
-50,7,43,1629130737.0,32.000000
-50,7,43,1629130737.0,32.000000
-50,7,42,1629130737.0,32.000000
-50,7,43,1629130737.0,32.000000
-50,7,42,1629130737.0,32.000000
-50,7,43,1629130737.0,32.000000
-49,7,43,1629130737.0,32.000000
-50,7,43,1629130737.0,32.000000
-50,7,43,1629130737.0,32.000000
-50,7,42,1629130737.0,32.000000
-50,7,42,1629130737.0,32.000000
-50,7,43,1629130737.0,32.000000
-50,7,42,1629130737.0,32.000000
-50,7,43,1629130737.0,32.000000
-50,7,43,1629130737.0,32.000000
-50,7,42,1629130737.0,32.000000
-50,7,43,1629130737.0,32.000000
-50,7,42,1629130737.0,32.000000
-50,7,42,1629130737.0,32.000000
-50,7,42,1629130737.0,32.000000
-50,7,42,1629130737.0,32.000000
-50,7,42,1629130737.0,32.000000
-50,7,42,1629130737.0,32.000000
-50,7,42,1629130737.0,32.000000
-50,7,42,1629130737.0,32.000000
-50,7,43,1629130737.0,32.000000
-50,7,43,1629130737.0,32.000000
-50,7,42,1629130737.0,32.000000
-50,7,43,1629130737.0,32.000000
-50,7,43,1629130737.0,32.000000
-50,7,42,1629130737.0,32.000000
-50,7,42,1629130737.0,32.000000
-50,7,42,1629130737.0,32.000000
-50,7,42,1629130737.0,32.000000
-50,7,42,1629130737.0,32.000000
-50,7,42,1629130737.0,32.000000
-50,7,43,1629130737.0,32.000000
-50,7,43,1629130737.0,32.000000
-50,7,43,1629130737.0,32.000000
-50,7,42,1629130737.0,32.000000
-50,7,43,1629130737.0,32.000000
-50,7,42,1629130737.0,32.000000
-50,7,42,1629130737.0,32.000000
-50,7,42,1629130737.0,32.000000
-50,7,43,1629130737.0,32.000000
-50,7,42,1629130737.0,32.000000
-50,7,42,1629130737.0,32.000000
-50,7,42,1629130737.0,32.000000
-50,7,43,1629130737.0,32.000000
-50,7,42,1629130737.0,32.000000
-50,7,42,1629130737.0,32.000000
-50,7,42,1629130737.0,32.000000
-50,7,42,1629130737.0,32.000000
-50,7,42,1629130737.0,32.000000
-50,7,42,1629130737.0,32.000000
-50,7,42,1629130737.0,32.000000
-50,7,42,1629130737.0,32.000000
-50,7,43,1629130737.0,32.000000
-50,7,42,1629130737.0,32.000000
-50,7,42,1629130737.0,32.000000
-50,7,42,1629130737.0,32.000000
-50,7,43,1629130737.0,32.000000
-50,7,43,1629130737.0,32.000000
-50,7,42,1629130737.0,32.000000
-50,7,42,1629130737.0,32.000000
-50,7,42,1629130737.0,32.000000
-50,7,42,1629130737.0,32.000000
-50,7,43,1629130737.0,32.000000
-50,7,43,1629130737.0,32.000000
-50,7,42,1629130737.0,32.000000
-50,7,42,1629130737.0,32.000000
-50,7,43,1629130737.0,32.000000
-50,7,43,1629130737.0,32.000000
-50,7,43,1629130737.0,32.000000
-50,7,42,1629130737.0,32.000000
-50,7,42,1629130737.0,32.000000
-50,7,43,1629130737.0,32.000000
-50,7,42,1629130737.0,32.000000
-50,7,43,1629130737.0,32.000000
-50,7,42,1629130737.0,32.000000
-50,7,42,1629130737.0,32.000000
-50,7,43,1629130737.0,32.000000
-50,7,42,1629130737.0,32.000000
-50,7,42,1629130737.0,32.000000
-50,7,42,1629130737.0,32.000000
-50,7,43,1629130737.0,32.000000
-50,7,43,1629130737.0,32.000000
-50,7,42,1629130737.0,32.000000
-50,7,43,1629130737.0,32.000000
-50,7,43,1629130737.0,32.000000
-50,7,43,1629130737.0,32.000000
-50,7,42,1629130737.0,32.000000
-50,7,42,1629130737.0,32.000000
-50,7,43,1629130737.0,32.000000
-50,7,42,1629130737.0,32.000000
-50,7,43,1629130737.0,32.000000
-50,7,42,1629130737.0,32.000000
-50,7,42,1629130737.0,32.000000
-50,7,43,1629130737.0,32.000000
-50,7,43,1629130737.0,32.000000
-50,7,43,1629130737.0,32.000000
-50,7,42,1629130737.0,32.000000
-50,7,43,1629130737.0,32.000000
-50,7,42,1629130737.0,32.000000
-50,7,43,1629130737.0,32.000000
-50,7,43,1629130737.0,32.000000
-50,7,43,1629130737.0,32.000000
-50,7,43,1629130737.0,32.000000
-49,7,43,1629130737.0,32.000000
-50,7,42,1629130737.0,32.000000
-50,7,43,1629130737.0,32.000000
-50,7,42,1629130737.0,32.000000
-50,7,43,1629130737.0,32.000000
-50,7,43,1629130737.0,32.000000
-50,7,43,1629130737.0,32.000000
-50,7,43,1629130737.0,32.000000
-50,7,43,1629130737.0,32.000000
-50,7,43,1629130737.0,32.000000
-50,7,43,1629130737.0,32.000000
-50,7,42,1629130737.0,32.000000
-50,7,43,1629130737.0,32.000000
-50,7,43,1629130737.0,32.000000
-50,7,42,1629130737.0,32.000000
-50,7,42,1629130737.0,32.000000
-50,7,42,1629130737.0,32.000000
-50,7,42,1629130737.0,32.000000
-50,7,43,1629130737.0,32.000000
-50,7,43,1629130737.0,32.000000
-50,7,42,1629130737.0,32.000000
-50,7,42,1629130737.0,32.000000
-50,7,42,1629130737.0,32.000000
-50,7,43,1629130737.0,32.000000
-50,7,42,1629130737.0,32.000000
-50,7,43,1629130737.0,32.000000
-50,7,42,1629130737.0,32.000000
-50,7,42,1629130737.0,32.000000
-50,7,42,1629130737.0,32.000000
-50,7,43,1629130737.0,32.000000
-50,7,42,1629130737.0,32.000000
-49,7,43,1629130737.0,32.000000
-50,7,43,1629130737.0,32.000000
-50,7,43,1629130737.0,32.000000
-50,7,43,1629130737.0,32.000000
-50,7,42,1629130737.0,32.000000
-50,7,42,1629130737.0,32.000000
-50,7,42,1629130737.0,32.000000
-50,7,43,1629130737.0,32.000000
-50,7,43,1629130737.0,32.000000
-51,6,42,1629130737.0,32.000000
-51,7,44,1629130737.0,32.000000
-48,8,43,1629130737.0,32.000000
-49,7,44,1629130737.0,32.000000
-50,7,42,1629130737.0,32.000000
-50,7,43,1629130737.0,32.000000
-49,7,43,1629130737.0,32.000000
-50,7,43,1629130737.0,32.000000
-49,7,43,1629130737.0,32.000000
-50,7,43,1629130737.0,32.000000
-50,7,43,1629130737.0,32.000000
-50,7,43,1629130737.0,32.000000
-49,7,43,1629130737.0,32.000000
-49,7,43,1629130737.0,32.000000
-52,8,42,1629130737.0,32.000000
-50,6,45,1629130737.0,32.000000
-49,8,42,1629130737.0,32.000000
-50,7,42,1629130737.0,32.000000
-50,7,43,1629130737.0,32.000000
-49,7,43,1629130737.0,32.000000
-50,7,43,1629130737.0,32.000000
-49,7,43,1629130737.0,32.000000
-50,7,42,1629130737.0,32.000000
-51,7,42,1629130737.0,32.000000
-49,7,43,1629130737.0,32.000000
-49,7,43,1629130737.0,32.000000
-50,7,43,1629130737.0,32.000000
-49,7,43,1629130737.0,32.000000
-50,7,43,1629130737.0,32.000000
-49,7,42,1629130737.0,32.000000
-50,7,43,1629130737.0,32.000000
-49,7,43,1629130737.0,32.000000
-50,7,43,1629130737.0,32.000000
-51,7,43,1629130737.0,32.000000
-49,7,43,1629130737.0,32.000000
-49,7,43,1629130737.0,32.000000
-49,7,43,1629130737.0,32.000000
-50,7,43,1629130737.0,32.000000
-50,7,43,1629130737.0,32.000000
-50,7,43,1629130737.0,32.000000
-50,6,43,1629130737.0,32.000000
-50,7,43,1629130737.0,32.000000
-50,7,43,1629130737.0,32.000000
-50,7,43,1629130737.0,32.000000
-49,7,42,1629130737.0,32.000000
-49,7,43,1629130737.0,32.000000
-50,7,43,1629130737.0,32.000000
-49,7,43,1629130737.0,32.000000
-49,7,43,1629130737.0,32.000000
-50,7,43,1629130737.0,32.000000
-50,7,43,1629130737.0,32.000000
-50,6,43,1629130737.0,32.000000
-49,7,43,1629130737.0,32.000000
-49,7,43,1629130737.0,32.000000
-49,7,43,1629130737.0,32.000000
-49,7,43,1629130737.0,32.000000
-49,7,43,1629130737.0,32.000000
-50,7,43,1629130737.0,32.000000
-50,7,43,1629130737.0,32.000000
-49,7,44,1629130737.0,32.000000
-49,7,43,1629130737.0,32.000000
-50,7,43,1629130737.0,32.000000
-50,7,43,1629130737.0,32.000000
-49,7,43,1629130737.0,32.000000
-49,7,43,1629130737.0,32.000000
-50,7,43,1629130737.0,32.000000
-49,7,43,1629130737.0,32.000000
-49,7,43,1629130737.0,32.000000
-49,7,43,1629130737.0,32.000000
-50,7,43,1629130737.0,32.000000
-50,7,43,1629130737.0,32.000000
-49,7,43,1629130737.0,32.000000
-49,7,43,1629130737.0,32.000000
-49,7,43,1629130737.0,32.000000
-50,7,43,1629130737.0,32.000000
-50,7,43,1629130737.0,32.000000
-50,7,42,1629130737.0,32.000000
-50,7,43,1629130737.0,32.000000
-51,7,42,1629130737.0,32.000000
-49,7,42,1629130737.0,32.000000
-50,7,42,1629130737.0,32.000000
-50,7,43,1629130737.0,32.000000
-50,7,42,1629130737.0,32.000000
-50,7,43,1629130737.0,32.000000
-49,7,43,1629130737.0,32.000000
-49,7,43,1629130737.0,32.000000
-50,7,42,1629130737.0,32.000000
-50,7,43,1629130737.0,32.000000
-50,7,43,1629130737.0,32.000000
-50,7,43,1629130737.0,32.000000
-50,7,42,1629130737.0,32.000000
-49,7,43,1629130737.0,32.000000
-50,7,43,1629130737.0,32.000000
-50,7,43,1629130737.0,32.000000
-50,7,42,1629130737.0,32.000000
-50,7,43,1629130737.0,32.000000
-50,7,43,1629130737.0,32.000000
-50,7,43,1629130737.0,32.000000
-49,7,43,1629130737.0,32.000000
-50,7,43,1629130737.0,32.000000
-50,7,43,1629130737.0,32.000000
-50,7,43,1629130737.0,32.000000
-50,7,42,1629130737.0,32.000000
-50,7,43,1629130737.0,32.000000
-50,7,43,1629130737.0,32.000000
-50,7,43,1629130737.0,32.000000
-50,7,43,1629130737.0,32.000000
-50,7,43,1629130737.0,32.000000
-50,7,43,1629130737.0,32.000000
-50,7,43,1629130737.0,32.000000
-50,7,43,1629130737.0,32.000000
-50,7,43,1629130737.0,32.000000
-49,7,43,1629130737.0,32.000000
-50,7,43,1629130737.0,32.000000
-49,7,43,1629130737.0,32.000000
-49,7,43,1629130737.0,32.000000
-50,7,43,1629130737.0,32.000000
-50,7,43,1629130737.0,32.000000
-50,7,43,1629130737.0,32.000000
-49,7,43,1629130737.0,32.000000
-49,7,43,1629130737.0,32.000000
-50,7,43,1629130737.0,32.000000
-50,7,43,1629130737.0,32.000000
-50,7,43,1629130737.0,32.000000
-49,7,43,1629130737.0,32.000000
-49,7,43,1629130737.0,32.000000
-49,7,43,1629130737.0,32.000000
-50,7,43,1629130737.0,32.000000
-49,7,43,1629130737.0,32.000000
-49,7,43,1629130737.0,32.000000
-49,7,43,1629130737.0,32.000000
-49,7,43,1629130737.0,32.000000
-50,7,43,1629130737.0,32.000000
-49,7,44,1629130737.0,32.000000
-49,7,43,1629130737.0,32.000000
-50,7,43,1629130737.0,32.000000
-49,6,44,1629130737.0,32.000000
-44,9,37,1629130737.0,32.000000
-44,10,42,1629130737.0,32.000000
-49,6,46,1629130737.0,32.000000
-50,7,41,1629130737.0,32.000000
-50,8,42,1629130737.0,32.000000
-49,7,44,1629130737.0,32.000000
-49,7,44,1629130737.0,32.000000
-49,7,43,1629130737.0,32.000000
-49,7,43,1629130737.0,32.000000
-49,8,42,1629130737.0,32.000000
-51,7,44,1629130737.0,32.000000
-48,6,45,1629130737.0,32.000000
-49,7,43,1629130737.0,32.000000
-48,7,44,1629130737.0,32.000000
-51,7,43,1629130737.0,32.000000
-49,7,42,1629130737.0,32.000000
-49,7,43,1629130737.0,32.000000
-51,7,43,1629130737.0,32.000000
-50,7,44,1629130737.0,32.000000
-49,6,44,1629130737.0,32.000000
-49,7,43,1629130737.0,32.000000
-49,7,43,1629130737.0,32.000000
-50,7,43,1629130737.0,32.000000
-49,7,43,1629130737.0,32.000000
-50,7,43,1629130737.0,32.000000
-49,7,43,1629130737.0,32.000000
-49,7,43,1629130737.0,32.000000
-50,7,43,1629130737.0,32.000000
-49,7,43,1629130737.0,32.000000
-50,7,43,1629130737.0,32.000000
-49,7,43,1629130737.0,32.000000
-49,7,43,1629130737.0,32.000000
-50,7,43,1629130737.0,32.000000
-50,7,43,1629130737.0,32.000000
-50,7,43,1629130737.0,32.000000
-49,7,43,1629130737.0,32.000000
-50,7,43,1629130737.0,32.000000
-49,7,43,1629130737.0,32.000000
-49,7,43,1629130737.0,32.000000
-50,7,43,1629130737.0,32.000000
-50,7,43,1629130737.0,32.000000
-56,6,43,1629130737.0,32.000000
-47,8,40,1629130737.0,32.000000
-47,6,46,1629130737.0,32.000000
-48,7,44,1629130737.0,32.000000
-50,7,42,1629130737.0,32.000000
-50,7,43,1629130737.0,32.000000
-49,7,43,1629130737.0,32.000000
-50,7,42,1629130737.0,32.000000
-49,7,43,1629130737.0,32.000000
-50,7,42,1629130737.0,32.000000
-50,7,42,1629130737.0,32.000000
-50,7,42,1629130737.0,32.000000
-49,7,43,1629130737.0,32.000000
-50,7,43,1629130737.0,32.000000
-51,7,41,1629130737.0,32.000000
-52,7,42,1629130737.0,32.000000
-49,7,42,1629130737.0,32.000000
-51,7,42,1629130737.0,32.000000
-52,7,42,1629130737.0,32.000000
-51,7,41,1629130737.0,32.000000
-50,7,42,1629130737.0,32.000000
-50,7,43,1629130737.0,32.000000
-50,7,43,1629130737.0,32.000000
-50,7,42,1629130737.0,32.000000
-51,7,42,1629130737.0,32.000000
-50,7,42,1629130737.0,32.000000
-50,7,42,1629130737.0,32.000000
-50,7,42,1629130737.0,32.000000
-50,7,42,1629130737.0,32.000000
-50,7,42,1629130737.0,32.000000
-49,7,43,1629130737.0,32.000000
-50,7,42,1629130737.0,32.000000
-51,7,42,1629130737.0,32.000000
-51,7,42,1629130737.0,32.000000
-50,7,42,1629130737.0,32.000000
-50,7,42,1629130737.0,32.000000
-49,7,42,1629130737.0,32.000000
-50,7,42,1629130737.0,32.000000
-51,7,43,1629130737.0,32.000000
-51,7,43,1629130737.0,32.000000
-52,7,42,1629130737.0,32.000000
-50,6,43,1629130737.0,32.000000
-50,7,42,1629130737.0,32.000000
-50,7,42,1629130737.0,32.000000
-50,7,42,1629130737.0,32.000000
-50,7,43,1629130737.0,32.000000
-50,7,42,1629130737.0,32.000000
-49,7,42,1629130737.0,32.000000
-50,7,43,1629130737.0,32.000000
-50,7,42,1629130737.0,32.000000
-50,7,42,1629130737.0,32.000000
-50,7,42,1629130737.0,32.000000
-50,7,43,1629130737.0,32.000000
-50,7,42,1629130737.0,32.000000
-49,8,42,1629130737.0,32.000000
-50,7,43,1629130737.0,32.000000
-50,8,42,1629130737.0,32.000000
-50,7,43,1629130737.0,32.000000
-50,7,42,1629130737.0,32.000000
-50,7,42,1629130737.0,32.000000
-50,7,43,1629130737.0,32.000000
-50,7,43,1629130737.0,32.000000
-50,8,42,1629130737.0,32.000000
-50,7,42,1629130737.0,32.000000
-50,7,43,1629130737.0,32.000000
-50,7,42,1629130737.0,32.000000
-50,7,42,1629130737.0,32.000000
-50,7,42,1629130737.0,32.000000
-50,7,42,1629130737.0,32.000000
-50,7,42,1629130737.0,32.000000
-50,7,42,1629130737.0,32.000000
-50,7,43,1629130737.0,32.000000
-50,7,42,1629130737.0,32.000000
-50,7,42,1629130737.0,32.000000
-50,7,42,1629130737.0,32.000000
-50,7,42,1629130737.0,32.000000
-50,7,42,1629130737.0,32.000000
-50,7,42,1629130737.0,32.000000
-50,7,43,1629130737.0,32.000000
-50,7,43,1629130737.0,32.000000
-49,7,42,1629130737.0,32.000000
-49,7,42,1629130737.0,32.000000
-50,7,44,1629130737.0,32.000000
-50,7,43,1629130737.0,32.000000
-50,7,43,1629130737.0,32.000000
-50,7,42,1629130737.0,32.000000
-49,7,43,1629130737.0,32.000000
-49,7,43,1629130737.0,32.000000
-50,7,43,1629130737.0,32.000000
-50,7,43,1629130737.0,32.000000
-49,7,43,1629130737.0,32.000000
-49,7,42,1629130737.0,32.000000
-50,7,43,1629130737.0,32.000000
-50,7,43,1629130737.0,32.000000
-50,7,43,1629130737.0,32.000000
-50,7,43,1629130737.0,32.000000
-50,7,43,1629130737.0,32.000000
-50,7,43,1629130737.0,32.000000
-50,7,43,1629130737.0,32.000000
-50,7,43,1629130737.0,32.000000
-50,7,43,1629130737.0,32.000000
-50,7,43,1629130737.0,32.000000
-50,7,43,1629130737.0,32.000000
-50,7,43,1629130737.0,32.000000
-50,7,43,1629130737.0,32.000000
-50,7,42,1629130737.0,32.000000
-50,7,43,1629130737.0,32.000000
-50,7,43,1629130737.0,32.000000
-49,7,43,1629130737.0,32.000000
-50,7,43,1629130737.0,32.000000
-50,7,43,1629130737.0,32.000000
-50,7,42,1629130737.0,32.000000
-50,7,42,1629130737.0,32.000000
-50,7,43,1629130737.0,32.000000
-50,7,43,1629130737.0,32.000000
-50,7,42,1629130737.0,32.000000
-50,7,42,1629130737.0,32.000000
-50,7,43,1629130737.0,32.000000
-50,7,43,1629130737.0,32.000000
-50,7,42,1629130737.0,32.000000
-50,7,42,1629130737.0,32.000000
-50,7,43,1629130737.0,32.000000
-50,7,42,1629130737.0,32.000000
-50,7,42,1629130737.0,32.000000
-50,7,43,1629130737.0,32.000000
-50,7,42,1629130737.0,32.000000
-50,7,42,1629130737.0,32.000000
-50,7,43,1629130737.0,32.000000
-50,7,42,1629130737.0,32.000000
-50,7,42,1629130737.0,32.000000
-50,7,43,1629130737.0,32.000000
-50,7,43,1629130737.0,32.000000
-50,7,42,1629130737.0,32.000000
-50,7,42,1629130737.0,32.000000
-50,7,43,1629130737.0,32.000000
-50,7,42,1629130737.0,32.000000
-50,7,42,1629130737.0,32.000000
-50,7,42,1629130737.0,32.000000
-50,7,42,1629130737.0,32.000000
-50,7,42,1629130737.0,32.000000
-50,7,43,1629130737.0,32.000000
-50,7,43,1629130737.0,32.000000
-50,7,42,1629130737.0,32.000000
-50,7,42,1629130737.0,32.000000
-50,7,43,1629130737.0,32.000000
-50,7,43,1629130737.0,32.000000
-50,7,43,1629130737.0,32.000000
-50,7,43,1629130737.0,32.000000
-50,7,42,1629130737.0,32.000000
-50,7,42,1629130737.0,32.000000
-50,7,42,1629130737.0,32.000000
-50,7,42,1629130737.0,32.000000
-50,7,42,1629130737.0,32.000000
-50,7,42,1629130737.0,32.000000
-50,7,42,1629130737.0,32.000000
-50,7,43,1629130737.0,32.000000
-50,7,42,1629130737.0,32.000000
-50,7,43,1629130737.0,32.000000
-50,7,42,1629130737.0,32.000000
-50,7,42,1629130737.0,32.000000
-50,7,42,1629130737.0,32.000000
-50,7,43,1629130737.0,32.000000
-50,7,42,1629130737.0,32.000000
-50,7,42,1629130737.0,32.000000
-50,7,42,1629130737.0,32.000000
-50,7,42,1629130737.0,32.000000
-50,7,43,1629130737.0,32.000000
-50,7,42,1629130737.0,32.000000
-50,7,43,1629130737.0,32.000000
-50,7,43,1629130737.0,32.000000
-50,7,42,1629130737.0,32.000000
-50,7,42,1629130737.0,32.000000
-50,7,43,1629130737.0,32.000000
-50,7,43,1629130737.0,32.000000
-50,7,42,1629130737.0,32.000000
-50,7,42,1629130737.0,32.000000
-50,7,43,1629130737.0,32.000000
-50,7,42,1629130737.0,32.000000
-50,7,43,1629130737.0,32.000000
-50,7,42,1629130737.0,32.000000
-50,7,42,1629130737.0,32.000000
-50,7,43,1629130737.0,32.000000
-50,7,42,1629130737.0,32.000000
-50,7,42,1629130737.0,32.000000
-50,7,42,1629130737.0,32.000000
-50,7,42,1629130737.0,32.000000
-50,7,42,1629130737.0,32.000000
-50,7,42,1629130737.0,32.000000
-50,7,43,1629130737.0,32.000000
-50,7,43,1629130737.0,32.000000
-50,7,43,1629130737.0,32.000000
-50,7,42,1629130737.0,32.000000
-50,7,42,1629130737.0,32.000000
-50,7,42,1629130737.0,32.000000
-50,7,43,1629130737.0,32.000000
-49,7,43,1629130737.0,32.000000
-50,7,42,1629130737.0,32.000000
-50,7,42,1629130737.0,32.000000
-50,7,43,1629130737.0,32.000000
-50,7,43,1629130737.0,32.000000
-50,7,43,1629130737.0,32.000000
-50,7,42,1629130737.0,32.000000
-50,7,43,1629130737.0,32.000000
-50,7,43,1629130737.0,32.000000
-50,7,43,1629130737.0,32.000000
-50,7,42,1629130737.0,32.000000
-50,7,42,1629130737.0,32.000000
-50,7,42,1629130737.0,32.000000
-50,7,42,1629130737.0,32.000000
-50,7,43,1629130737.0,32.000000
-50,7,42,1629130737.0,32.000000
-50,7,43,1629130737.0,32.000000
-50,7,43,1629130737.0,32.000000
-50,7,42,1629130737.0,32.000000
-50,7,42,1629130737.0,32.000000
-50,7,42,1629130737.0,32.000000
-49,7,42,1629130737.0,32.000000
-50,7,42,1629130737.0,32.000000
-50,7,42,1629130737.0,32.000000
-50,7,42,1629130737.0,32.000000
-50,7,43,1629130737.0,32.000000
-50,7,42,1629130737.0,32.000000
-50,7,42,1629130737.0,32.000000
-50,7,43,1629130737.0,32.000000
-50,7,42,1629130737.0,32.000000
-50,7,43,1629130737.0,32.000000
-50,7,42,1629130737.0,32.000000
-50,7,43,1629130737.0,32.000000
-50,7,42,1629130737.0,32.000000
-50,7,43,1629130737.0,32.000000
-50,7,43,1629130737.0,32.000000
-50,7,42,1629130737.0,32.000000
-50,7,42,1629130737.0,32.000000
-50,7,42,1629130737.0,32.000000
-50,7,42,1629130737.0,32.000000
-50,7,42,1629130737.0,32.000000
-50,7,42,1629130737.0,32.000000
-50,7,42,1629130737.0,32.000000
-50,7,42,1629130737.0,32.000000
-50,7,42,1629130737.0,32.000000
-50,7,42,1629130737.0,32.000000
-50,7,42,1629130737.0,32.000000
-50,7,43,1629130737.0,32.000000
-50,7,42,1629130737.0,32.000000
-50,7,43,1629130737.0,32.000000
-50,7,42,1629130737.0,32.000000
-50,7,42,1629130737.0,32.000000
-50,7,42,1629130737.0,32.000000
-50,7,43,1629130737.0,32.000000
-50,7,42,1629130737.0,32.000000
-50,7,42,1629130737.0,32.000000
-50,7,43,1629130737.0,32.000000
-50,7,43,1629130737.0,32.000000
-50,7,42,1629130737.0,32.000000
-50,7,42,1629130737.0,32.000000
-50,7,42,1629130737.0,32.000000
-50,7,43,1629130737.0,32.000000
-50,7,42,1629130737.0,32.000000
-51,7,42,1629130737.0,32.000000
-50,8,42,1629130737.0,32.000000
-49,8,42,1629130737.0,32.000000
-50,8,42,1629130737.0,32.000000
-50,8,42,1629130737.0,32.000000
-50,7,42,1629130737.0,32.000000
-50,7,43,1629130737.0,32.000000
-50,8,42,1629130737.0,32.000000
-52,7,43,1629130737.0,32.000000
-50,6,45,1629130737.0,32.000000
-50,7,42,1629130737.0,32.000000
-51,7,43,1629130737.0,32.000000
-51,7,42,1629130737.0,32.000000
-50,8,42,1629130737.0,32.000000
-50,7,43,1629130737.0,32.000000
-50,8,42,1629130737.0,32.000000
-50,7,43,1629130737.0,32.000000
-50,7,42,1629130737.0,32.000000
-50,7,42,1629130737.0,32.000000
-50,7,42,1629130737.0,32.000000
-50,7,42,1629130737.0,32.000000
-51,8,42,1629130737.0,32.000000
-50,7,42,1629130737.0,32.000000
-50,7,42,1629130737.0,32.000000
-50,7,42,1629130737.0,32.000000
-50,7,42,1629130737.0,32.000000
-50,7,42,1629130737.0,32.000000
-50,8,43,1629130737.0,32.000000
-50,7,42,1629130737.0,32.000000
-50,7,42,1629130737.0,32.000000
-50,7,42,1629130737.0,32.000000
-50,7,42,1629130737.0,32.000000
-50,8,42,1629130737.0,32.000000
-50,8,43,1629130737.0,32.000000
-50,7,42,1629130737.0,32.000000
-50,7,42,1629130737.0,32.000000
-50,7,42,1629130737.0,32.000000
-50,7,43,1629130737.0,32.000000
-50,8,42,1629130737.0,32.000000
-50,7,42,1629130737.0,32.000000
-50,7,42,1629130737.0,32.000000
-50,7,43,1629130737.0,32.000000
-50,7,43,1629130737.0,32.000000
-50,7,43,1629130737.0,32.000000
-50,7,42,1629130737.0,32.000000
-50,7,42,1629130737.0,32.000000
-50,7,43,1629130737.0,32.000000
-50,7,43,1629130737.0,32.000000
-50,7,43,1629130737.0,32.000000
-50,7,42,1629130737.0,32.000000
-50,7,42,1629130737.0,32.000000
-50,7,42,1629130737.0,32.000000
-50,7,42,1629130737.0,32.000000
-50,7,42,1629130737.0,32.000000
-50,7,43,1629130737.0,32.000000
-50,7,42,1629130737.0,32.000000
-50,7,43,1629130737.0,32.000000
-50,7,43,1629130737.0,32.000000
-50,7,43,1629130737.0,32.000000
-50,7,43,1629130737.0,32.000000
-50,7,42,1629130737.0,32.000000
-50,7,43,1629130737.0,32.000000
-50,7,43,1629130737.0,32.000000
-50,7,42,1629130737.0,32.000000
-50,7,42,1629130737.0,32.000000
-50,7,43,1629130737.0,32.000000
-50,7,43,1629130737.0,32.000000
-50,7,42,1629130737.0,32.000000
-50,7,42,1629130737.0,32.000000
-50,7,43,1629130737.0,32.000000
-50,7,42,1629130737.0,32.000000
-50,7,42,1629130737.0,32.000000
-50,7,43,1629130737.0,32.000000
-50,7,43,1629130737.0,32.000000
-50,7,43,1629130737.0,32.000000
-50,7,43,1629130737.0,32.000000
-50,7,43,1629130737.0,32.000000
-50,7,43,1629130737.0,32.000000
-50,7,43,1629130737.0,32.000000
-50,7,43,1629130737.0,32.000000
-50,7,43,1629130737.0,32.000000
-50,7,43,1629130737.0,32.000000
-50,7,42,1629130737.0,32.000000
-50,7,42,1629130737.0,32.000000
-50,7,43,1629130737.0,32.000000
-50,7,43,1629130737.0,32.000000
-50,7,42,1629130737.0,32.000000
-50,7,43,1629130737.0,32.000000
-50,7,42,1629130737.0,32.000000
-50,7,43,1629130737.0,32.000000
-50,7,43,1629130737.0,32.000000
-50,7,42,1629130737.0,32.000000
-50,7,43,1629130737.0,32.000000
-50,7,43,1629130737.0,32.000000
-50,7,43,1629130737.0,32.000000
-50,7,43,1629130737.0,32.000000
-50,7,43,1629130737.0,32.000000
-50,7,42,1629130737.0,32.000000
-50,7,43,1629130737.0,32.000000
-50,7,42,1629130737.0,32.000000
-50,7,43,1629130737.0,32.000000
-50,7,42,1629130737.0,32.000000
-50,7,42,1629130737.0,32.000000
-50,7,43,1629130737.0,32.000000
-50,7,43,1629130737.0,32.000000
-50,7,43,1629130737.0,32.000000
-50,7,43,1629130737.0,32.000000
-50,7,43,1629130737.0,32.000000
-50,7,43,1629130737.0,32.000000
-50,7,43,1629130737.0,32.000000
-50,7,42,1629130737.0,32.000000
-50,7,43,1629130737.0,32.000000
-50,7,43,1629130737.0,32.000000
-50,7,43,1629130737.0,32.000000
-50,7,42,1629130737.0,32.000000
-49,7,43,1629130737.0,32.000000
-50,7,42,1629130737.0,32.000000
-50,7,43,1629130737.0,32.000000
-50,7,43,1629130737.0,32.000000
-50,7,43,1629130737.0,32.000000
-50,7,43,1629130737.0,32.000000
-50,8,43,1629130737.0,32.000000
-50,7,42,1629130737.0,32.000000
-50,7,43,1629130737.0,32.000000
-50,7,43,1629130737.0,32.000000
-50,7,43,1629130737.0,32.000000
-50,7,43,1629130737.0,32.000000
-50,7,43,1629130737.0,32.000000
-50,7,43,1629130737.0,32.000000
-50,7,43,1629130737.0,32.000000
-50,7,43,1629130737.0,32.000000
-50,7,43,1629130737.0,32.000000
-50,7,43,1629130737.0,32.000000
-49,7,43,1629130737.0,32.000000
-50,7,43,1629130737.0,32.000000
-50,7,43,1629130737.0,32.000000
-50,7,43,1629130737.0,32.000000
-50,7,43,1629130737.0,32.000000
-49,7,43,1629130737.0,32.000000
-50,7,43,1629130737.0,32.000000
-50,7,43,1629130737.0,32.000000
-50,7,43,1629130737.0,32.000000
-50,7,43,1629130737.0,32.000000
-50,7,43,1629130737.0,32.000000
-50,7,43,1629130737.0,32.000000
-49,7,43,1629130737.0,32.000000
-50,7,43,1629130737.0,32.000000
-50,7,43,1629130737.0,32.000000
-49,7,43,1629130737.0,32.000000
-50,7,43,1629130737.0,32.000000
-50,7,43,1629130737.0,32.000000
-50,7,43,1629130737.0,32.000000
-50,7,43,1629130737.0,32.000000
-50,7,43,1629130737.0,32.000000
-50,7,43,1629130737.0,32.000000
-49,7,43,1629130737.0,32.000000
-50,7,43,1629130737.0,32.000000
-50,7,43,1629130737.0,32.000000
-50,7,42,1629130737.0,32.000000
-50,7,42,1629130737.0,32.000000
-49,7,43,1629130737.0,32.000000
-49,7,43,1629130737.0,32.000000
-50,7,43,1629130737.0,32.000000
-50,7,43,1629130737.0,32.000000
-50,7,43,1629130737.0,32.000000
-50,7,43,1629130737.0,32.000000
-50,7,43,1629130737.0,32.000000
-50,7,43,1629130737.0,32.000000
-50,7,43,1629130737.0,32.000000
-50,7,43,1629130737.0,32.000000
-50,7,43,1629130737.0,32.000000
-50,7,43,1629130737.0,32.000000
-50,7,43,1629130737.0,32.000000
-50,7,42,1629130737.0,32.000000
-50,7,43,1629130737.0,32.000000
-50,7,43,1629130737.0,32.000000
-50,7,43,1629130737.0,32.000000
-50,7,43,1629130737.0,32.000000
-50,7,43,1629130737.0,32.000000
-50,7,43,1629130737.0,32.000000
-50,7,43,1629130737.0,32.000000
-50,7,42,1629130737.0,32.000000
-50,7,43,1629130737.0,32.000000
-50,7,43,1629130737.0,32.000000
-50,7,42,1629130737.0,32.000000
-50,7,42,1629130737.0,32.000000
-50,7,43,1629130737.0,32.000000
-50,7,43,1629130737.0,32.000000
-50,7,43,1629130737.0,32.000000
-50,7,43,1629130737.0,32.000000
-50,7,43,1629130737.0,32.000000
-50,7,43,1629130737.0,32.000000
-50,7,43,1629130737.0,32.000000
-50,7,43,1629130737.0,32.000000
-50,7,43,1629130737.0,32.000000
-50,7,42,1629130737.0,32.000000
-50,7,43,1629130737.0,32.000000
-50,7,43,1629130737.0,32.000000
-50,7,43,1629130737.0,32.000000
-50,7,43,1629130737.0,32.000000
-50,7,43,1629130737.0,32.000000
-50,7,43,1629130737.0,32.000000
-50,7,42,1629130737.0,32.000000
-50,7,43,1629130737.0,32.000000
-50,7,43,1629130737.0,32.000000
-50,7,42,1629130737.0,32.000000
-50,7,43,1629130737.0,32.000000
-50,7,43,1629130737.0,32.000000
-50,7,43,1629130737.0,32.000000
-49,7,42,1629130737.0,32.000000
-50,7,43,1629130737.0,32.000000
-50,7,43,1629130737.0,32.000000
-50,7,43,1629130737.0,32.000000
-50,7,43,1629130737.0,32.000000
-50,7,42,1629130737.0,32.000000
-50,7,42,1629130737.0,32.000000
-50,7,43,1629130737.0,32.000000
-50,7,43,1629130737.0,32.000000
-50,7,43,1629130737.0,32.000000
-50,7,43,1629130737.0,32.000000
-50,7,42,1629130737.0,32.000000
-50,7,43,1629130737.0,32.000000
-50,7,43,1629130737.0,32.000000
-50,7,43,1629130737.0,32.000000
-50,7,42,1629130737.0,32.000000
-50,7,43,1629130737.0,32.000000
-50,7,43,1629130737.0,32.000000
-50,7,42,1629130737.0,32.000000
-50,7,43,1629130737.0,32.000000
-50,7,43,1629130737.0,32.000000
-50,7,43,1629130737.0,32.000000
-50,7,43,1629130737.0,32.000000
-50,7,43,1629130737.0,32.000000
-50,7,42,1629130737.0,32.000000
-50,7,43,1629130737.0,32.000000
-50,7,43,1629130737.0,32.000000
-50,7,43,1629130737.0,32.000000
-50,7,42,1629130737.0,32.000000
-50,7,42,1629130737.0,32.000000
-50,7,43,1629130737.0,32.000000
-49,7,43,1629130737.0,32.000000
-50,7,43,1629130737.0,32.000000
-50,7,42,1629130737.0,32.000000
-50,7,43,1629130737.0,32.000000
-49,7,43,1629130737.0,32.000000
-50,7,43,1629130737.0,32.000000
-50,7,43,1629130737.0,32.000000
-50,7,42,1629130737.0,32.000000
-50,7,43,1629130737.0,32.000000
-50,7,43,1629130737.0,32.000000
-50,7,43,1629130737.0,32.000000
-49,7,43,1629130737.0,32.000000
-50,7,43,1629130737.0,32.000000
-50,7,43,1629130737.0,32.000000
-49,7,43,1629130737.0,32.000000
-50,7,43,1629130737.0,32.000000
-50,7,42,1629130737.0,32.000000
-50,7,43,1629130737.0,32.000000
-50,7,43,1629130737.0,32.000000
-50,7,42,1629130737.0,32.000000
-50,7,42,1629130737.0,32.000000
-50,7,43,1629130737.0,32.000000
-50,7,43,1629130737.0,32.000000
-50,7,43,1629130737.0,32.000000
-50,7,42,1629130737.0,32.000000
-50,7,43,1629130737.0,32.000000
-50,7,43,1629130737.0,32.000000
-50,7,43,1629130737.0,32.000000
-50,7,42,1629130737.0,32.000000
-50,7,42,1629130737.0,32.000000
-49,7,43,1629130737.0,32.000000
-50,7,43,1629130737.0,32.000000
-50,7,43,1629130737.0,32.000000
-50,7,42,1629130737.0,32.000000
-50,7,42,1629130737.0,32.000000
-50,7,43,1629130737.0,32.000000
-50,7,43,1629130737.0,32.000000
-50,7,43,1629130737.0,32.000000
-50,7,42,1629130737.0,32.000000
-50,7,43,1629130737.0,32.000000
-50,7,43,1629130737.0,32.000000
-50,7,43,1629130737.0,32.000000
-50,7,43,1629130737.0,32.000000
-50,7,42,1629130737.0,32.000000
-50,7,42,1629130737.0,32.000000
-50,7,42,1629130737.0,32.000000
-50,7,43,1629130737.0,32.000000
-50,7,43,1629130737.0,32.000000
-50,7,42,1629130737.0,32.000000
-50,7,43,1629130737.0,32.000000
-50,7,42,1629130737.0,32.000000
-50,7,42,1629130737.0,32.000000
-50,7,43,1629130737.0,32.000000
-49,7,43,1629130737.0,32.000000
-50,7,43,1629130737.0,32.000000
-50,7,42,1629130737.0,32.000000
-50,7,42,1629130737.0,32.000000
-50,7,43,1629130737.0,32.000000
-49,7,43,1629130737.0,32.000000
-50,7,43,1629130737.0,32.000000
-50,7,42,1629130737.0,32.000000
-50,7,42,1629130737.0,32.000000
-50,7,43,1629130737.0,32.000000
-50,7,43,1629130737.0,32.000000
-50,7,43,1629130737.0,32.000000
-50,7,43,1629130737.0,32.000000
-50,7,42,1629130737.0,32.000000
-50,7,43,1629130737.0,32.000000
-50,7,43,1629130737.0,32.000000
-49,7,43,1629130737.0,32.000000
-50,7,43,1629130737.0,32.000000
-50,7,43,1629130737.0,32.000000
-50,7,43,1629130737.0,32.000000
-50,7,42,1629130737.0,32.000000
-50,7,43,1629130737.0,32.000000
-49,8,43,1629130737.0,32.000000
-49,7,43,1629130737.0,32.000000
-50,7,42,1629130737.0,32.000000
-50,7,42,1629130737.0,32.000000
-49,7,43,1629130737.0,32.000000
-49,7,43,1629130737.0,32.000000
-50,7,43,1629130737.0,32.000000
-50,7,42,1629130737.0,32.000000
-50,7,43,1629130737.0,32.000000
-49,7,43,1629130737.0,32.000000
-50,7,43,1629130737.0,32.000000
-50,7,42,1629130737.0,32.000000
-50,7,43,1629130737.0,32.000000
-50,7,43,1629130737.0,32.000000
-50,7,42,1629130737.0,32.000000
-49,7,43,1629130737.0,32.000000
-50,7,43,1629130737.0,32.000000
-50,8,43,1629130737.0,32.000000
-50,7,43,1629130737.0,32.000000
-50,7,43,1629130737.0,32.000000
-49,7,43,1629130737.0,32.000000
-50,7,43,1629130737.0,32.000000
-50,7,43,1629130737.0,32.000000
-50,7,42,1629130737.0,32.000000
-49,7,43,1629130737.0,32.000000
-49,7,43,1629130737.0,32.000000
-50,7,43,1629130737.0,32.000000
-50,7,43,1629130737.0,32.000000
-50,7,43,1629130737.0,32.000000
-50,7,43,1629130737.0,32.000000
-50,7,43,1629130737.0,32.000000
-50,7,43,1629130737.0,32.000000
-49,7,43,1629130737.0,32.000000
-50,7,43,1629130737.0,32.000000
-50,7,43,1629130737.0,32.000000
-50,7,43,1629130737.0,32.000000
-50,7,43,1629130737.0,32.000000
-50,7,42,1629130737.0,32.000000
-50,7,43,1629130737.0,32.000000
-50,7,43,1629130737.0,32.000000
-49,7,43,1629130737.0,32.000000
-50,7,43,1629130737.0,32.000000
-50,7,43,1629130737.0,32.000000
-50,7,43,1629130737.0,32.000000
-50,7,43,1629130737.0,32.000000
-49,7,43,1629130737.0,32.000000
-49,7,43,1629130737.0,32.000000
-50,7,43,1629130737.0,32.000000
-50,7,43,1629130737.0,32.000000
-51,7,42,1629130737.0,32.000000
-50,7,43,1629130737.0,32.000000
-49,7,43,1629130737.0,32.000000
-49,8,43,1629130737.0,32.000000
-50,7,42,1629130737.0,32.000000
-50,8,42,1629130737.0,32.000000
-51,7,43,1629130737.0,32.000000
-49,7,43,1629130737.0,32.000000
-48,7,44,1629130737.0,32.000000
-50,7,43,1629130737.0,32.000000
-49,6,43,1629130737.0,32.000000
-48,6,44,1629130737.0,32.000000
-49,7,43,1629130737.0,32.000000
-49,7,44,1629130737.0,32.000000
-48,7,45,1629130737.0,32.000000
-47,7,46,1629130737.0,32.000000
-48,7,44,1629130737.0,32.000000
-48,7,45,1629130737.0,32.000000
-48,7,46,1629130737.0,32.000000
-48,8,44,1629130737.0,32.000000
-50,7,43,1629130737.0,32.000000
-46,7,46,1629130737.0,32.000000
-48,8,43,1629130737.0,32.000000
-46,7,47,1629130737.0,32.000000
-49,8,44,1629130737.0,32.000000
-50,8,43,1629130737.0,32.000000
-52,8,41,1629130737.0,32.000000
-47,8,43,1629130737.0,32.000000
-49,9,44,1629130737.0,32.000000
-48,7,45,1629130737.0,32.000000
-49,8,42,1629130737.0,32.000000
-50,7,44,1629130737.0,32.000000
-51,7,43,1629130737.0,32.000000
-49,7,43,1629130737.0,32.000000
-49,8,43,1629130737.0,32.000000
-48,8,43,1629130737.0,32.000000
-49,8,44,1629130737.0,32.000000
-48,9,42,1629130737.0,32.000000
-49,8,42,1629130737.0,32.000000
-52,7,42,1629130737.0,32.000000
-53,7,42,1629130737.0,32.000000
-48,9,42,1629130737.0,32.000000
-50,8,43,1629130737.0,32.000000
-50,8,42,1629130737.0,32.000000
-51,8,42,1629130737.0,32.000000
-50,7,43,1629130737.0,32.000000
-51,8,42,1629130737.0,32.000000
-50,8,41,1629130737.0,32.000000
-50,8,42,1629130737.0,32.000000
-50,8,42,1629130737.0,32.000000
-50,8,42,1629130737.0,32.000000
-51,8,41,1629130737.0,32.000000
-51,8,42,1629130737.0,32.000000
-50,8,42,1629130737.0,32.000000
-51,8,42,1629130737.0,32.000000
-50,8,42,1629130737.0,32.000000
-50,8,42,1629130737.0,32.000000
-50,8,42,1629130737.0,32.000000
-50,8,41,1629130737.0,32.000000
-51,8,42,1629130737.0,32.000000
-51,8,42,1629130737.0,32.000000
-50,8,42,1629130737.0,32.000000
-51,8,42,1629130737.0,32.000000
-50,8,42,1629130737.0,32.000000
-50,8,42,1629130737.0,32.000000
-50,8,42,1629130737.0,32.000000
-50,8,42,1629130737.0,32.000000
-50,8,42,1629130737.0,32.000000
-50,8,42,1629130737.0,32.000000
-50,8,42,1629130737.0,32.000000
-51,8,41,1629130737.0,32.000000
-51,8,41,1629130737.0,32.000000
-50,8,42,1629130737.0,32.000000
-51,8,42,1629130737.0,32.000000
-50,8,42,1629130737.0,32.000000
-50,8,42,1629130737.0,32.000000
-51,8,42,1629130737.0,32.000000
-50,8,42,1629130737.0,32.000000
-50,8,42,1629130737.0,32.000000
-50,8,42,1629130737.0,32.000000
-51,8,42,1629130737.0,32.000000
-50,8,42,1629130737.0,32.000000
-51,8,42,1629130737.0,32.000000
-51,8,42,1629130737.0,32.000000
-51,8,42,1629130737.0,32.000000
-51,8,42,1629130737.0,32.000000
-50,8,42,1629130737.0,32.000000
-50,8,42,1629130737.0,32.000000
-50,8,43,1629130737.0,32.000000
-50,8,42,1629130737.0,32.000000
-50,8,42,1629130737.0,32.000000
-50,8,42,1629130737.0,32.000000
-51,8,42,1629130737.0,32.000000
-51,8,41,1629130737.0,32.000000
-51,8,41,1629130737.0,32.000000
-50,8,42,1629130737.0,32.000000
-50,8,42,1629130737.0,32.000000
-50,8,42,1629130737.0,32.000000
-50,8,42,1629130737.0,32.000000
-50,8,42,1629130737.0,32.000000
-50,8,42,1629130737.0,32.000000
-50,8,42,1629130737.0,32.000000
-51,8,42,1629130737.0,32.000000
-51,8,41,1629130737.0,32.000000
-51,8,41,1629130737.0,32.000000
-51,7,42,1629130737.0,32.000000
-51,8,41,1629130737.0,32.000000
-50,8,42,1629130737.0,32.000000
-50,8,42,1629130737.0,32.000000
-50,8,42,1629130737.0,32.000000
-50,7,42,1629130737.0,32.000000
-50,8,42,1629130737.0,32.000000
-50,8,42,1629130737.0,32.000000
-50,8,42,1629130737.0,32.000000
-51,8,42,1629130737.0,32.000000
-50,8,42,1629130737.0,32.000000
-51,8,41,1629130737.0,32.000000
-51,8,42,1629130737.0,32.000000
-50,8,42,1629130737.0,32.000000
-50,8,42,1629130737.0,32.000000
-50,8,42,1629130737.0,32.000000
-50,8,42,1629130737.0,32.000000
-50,7,42,1629130737.0,32.000000
-50,8,42,1629130737.0,32.000000
-50,7,42,1629130737.0,32.000000
-50,7,42,1629130737.0,32.000000
-50,7,42,1629130737.0,32.000000
-51,7,42,1629130737.0,32.000000
-51,7,42,1629130737.0,32.000000
-51,7,42,1629130737.0,32.000000
-50,7,42,1629130737.0,32.000000
-50,7,42,1629130737.0,32.000000
-50,7,42,1629130737.0,32.000000
-50,7,42,1629130737.0,32.000000
-50,7,42,1629130737.0,32.000000
-50,7,42,1629130737.0,32.000000
-51,8,42,1629130737.0,32.000000
-51,7,42,1629130737.0,32.000000
-50,7,42,1629130737.0,32.000000
-50,7,42,1629130737.0,32.000000
-50,8,42,1629130737.0,32.000000
-50,7,42,1629130737.0,32.000000
-50,7,42,1629130737.0,32.000000
-50,8,42,1629130737.0,32.000000
-50,7,42,1629130737.0,32.000000
-51,7,42,1629130737.0,32.000000
-50,7,41,1629130737.0,32.000000
-50,7,42,1629130737.0,32.000000
-51,8,42,1629130737.0,32.000000
-51,7,42,1629130737.0,32.000000
-51,7,42,1629130737.0,32.000000
-50,7,42,1629130737.0,32.000000
-50,8,42,1629130737.0,32.000000
-50,7,42,1629130737.0,32.000000
-50,7,42,1629130737.0,32.000000
-51,8,42,1629130737.0,32.000000
-51,7,42,1629130737.0,32.000000
-50,7,42,1629130737.0,32.000000
-51,8,42,1629130737.0,32.000000
-51,7,41,1629130737.0,32.000000
-51,7,41,1629130737.0,32.000000
-51,8,41,1629130737.0,32.000000
-50,7,42,1629130737.0,32.000000
-50,8,42,1629130737.0,32.000000
-50,8,42,1629130737.0,32.000000
-50,8,42,1629130737.0,32.000000
-50,8,42,1629130737.0,32.000000
-51,7,42,1629130737.0,32.000000
-51,7,42,1629130737.0,32.000000
-50,8,42,1629130737.0,32.000000
-51,8,42,1629130737.0,32.000000
-51,7,42,1629130737.0,32.000000
-51,7,42,1629130737.0,32.000000
-51,7,42,1629130737.0,32.000000
-51,8,42,1629130737.0,32.000000
-50,8,42,1629130737.0,32.000000
-51,8,42,1629130737.0,32.000000
-50,7,42,1629130737.0,32.000000
-51,8,42,1629130737.0,32.000000
-51,7,42,1629130737.0,32.000000
-51,7,41,1629130737.0,32.000000
-50,7,42,1629130737.0,32.000000
-51,7,42,1629130737.0,32.000000
-50,7,42,1629130737.0,32.000000
-50,7,42,1629130737.0,32.000000
-51,7,42,1629130737.0,32.000000
-51,7,42,1629130737.0,32.000000
-50,7,42,1629130737.0,32.000000
-50,7,42,1629130737.0,32.000000
-50,7,42,1629130737.0,32.000000
-50,8,42,1629130737.0,32.000000
-51,7,42,1629130737.0,32.000000
-51,7,42,1629130737.0,32.000000
-51,8,42,1629130737.0,32.000000
-50,7,41,1629130737.0,32.000000
-51,7,42,1629130737.0,32.000000
-50,8,42,1629130737.0,32.000000
-50,7,42,1629130737.0,32.000000
-51,7,42,1629130737.0,32.000000
-51,8,42,1629130737.0,32.000000
-51,8,41,1629130737.0,32.000000
-52,7,42,1629130737.0,32.000000
-50,8,41,1629130737.0,32.000000
-51,7,42,1629130737.0,32.000000
-50,8,41,1629130737.0,32.000000
-51,7,42,1629130737.0,32.000000
-51,7,41,1629130737.0,32.000000
-50,8,42,1629130737.0,32.000000
-50,7,41,1629130737.0,32.000000
-50,8,42,1629130737.0,32.000000
-51,7,42,1629130737.0,32.000000
-51,7,42,1629130737.0,32.000000
-51,8,42,1629130737.0,32.000000
-51,7,42,1629130737.0,32.000000
-50,7,42,1629130737.0,32.000000
-51,7,42,1629130737.0,32.000000
-51,7,42,1629130737.0,32.000000
-51,7,42,1629130737.0,32.000000
-51,7,42,1629130737.0,32.000000
-50,7,42,1629130737.0,32.000000
-50,7,42,1629130737.0,32.000000
-50,7,42,1629130737.0,32.000000
-51,7,41,1629130737.0,32.000000
-51,7,42,1629130737.0,32.000000
-51,8,42,1629130737.0,32.000000
-50,7,42,1629130737.0,32.000000
-50,8,42,1629130737.0,32.000000
-50,8,42,1629130737.0,32.000000
-51,7,41,1629130737.0,32.000000
-51,7,41,1629130737.0,32.000000
-50,7,43,1629130737.0,32.000000
-52,7,41,1629130737.0,32.000000
-52,6,41,1629130737.0,32.000000
-56,6,40,1629130737.0,32.000000
-56,6,39,1629130737.0,32.000000
-51,7,41,1629130737.0,32.000000
-51,10,41,1629130737.0,32.000000
-53,8,39,1629130737.0,32.000000
-53,8,39,1629130737.0,32.000000
-52,9,40,1629130737.0,32.000000
-52,9,37,1629130737.0,32.000000
-51,9,37,1629130737.0,32.000000
-51,9,38,1629130737.0,32.000000
-48,9,42,1629130737.0,32.000000
-49,10,43,1629130737.0,32.000000
-50,11,35,1629130737.0,32.000000
-55,12,29,1629130737.0,32.000000
-58,10,30,1629130737.0,32.000000
-62,11,36,1629130737.0,32.000000
-60,4,38,1629130737.0,32.000000
-59,4,35,1629130737.0,32.000000
-58,6,33,1629130737.0,32.000000
-57,7,33,1629130737.0,32.000000
-53,8,36,1629130737.0,32.000000
-55,8,36,1629130737.0,32.000000
-55,8,35,1629130737.0,32.000000
-56,8,35,1629130737.0,32.000000
-57,7,35,1629130737.0,32.000000
-55,8,34,1629130737.0,32.000000
-56,7,35,1629130737.0,32.000000
-57,7,35,1629130737.0,32.000000
-56,8,35,1629130737.0,32.000000
-56,8,34,1629130737.0,32.000000
-56,8,35,1629130737.0,32.000000
-56,8,35,1629130737.0,32.000000
-56,7,34,1629130737.0,32.000000
-56,8,33,1629130737.0,32.000000
-56,8,34,1629130737.0,32.000000
-56,8,34,1629130737.0,32.000000
-56,8,34,1629130737.0,32.000000
-57,8,34,1629130737.0,32.000000
-57,7,34,1629130737.0,32.000000
-57,7,34,1629130737.0,32.000000
-55,7,36,1629130737.0,32.000000
-55,7,37,1629130737.0,32.000000
-54,7,37,1629130737.0,32.000000
-55,7,38,1629130737.0,32.000000
-53,7,38,1629130737.0,32.000000
-53,7,38,1629130737.0,32.000000
-54,7,38,1629130737.0,32.000000
-54,8,36,1629130737.0,32.000000
-55,6,38,1629130737.0,32.000000
-53,6,39,1629130737.0,32.000000
-53,6,39,1629130737.0,32.000000
-55,7,37,1629130737.0,32.000000
-56,6,37,1629130737.0,32.000000
-55,7,37,1629130737.0,32.000000
-55,7,38,1629130737.0,32.000000
-55,8,34,1629130737.0,32.000000
-56,8,34,1629130737.0,32.000000
-57,7,35,1629130737.0,32.000000
-53,8,37,1629130737.0,32.000000
-53,8,37,1629130737.0,32.000000
-55,7,36,1629130737.0,32.000000
-56,7,36,1629130737.0,32.000000
-57,7,36,1629130737.0,32.000000
-55,8,35,1629130737.0,32.000000
-54,8,36,1629130737.0,32.000000
-55,8,37,1629130737.0,32.000000
-55,8,36,1629130737.0,32.000000
-54,8,36,1629130737.0,32.000000
-53,8,37,1629130737.0,32.000000
-54,8,37,1629130737.0,32.000000
-55,8,36,1629130737.0,32.000000
-55,8,36,1629130737.0,32.000000
-56,7,36,1629130737.0,32.000000
-56,7,36,1629130737.0,32.000000
-56,7,36,1629130737.0,32.000000
-56,8,36,1629130737.0,32.000000
-55,7,36,1629130737.0,32.000000
-55,7,37,1629130737.0,32.000000
-54,7,37,1629130737.0,32.000000
-55,8,36,1629130737.0,32.000000
-55,8,36,1629130737.0,32.000000
-55,7,37,1629130737.0,32.000000
-55,7,36,1629130737.0,32.000000
-55,7,36,1629130737.0,32.000000
-56,7,36,1629130737.0,32.000000
-55,7,36,1629130737.0,32.000000
-55,7,36,1629130737.0,32.000000
-55,8,36,1629130737.0,32.000000
-54,8,37,1629130737.0,32.000000
-54,7,37,1629130737.0,32.000000
-55,7,36,1629130737.0,32.000000
-55,7,36,1629130737.0,32.000000
-55,8,36,1629130737.0,32.000000
-55,8,36,1629130737.0,32.000000
-55,7,36,1629130737.0,32.000000
-55,8,36,1629130737.0,32.000000
-55,7,36,1629130737.0,32.000000
-55,7,36,1629130737.0,32.000000
-55,7,36,1629130737.0,32.000000
-55,7,36,1629130737.0,32.000000
-55,7,36,1629130737.0,32.000000
-55,7,36,1629130737.0,32.000000
-55,8,36,1629130737.0,32.000000
-55,8,36,1629130737.0,32.000000
-55,7,37,1629130737.0,32.000000
-55,7,37,1629130737.0,32.000000
-55,8,36,1629130737.0,32.000000
-55,7,36,1629130737.0,32.000000
-55,8,36,1629130737.0,32.000000
-55,8,36,1629130737.0,32.000000
-55,8,37,1629130737.0,32.000000
-55,7,36,1629130737.0,32.000000
-55,7,36,1629130737.0,32.000000
-55,7,36,1629130737.0,32.000000
-55,8,36,1629130737.0,32.000000
-55,8,37,1629130737.0,32.000000
-55,7,37,1629130737.0,32.000000
-55,8,36,1629130737.0,32.000000
-55,8,36,1629130737.0,32.000000
-55,8,36,1629130737.0,32.000000
-55,7,36,1629130737.0,32.000000
-55,7,36,1629130737.0,32.000000
-55,7,36,1629130737.0,32.000000
-55,7,37,1629130737.0,32.000000
-55,8,36,1629130737.0,32.000000
-55,8,36,1629130737.0,32.000000
-55,7,36,1629130737.0,32.000000
-55,7,36,1629130737.0,32.000000
-55,7,37,1629130737.0,32.000000
-54,8,37,1629130737.0,32.000000
-54,8,37,1629130737.0,32.000000
-54,8,37,1629130737.0,32.000000
-55,8,37,1629130737.0,32.000000
-56,8,36,1629130737.0,32.000000
-55,7,36,1629130737.0,32.000000
-55,7,36,1629130737.0,32.000000
-55,7,36,1629130737.0,32.000000
-55,7,36,1629130737.0,32.000000
-55,7,37,1629130737.0,32.000000
-55,7,36,1629130737.0,32.000000
-55,8,36,1629130737.0,32.000000
-55,8,37,1629130737.0,32.000000
-54,7,37,1629130737.0,32.000000
-54,8,38,1629130737.0,32.000000
-55,7,36,1629130737.0,32.000000
-55,7,37,1629130737.0,32.000000
-55,7,38,1629130737.0,32.000000
-54,7,38,1629130737.0,32.000000
-56,7,37,1629130737.0,32.000000
-55,7,40,1629130737.0,32.000000
-54,7,40,1629130737.0,32.000000
-56,6,41,1629130737.0,32.000000
-51,7,42,1629130737.0,32.000000
-50,8,40,1629130737.0,32.000000
-54,7,44,1629130737.0,32.000000
-53,5,45,1629130737.0,32.000000
-46,7,49,1629130737.0,32.000000
-46,7,46,1629130737.0,32.000000
-55,10,44,1629130737.0,32.000000
-44,13,49,1629130737.0,32.000000
-40,14,50,1629130737.0,32.000000
-34,18,53,1629130737.0,32.000000
-32,19,56,1629130737.0,32.000000
-35,22,51,1629130737.0,32.000000
-28,22,52,1629130737.0,32.000000
-22,22,53,1629130737.0,32.000000
-16,24,54,1629130737.0,32.000000
-11,23,56,1629130737.0,32.000000
-5,22,57,1629130737.0,32.000000
-9,25,60,1629130737.0,32.000000
-6,25,61,1629130737.0,32.000000
-9,27,58,1629130737.0,32.000000
-11,28,57,1629130737.0,32.000000
-13,26,56,1629130737.0,32.000000
-17,24,53,1629130737.0,32.000000
-16,24,51,1629130737.0,32.000000
-24,25,53,1629130737.0,32.000000
-22,27,55,1629130737.0,32.000000
-26,29,52,1629130737.0,32.000000
-22,25,53,1629130737.0,32.000000
-24,23,53,1629130737.0,32.000000
-20,23,59,1629130737.0,32.000000
-18,25,57,1629130737.0,32.000000
-18,25,56,1629130737.0,32.000000
-20,25,56,1629130737.0,32.000000
-20,25,56,1629130737.0,32.000000
-20,25,56,1629130737.0,32.000000
-19,25,56,1629130737.0,32.000000
-20,25,55,1629130737.0,32.000000
-18,25,51,1629130737.0,32.000000
-20,25,51,1629130737.0,32.000000
-19,26,59,1629130737.0,32.000000
-17,24,59,1629130737.0,32.000000
-17,24,58,1629130737.0,32.000000
-12,25,56,1629130737.0,32.000000
-10,26,57,1629130737.0,32.000000
-13,27,53,1629130737.0,32.000000
-16,24,47,1629130737.0,32.000000
-19,20,50,1629130737.0,32.000000
-22,12,60,1629130737.0,32.000000
-24,11,63,1629130737.0,32.000000
-19,10,64,1629130737.0,32.000000
-26,15,56,1629130737.0,32.000000
-23,12,58,1629130737.0,32.000000
-22,18,57,1629130737.0,32.000000
-17,20,54,1629130737.0,32.000000
-32,24,64,1629130737.0,32.000000
-39,26,55,1629130737.0,32.000000
-40,21,54,1629130737.0,32.000000
-30,13,55,1629130737.0,32.000000
-28,11,55,1629130737.0,32.000000
-36,8,56,1629130737.0,32.000000
-43,8,52,1629130737.0,32.000000
-43,6,51,1629130737.0,32.000000
-35,7,53,1629130737.0,32.000000
-38,7,53,1629130737.0,32.000000
-46,2,50,1629130737.0,32.000000
-33,5,55,1629130737.0,32.000000
-38,7,52,1629130737.0,32.000000
-46,9,47,1629130737.0,32.000000
-44,7,48,1629130737.0,32.000000
-44,4,50,1629130737.0,32.000000
-43,6,49,1629130737.0,32.000000
-43,6,49,1629130737.0,32.000000
-40,8,50,1629130737.0,32.000000
-41,7,51,1629130737.0,32.000000
-39,6,52,1629130737.0,32.000000
-42,8,49,1629130737.0,32.000000
-43,8,49,1629130737.0,32.000000
-43,9,49,1629130737.0,32.000000
-45,8,48,1629130737.0,32.000000
-45,7,48,1629130737.0,32.000000
-41,6,50,1629130737.0,32.000000
-42,6,50,1629130737.0,32.000000
-42,6,50,1629130737.0,32.000000
-43,6,49,1629130737.0,32.000000
-44,6,49,1629130737.0,32.000000
-43,7,49,1629130737.0,32.000000
-42,7,49,1629130737.0,32.000000
-42,7,50,1629130737.0,32.000000
-42,7,50,1629130737.0,32.000000
-41,7,50,1629130737.0,32.000000
-41,7,50,1629130737.0,32.000000
-41,7,50,1629130737.0,32.000000
-42,7,50,1629130737.0,32.000000
-43,7,49,1629130737.0,32.000000
-43,7,50,1629130737.0,32.000000
-42,7,50,1629130737.0,32.000000
-42,7,50,1629130737.0,32.000000
-42,7,50,1629130737.0,32.000000
-42,7,50,1629130737.0,32.000000
-42,7,50,1629130737.0,32.000000
-41,7,50,1629130737.0,32.000000
-41,8,50,1629130737.0,32.000000
-42,8,50,1629130737.0,32.000000
-42,7,49,1629130737.0,32.000000
-42,8,50,1629130737.0,32.000000
-43,7,49,1629130737.0,32.000000
-43,7,49,1629130737.0,32.000000
-43,7,50,1629130737.0,32.000000
-42,8,50,1629130737.0,32.000000
-41,7,51,1629130737.0,32.000000
-41,7,50,1629130737.0,32.000000
-41,8,50,1629130737.0,32.000000
-42,8,50,1629130737.0,32.000000
-42,8,49,1629130737.0,32.000000
-42,8,49,1629130737.0,32.000000
-41,8,50,1629130737.0,32.000000
-42,8,50,1629130737.0,32.000000
-45,7,48,1629130737.0,32.000000
-43,7,49,1629130737.0,32.000000
-43,7,49,1629130737.0,32.000000
-43,8,49,1629130737.0,32.000000
-43,8,49,1629130737.0,32.000000
-42,8,50,1629130737.0,32.000000
-42,8,50,1629130737.0,32.000000
-42,8,49,1629130737.0,32.000000
-42,8,50,1629130737.0,32.000000
-42,8,50,1629130737.0,32.000000
-43,7,49,1629130737.0,32.000000
-44,8,48,1629130737.0,32.000000
-44,8,48,1629130737.0,32.000000
-42,8,50,1629130737.0,32.000000
-42,7,50,1629130737.0,32.000000
-43,8,49,1629130737.0,32.000000
-42,8,50,1629130737.0,32.000000
-42,7,50,1629130737.0,32.000000
-42,8,49,1629130737.0,32.000000
-42,8,50,1629130737.0,32.000000
-42,8,50,1629130737.0,32.000000
-42,8,50,1629130737.0,32.000000
-41,8,50,1629130737.0,32.000000
-42,8,50,1629130737.0,32.000000
-42,8,49,1629130737.0,32.000000
-42,8,50,1629130737.0,32.000000
-42,7,50,1629130737.0,32.000000
-42,7,50,1629130737.0,32.000000
-43,8,49,1629130737.0,32.000000
-43,8,48,1629130737.0,32.000000
-43,8,49,1629130737.0,32.000000
-43,8,49,1629130737.0,32.000000
-43,8,49,1629130737.0,32.000000
-42,8,49,1629130737.0,32.000000
-42,8,50,1629130737.0,32.000000
-42,8,49,1629130737.0,32.000000
-41,8,50,1629130737.0,32.000000
-42,8,50,1629130737.0,32.000000
-42,8,49,1629130737.0,32.000000
-41,8,50,1629130737.0,32.000000
-41,8,50,1629130737.0,32.000000
-42,8,49,1629130737.0,32.000000
-43,8,49,1629130737.0,32.000000
-42,8,50,1629130737.0,32.000000
-42,8,49,1629130737.0,32.000000
-42,8,50,1629130737.0,32.000000
-42,8,49,1629130737.0,32.000000
-42,8,50,1629130737.0,32.000000
-42,8,50,1629130737.0,32.000000
-42,8,50,1629130737.0,32.000000
-42,8,50,1629130737.0,32.000000
-42,8,50,1629130737.0,32.000000
-41,8,50,1629130737.0,32.000000
-41,8,50,1629130737.0,32.000000
-41,8,50,1629130737.0,32.000000
-42,8,50,1629130737.0,32.000000
-42,8,50,1629130737.0,32.000000
-41,8,50,1629130737.0,32.000000
-42,8,50,1629130737.0,32.000000
-41,8,50,1629130737.0,32.000000
-42,8,49,1629130737.0,32.000000
-41,8,50,1629130737.0,32.000000
-41,8,50,1629130737.0,32.000000
-42,8,49,1629130737.0,32.000000
-42,8,50,1629130737.0,32.000000
-42,8,50,1629130737.0,32.000000
-42,8,50,1629130737.0,32.000000
-42,8,49,1629130737.0,32.000000
-42,8,50,1629130737.0,32.000000
-41,8,50,1629130737.0,32.000000
-42,8,50,1629130737.0,32.000000
-43,8,50,1629130737.0,32.000000
-42,8,50,1629130737.0,32.000000
-42,8,50,1629130737.0,32.000000
-41,8,50,1629130737.0,32.000000
-41,8,50,1629130737.0,32.000000
-41,8,50,1629130737.0,32.000000
-41,8,50,1629130737.0,32.000000
-39,6,51,1629130737.0,32.000000
-44,8,49,1629130737.0,32.000000
-43,8,49,1629130737.0,32.000000
-41,8,50,1629130737.0,32.000000
-42,8,50,1629130737.0,32.000000
-43,8,49,1629130737.0,32.000000
-41,8,50,1629130737.0,32.000000
-42,8,50,1629130737.0,32.000000
-43,8,49,1629130737.0,32.000000
-43,8,49,1629130737.0,32.000000
-42,8,50,1629130737.0,32.000000
-41,8,50,1629130737.0,32.000000
-41,8,50,1629130737.0,32.000000
-42,8,49,1629130737.0,32.000000
-43,8,49,1629130737.0,32.000000
-41,8,50,1629130737.0,32.000000
-42,8,50,1629130737.0,32.000000
-42,8,50,1629130737.0,32.000000
-42,8,50,1629130737.0,32.000000
-40,7,51,1629130737.0,32.000000
-43,8,49,1629130737.0,32.000000
-42,8,50,1629130737.0,32.000000
-42,8,49,1629130737.0,32.000000
-42,8,49,1629130737.0,32.000000
-42,8,50,1629130737.0,32.000000
-43,8,48,1629130737.0,32.000000
-42,7,50,1629130737.0,32.000000
-42,8,49,1629130737.0,32.000000
-43,6,50,1629130737.0,32.000000
-46,7,48,1629130737.0,32.000000
-44,8,48,1629130737.0,32.000000
-43,8,48,1629130737.0,32.000000
-44,8,48,1629130737.0,32.000000
-45,8,47,1629130737.0,32.000000
-43,8,49,1629130737.0,32.000000
-43,8,49,1629130737.0,32.000000
-43,7,49,1629130737.0,32.000000
-43,7,49,1629130737.0,32.000000
-44,8,48,1629130737.0,32.000000
-45,8,48,1629130737.0,32.000000
-43,8,48,1629130737.0,32.000000
-44,8,49,1629130737.0,32.000000
-44,8,48,1629130737.0,32.000000
-43,8,49,1629130737.0,32.000000
-44,8,48,1629130737.0,32.000000
-42,8,50,1629130737.0,32.000000
-45,9,46,1629130737.0,32.000000
-44,9,47,1629130737.0,32.000000
-46,8,47,1629130737.0,32.000000
-44,9,47,1629130737.0,32.000000
-44,9,48,1629130737.0,32.000000
-45,8,48,1629130737.0,32.000000
-43,8,49,1629130737.0,32.000000
-45,9,46,1629130737.0,32.000000
-43,9,49,1629130737.0,32.000000
-44,9,48,1629130737.0,32.000000
-45,8,49,1629130737.0,32.000000
-44,8,49,1629130737.0,32.000000
-45,8,47,1629130737.0,32.000000
-43,8,50,1629130737.0,32.000000
-42,9,48,1629130737.0,32.000000
-44,8,49,1629130737.0,32.000000
-43,9,49,1629130737.0,32.000000
-42,9,49,1629130737.0,32.000000
-44,9,49,1629130737.0,32.000000
-44,8,49,1629130737.0,32.000000
-44,9,48,1629130737.0,32.000000
-44,9,49,1629130737.0,32.000000
-45,10,47,1629130737.0,32.000000
-43,9,49,1629130737.0,32.000000
-43,9,49,1629130737.0,32.000000
-44,9,47,1629130737.0,32.000000
-44,9,48,1629130737.0,32.000000
-43,9,48,1629130737.0,32.000000
-44,9,48,1629130737.0,32.000000
-44,10,48,1629130737.0,32.000000
-45,9,47,1629130737.0,32.000000
-45,10,46,1629130737.0,32.000000
-45,9,49,1629130737.0,32.000000
-45,9,47,1629130737.0,32.000000
-43,9,48,1629130737.0,32.000000
-44,9,48,1629130737.0,32.000000
-44,10,48,1629130737.0,32.000000
-44,9,48,1629130737.0,32.000000
-44,9,48,1629130737.0,32.000000
-45,9,47,1629130737.0,32.000000
-44,9,48,1629130737.0,32.000000
-44,9,48,1629130737.0,32.000000
-43,11,45,1629130737.0,32.000000
-46,9,49,1629130737.0,32.000000
-46,8,49,1629130737.0,32.000000
-49,9,48,1629130737.0,32.000000
-48,7,48,1629130737.0,32.000000
-40,9,56,1629130737.0,32.000000
-37,11,54,1629130737.0,32.000000
-35,11,56,1629130737.0,32.000000
-40,9,52,1629130737.0,32.000000
-47,12,48,1629130737.0,32.000000
-44,12,45,1629130737.0,32.000000
-50,17,40,1629130737.0,32.000000
-51,19,39,1629130737.0,32.000000
-46,22,30,1629130737.0,32.000000
-45,24,27,1629130737.0,32.000000
-60,18,33,1629130737.0,32.000000
-53,14,38,1629130737.0,32.000000
-50,15,34,1629130737.0,32.000000
-53,16,35,1629130737.0,32.000000
-49,16,43,1629130737.0,32.000000
-43,16,49,1629130737.0,32.000000
-43,16,50,1629130737.0,32.000000
-44,16,50,1629130737.0,32.000000
-44,15,46,1629130737.0,32.000000
-46,15,44,1629130737.0,32.000000
-49,18,39,1629130737.0,32.000000
-49,17,40,1629130737.0,32.000000
-48,16,41,1629130737.0,32.000000
-46,15,44,1629130737.0,32.000000
-48,15,44,1629130737.0,32.000000
-47,14,45,1629130737.0,32.000000
-47,14,46,1629130737.0,32.000000
-46,14,46,1629130737.0,32.000000
-47,14,45,1629130737.0,32.000000
-48,15,43,1629130737.0,32.000000
-47,15,44,1629130737.0,32.000000
-48,15,43,1629130737.0,32.000000
-47,16,43,1629130737.0,32.000000
-47,16,45,1629130737.0,32.000000
-46,16,44,1629130737.0,32.000000
-47,16,43,1629130737.0,32.000000
-47,16,41,1629130737.0,32.000000
-48,16,41,1629130737.0,32.000000
-47,16,44,1629130737.0,32.000000
-45,16,44,1629130737.0,32.000000
-46,17,43,1629130737.0,32.000000
-47,16,44,1629130737.0,32.000000
-46,16,45,1629130737.0,32.000000
-48,17,43,1629130737.0,32.000000
-46,16,44,1629130737.0,32.000000
-46,16,45,1629130737.0,32.000000
-45,16,44,1629130737.0,32.000000
-48,17,42,1629130737.0,32.000000
-47,17,43,1629130737.0,32.000000
-47,16,43,1629130737.0,32.000000
-47,16,43,1629130737.0,32.000000
-46,16,44,1629130737.0,32.000000
-46,16,44,1629130737.0,32.000000
-47,17,43,1629130737.0,32.000000
-47,17,43,1629130737.0,32.000000
-46,17,44,1629130737.0,32.000000
-46,17,44,1629130737.0,32.000000
-45,17,44,1629130737.0,32.000000
-46,17,44,1629130737.0,32.000000
-46,17,44,1629130737.0,32.000000
-46,17,43,1629130737.0,32.000000
-46,17,44,1629130737.0,32.000000
-46,16,44,1629130737.0,32.000000
-46,16,45,1629130737.0,32.000000
-45,17,46,1629130737.0,32.000000
-44,17,45,1629130737.0,32.000000
-45,17,44,1629130737.0,32.000000
-45,17,44,1629130737.0,32.000000
-45,17,45,1629130737.0,32.000000
-45,16,46,1629130737.0,32.000000
-44,16,46,1629130737.0,32.000000
-45,17,46,1629130737.0,32.000000
-44,17,46,1629130737.0,32.000000
-44,17,45,1629130737.0,32.000000
-45,17,46,1629130737.0,32.000000
-46,16,48,1629130737.0,32.000000
-43,16,46,1629130737.0,32.000000
-38,18,44,1629130737.0,32.000000
-46,18,44,1629130737.0,32.000000
-46,15,44,1629130737.0,32.000000
-47,16,45,1629130737.0,32.000000
-45,16,47,1629130737.0,32.000000
-45,15,47,1629130737.0,32.000000
-44,15,45,1629130737.0,32.000000
-44,16,46,1629130737.0,32.000000
-44,16,46,1629130737.0,32.000000
-46,15,45,1629130737.0,32.000000
-50,15,42,1629130737.0,32.000000
-50,16,42,1629130737.0,32.000000
-47,16,42,1629130737.0,32.000000
-47,16,43,1629130737.0,32.000000
-43,15,44,1629130737.0,32.000000
-41,15,45,1629130737.0,32.000000
-45,13,46,1629130737.0,32.000000
-30,9,63,1629130737.0,32.000000
-32,12,59,1629130737.0,32.000000
-43,12,46,1629130737.0,32.000000
-41,14,46,1629130737.0,32.000000
-42,15,47,1629130737.0,32.000000
-43,15,48,1629130737.0,32.000000
-44,15,47,1629130737.0,32.000000
-41,14,48,1629130737.0,32.000000
-40,14,50,1629130737.0,32.000000
-40,14,50,1629130737.0,32.000000
-42,14,48,1629130737.0,32.000000
-42,14,48,1629130737.0,32.000000
-42,15,48,1629130737.0,32.000000
-41,14,49,1629130737.0,32.000000
-41,14,49,1629130737.0,32.000000
-41,14,49,1629130737.0,32.000000
-42,14,48,1629130737.0,32.000000
-42,15,48,1629130737.0,32.000000
-42,14,48,1629130737.0,32.000000
-42,14,48,1629130737.0,32.000000
-41,14,49,1629130737.0,32.000000
-41,14,49,1629130737.0,32.000000
-42,14,47,1629130737.0,32.000000
-40,14,51,1629130737.0,32.000000
-40,14,52,1629130737.0,32.000000
-43,14,47,1629130737.0,32.000000
-43,15,49,1629130737.0,32.000000
-43,15,47,1629130737.0,32.000000
-47,15,47,1629130737.0,32.000000
-43,17,47,1629130737.0,32.000000
-43,15,45,1629130737.0,32.000000
-46,16,44,1629130737.0,32.000000
-44,15,46,1629130737.0,32.000000
-43,15,45,1629130737.0,32.000000
-46,15,46,1629130737.0,32.000000
-42,15,48,1629130737.0,32.000000
-43,14,48,1629130737.0,32.000000
-43,14,48,1629130737.0,32.000000
-43,15,47,1629130737.0,32.000000
-43,15,47,1629130737.0,32.000000
-44,15,47,1629130737.0,32.000000
-45,16,45,1629130737.0,32.000000
-44,15,46,1629130737.0,32.000000
-43,15,48,1629130737.0,32.000000
-43,15,48,1629130737.0,32.000000
-44,15,46,1629130737.0,32.000000
-45,15,46,1629130737.0,32.000000
-43,15,47,1629130737.0,32.000000
-43,15,48,1629130737.0,32.000000
-42,15,48,1629130737.0,32.000000
-43,15,47,1629130737.0,32.000000
-42,15,46,1629130737.0,32.000000
-44,15,47,1629130737.0,32.000000
-44,15,46,1629130737.0,32.000000
-42,15,47,1629130737.0,32.000000
-45,15,45,1629130737.0,32.000000
-44,15,47,1629130737.0,32.000000
-43,14,48,1629130737.0,32.000000
-42,15,48,1629130737.0,32.000000
-43,15,47,1629130737.0,32.000000
-44,15,48,1629130737.0,32.000000
-43,15,47,1629130737.0,32.000000
-44,15,47,1629130737.0,32.000000
-44,15,46,1629130737.0,32.000000
-44,15,46,1629130737.0,32.000000
-43,15,47,1629130737.0,32.000000
-43,15,47,1629130737.0,32.000000
-44,15,47,1629130737.0,32.000000
-43,15,47,1629130737.0,32.000000
-44,15,47,1629130737.0,32.000000
-44,15,46,1629130737.0,32.000000
-43,15,47,1629130737.0,32.000000
-43,15,47,1629130737.0,32.000000
-43,16,47,1629130737.0,32.000000
-43,16,47,1629130737.0,32.000000
-44,16,47,1629130737.0,32.000000
-44,15,46,1629130737.0,32.000000
-44,15,47,1629130737.0,32.000000
-42,15,48,1629130737.0,32.000000
-44,16,47,1629130737.0,32.000000
-44,17,46,1629130737.0,32.000000
-42,17,49,1629130737.0,32.000000
-43,17,48,1629130737.0,32.000000
-44,17,46,1629130737.0,32.000000
-45,17,44,1629130737.0,32.000000
-46,18,44,1629130737.0,32.000000
-48,19,41,1629130737.0,32.000000
-48,18,41,1629130737.0,32.000000
-46,18,41,1629130737.0,32.000000
-48,19,40,1629130737.0,32.000000
-45,19,43,1629130737.0,32.000000
-46,20,41,1629130737.0,32.000000
-46,20,41,1629130737.0,32.000000
-47,20,42,1629130737.0,32.000000
-46,19,42,1629130737.0,32.000000
-46,19,43,1629130737.0,32.000000
-48,20,41,1629130737.0,32.000000
-47,20,42,1629130737.0,32.000000
-47,20,42,1629130737.0,32.000000
-47,19,42,1629130737.0,32.000000
-46,19,42,1629130737.0,32.000000
-47,20,41,1629130737.0,32.000000
-47,19,42,1629130737.0,32.000000
-46,19,44,1629130737.0,32.000000
-46,19,43,1629130737.0,32.000000
-47,20,42,1629130737.0,32.000000
-47,19,42,1629130737.0,32.000000
-47,19,42,1629130737.0,32.000000
-46,20,42,1629130737.0,32.000000
-46,20,42,1629130737.0,32.000000
-47,20,42,1629130737.0,32.000000
-46,19,43,1629130737.0,32.000000
-47,19,41,1629130737.0,32.000000
-45,19,42,1629130737.0,32.000000
-46,19,44,1629130737.0,32.000000
-46,20,44,1629130737.0,32.000000
-49,19,39,1629130737.0,32.000000
-45,18,42,1629130737.0,32.000000
-45,19,45,1629130737.0,32.000000
-43,18,45,1629130737.0,32.000000
-48,19,43,1629130737.0,32.000000
-48,19,40,1629130737.0,32.000000
-47,18,42,1629130737.0,32.000000
-44,18,45,1629130737.0,32.000000
-44,17,45,1629130737.0,32.000000
-48,17,41,1629130737.0,32.000000
-44,18,46,1629130737.0,32.000000
-43,18,47,1629130737.0,32.000000
-44,16,45,1629130737.0,32.000000
-43,16,46,1629130737.0,32.000000
-45,15,49,1629130737.0,32.000000
-44,15,47,1629130737.0,32.000000
-44,16,46,1629130737.0,32.000000
-44,16,45,1629130737.0,32.000000
-45,16,45,1629130737.0,32.000000
-45,16,45,1629130737.0,32.000000
-44,16,46,1629130737.0,32.000000
-45,16,45,1629130737.0,32.000000
-44,16,46,1629130737.0,32.000000
-44,16,47,1629130737.0,32.000000
-44,16,46,1629130737.0,32.000000
-45,16,45,1629130737.0,32.000000
-43,16,46,1629130737.0,32.000000
-42,16,48,1629130737.0,32.000000
-45,16,46,1629130737.0,32.000000
-46,16,44,1629130737.0,32.000000
-44,16,45,1629130737.0,32.000000
-45,17,45,1629130737.0,32.000000
-42,16,47,1629130737.0,32.000000
-43,16,48,1629130737.0,32.000000
-44,15,47,1629130737.0,32.000000
-44,15,47,1629130737.0,32.000000
-42,16,49,1629130737.0,32.000000
-44,15,47,1629130737.0,32.000000
-45,15,46,1629130737.0,32.000000
-44,16,46,1629130737.0,32.000000
-45,16,45,1629130737.0,32.000000
-48,16,42,1629130737.0,32.000000
-46,15,47,1629130737.0,32.000000
-42,16,48,1629130737.0,32.000000
-44,15,48,1629130737.0,32.000000
-35,17,51,1629130737.0,32.000000
-34,16,54,1629130737.0,32.000000
-35,17,51,1629130737.0,32.000000
-36,16,52,1629130737.0,32.000000
-33,18,54,1629130737.0,32.000000
-32,18,53,1629130737.0,32.000000
-31,17,53,1629130737.0,32.000000
-29,17,55,1629130737.0,32.000000
-32,18,53,1629130737.0,32.000000
-32,18,53,1629130737.0,32.000000
-33,18,53,1629130737.0,32.000000
-33,17,54,1629130737.0,32.000000
-33,17,54,1629130737.0,32.000000
-35,18,52,1629130737.0,32.000000
-34,17,53,1629130737.0,32.000000
-34,18,52,1629130737.0,32.000000
-35,17,53,1629130737.0,32.000000
-34,17,53,1629130737.0,32.000000
-32,17,54,1629130737.0,32.000000
-33,17,53,1629130737.0,32.000000
-33,17,54,1629130737.0,32.000000
-32,17,54,1629130737.0,32.000000
-35,18,52,1629130737.0,32.000000
-33,18,52,1629130737.0,32.000000
-34,18,52,1629130737.0,32.000000
-34,18,52,1629130737.0,32.000000
-34,18,52,1629130737.0,32.000000
-33,18,53,1629130737.0,32.000000
-33,17,53,1629130737.0,32.000000
-34,17,53,1629130737.0,32.000000
-34,18,53,1629130737.0,32.000000
-34,18,52,1629130737.0,32.000000
-35,19,51,1629130737.0,32.000000
-38,18,49,1629130737.0,32.000000
-32,18,54,1629130737.0,32.000000
-32,17,56,1629130737.0,32.000000
-32,17,55,1629130737.0,32.000000
-34,17,52,1629130737.0,32.000000
-35,18,51,1629130737.0,32.000000
-37,18,50,1629130737.0,32.000000
-34,17,53,1629130737.0,32.000000
-35,17,53,1629130737.0,32.000000
-34,17,53,1629130737.0,32.000000
-33,17,53,1629130737.0,32.000000
-34,17,53,1629130737.0,32.000000
-35,17,52,1629130737.0,32.000000
-34,18,53,1629130737.0,32.000000
-34,17,53,1629130737.0,32.000000
-32,17,54,1629130737.0,32.000000
-33,17,54,1629130737.0,32.000000
-34,18,53,1629130737.0,32.000000
-34,18,53,1629130737.0,32.000000
-34,19,52,1629130737.0,32.000000
-35,19,51,1629130737.0,32.000000
-35,18,51,1629130737.0,32.000000
-34,18,52,1629130737.0,32.000000
-34,18,52,1629130737.0,32.000000
-34,18,53,1629130737.0,32.000000
-33,18,53,1629130737.0,32.000000
-33,18,53,1629130737.0,32.000000
-34,18,52,1629130737.0,32.000000
-34,18,52,1629130737.0,32.000000
-34,18,52,1629130737.0,32.000000
-34,18,53,1629130737.0,32.000000
-33,18,53,1629130737.0,32.000000
-33,18,53,1629130737.0,32.000000
-33,18,53,1629130737.0,32.000000
-34,18,53,1629130737.0,32.000000
-34,18,52,1629130737.0,32.000000
-33,18,53,1629130737.0,32.000000
-33,18,53,1629130737.0,32.000000
-34,18,53,1629130737.0,32.000000
-34,18,53,1629130737.0,32.000000
-33,18,53,1629130737.0,32.000000
-33,18,53,1629130737.0,32.000000
-33,18,53,1629130737.0,32.000000
-34,18,52,1629130737.0,32.000000
-34,18,53,1629130737.0,32.000000
-33,18,52,1629130737.0,32.000000
-33,18,52,1629130737.0,32.000000
-33,18,53,1629130737.0,32.000000
-34,18,53,1629130737.0,32.000000
-33,18,53,1629130737.0,32.000000
-33,18,52,1629130737.0,32.000000
-33,18,53,1629130737.0,32.000000
-34,18,53,1629130737.0,32.000000
-34,18,52,1629130737.0,32.000000
-34,18,52,1629130737.0,32.000000
-33,18,53,1629130737.0,32.000000
-33,18,53,1629130737.0,32.000000
-34,17,53,1629130737.0,32.000000
-34,18,53,1629130737.0,32.000000
-34,18,53,1629130737.0,32.000000
-33,17,53,1629130737.0,32.000000
-34,18,53,1629130737.0,32.000000
-34,18,52,1629130737.0,32.000000
-34,17,53,1629130737.0,32.000000
-34,17,53,1629130737.0,32.000000
-34,17,53,1629130737.0,32.000000
-34,18,53,1629130737.0,32.000000
-33,18,53,1629130737.0,32.000000
-33,17,53,1629130737.0,32.000000
-33,18,53,1629130737.0,32.000000
-34,18,53,1629130737.0,32.000000
-33,17,53,1629130737.0,32.000000
-33,17,53,1629130737.0,32.000000
-34,17,53,1629130737.0,32.000000
-33,18,52,1629130737.0,32.000000
-33,18,53,1629130737.0,32.000000
-33,18,53,1629130737.0,32.000000
-33,17,53,1629130737.0,32.000000
-32,17,54,1629130737.0,32.000000
-33,18,53,1629130737.0,32.000000
-33,17,52,1629130737.0,32.000000
-34,18,52,1629130737.0,32.000000
-33,17,53,1629130737.0,32.000000
-33,18,53,1629130737.0,32.000000
-33,18,53,1629130737.0,32.000000
-33,18,53,1629130737.0,32.000000
-33,18,53,1629130737.0,32.000000
-33,18,53,1629130737.0,32.000000
-33,18,53,1629130737.0,32.000000
-33,17,53,1629130737.0,32.000000
-33,18,53,1629130737.0,32.000000
-33,18,53,1629130737.0,32.000000
-33,18,53,1629130737.0,32.000000
-33,17,54,1629130737.0,32.000000
-33,17,54,1629130737.0,32.000000
-33,17,53,1629130737.0,32.000000
-33,17,53,1629130737.0,32.000000
-33,17,53,1629130737.0,32.000000
-33,17,53,1629130737.0,32.000000
-33,17,53,1629130737.0,32.000000
-33,17,53,1629130737.0,32.000000
-33,17,54,1629130737.0,32.000000
-33,17,54,1629130737.0,32.000000
-33,17,53,1629130737.0,32.000000
-33,18,53,1629130737.0,32.000000
-33,17,54,1629130737.0,32.000000
-33,18,53,1629130737.0,32.000000
-33,17,53,1629130737.0,32.000000
-33,17,53,1629130737.0,32.000000
-33,17,54,1629130737.0,32.000000
-33,17,53,1629130737.0,32.000000
-33,17,54,1629130737.0,32.000000
-32,17,54,1629130737.0,32.000000
-33,17,53,1629130737.0,32.000000
-33,17,53,1629130737.0,32.000000
-33,17,54,1629130737.0,32.000000
-33,17,54,1629130737.0,32.000000
-33,17,54,1629130737.0,32.000000
-33,17,53,1629130737.0,32.000000
-33,17,54,1629130737.0,32.000000
-33,17,53,1629130737.0,32.000000
-33,17,54,1629130737.0,32.000000
-33,17,54,1629130737.0,32.000000
-32,17,54,1629130737.0,32.000000
-32,17,54,1629130737.0,32.000000
-33,17,53,1629130737.0,32.000000
-33,17,53,1629130737.0,32.000000
-33,17,53,1629130737.0,32.000000
-33,17,53,1629130737.0,32.000000
-33,17,54,1629130737.0,32.000000
-32,17,54,1629130737.0,32.000000
-33,17,54,1629130737.0,32.000000
-33,17,54,1629130737.0,32.000000
-33,17,53,1629130737.0,32.000000
-33,17,54,1629130737.0,32.000000
-32,17,54,1629130737.0,32.000000
-32,17,54,1629130737.0,32.000000
-33,17,54,1629130737.0,32.000000
-33,17,53,1629130737.0,32.000000
-33,17,53,1629130737.0,32.000000
-32,17,54,1629130737.0,32.000000
-32,17,54,1629130737.0,32.000000
-32,17,54,1629130737.0,32.000000
-33,17,53,1629130737.0,32.000000
-33,17,53,1629130737.0,32.000000
-32,17,54,1629130737.0,32.000000
-32,17,54,1629130737.0,32.000000
-32,17,54,1629130737.0,32.000000
-33,17,55,1629130737.0,32.000000
-32,17,53,1629130737.0,32.000000
-32,17,54,1629130737.0,32.000000
-32,17,54,1629130737.0,32.000000
-30,17,53,1629130737.0,32.000000
-34,17,52,1629130737.0,32.000000
-34,17,53,1629130737.0,32.000000
-31,17,54,1629130737.0,32.000000
-32,16,56,1629130737.0,32.000000
-31,16,56,1629130737.0,32.000000
-32,17,54,1629130737.0,32.000000
-33,17,53,1629130737.0,32.000000
-33,17,53,1629130737.0,32.000000
-32,17,54,1629130737.0,32.000000
-32,17,54,1629130737.0,32.000000
-32,16,54,1629130737.0,32.000000
-32,16,54,1629130737.0,32.000000
-33,17,53,1629130737.0,32.000000
-33,16,54,1629130737.0,32.000000
-32,17,54,1629130737.0,32.000000
-33,16,54,1629130737.0,32.000000
-32,17,54,1629130737.0,32.000000
-33,17,53,1629130737.0,32.000000
-33,17,53,1629130737.0,32.000000
-32,17,54,1629130737.0,32.000000
-31,16,56,1629130737.0,32.000000
-32,16,54,1629130737.0,32.000000
-32,16,55,1629130737.0,32.000000
-32,16,53,1629130737.0,32.000000
-32,16,54,1629130737.0,32.000000
-32,17,53,1629130737.0,32.000000
-32,17,53,1629130737.0,32.000000
-33,17,53,1629130737.0,32.000000
-32,17,55,1629130737.0,32.000000
-31,17,55,1629130737.0,32.000000
-32,17,54,1629130737.0,32.000000
-32,17,54,1629130737.0,32.000000
-33,17,54,1629130737.0,32.000000
-32,17,54,1629130737.0,32.000000
-32,17,55,1629130737.0,32.000000
-31,17,54,1629130737.0,32.000000
-32,17,54,1629130737.0,32.000000
-33,17,54,1629130737.0,32.000000
-32,17,54,1629130737.0,32.000000
-32,17,54,1629130737.0,32.000000
-31,16,54,1629130737.0,32.000000
-32,17,54,1629130737.0,32.000000
-32,17,54,1629130737.0,32.000000
-31,17,54,1629130737.0,32.000000
-31,17,54,1629130737.0,32.000000
-32,16,54,1629130737.0,32.000000
-31,16,54,1629130737.0,32.000000
-32,17,54,1629130737.0,32.000000
-32,17,53,1629130737.0,32.000000
-31,17,54,1629130737.0,32.000000
-30,16,55,1629130737.0,32.000000
-32,16,54,1629130737.0,32.000000
-32,17,54,1629130737.0,32.000000
-33,18,55,1629130737.0,32.000000
-37,18,57,1629130737.0,32.000000
-31,19,48,1629130737.0,32.000000
-22,17,55,1629130737.0,32.000000
-24,13,59,1629130737.0,32.000000
-28,12,57,1629130737.0,32.000000
-26,12,57,1629130737.0,32.000000
-26,13,55,1629130737.0,32.000000
-36,15,58,1629130737.0,32.000000
-32,16,55,1629130737.0,32.000000
-27,18,55,1629130737.0,32.000000
-28,16,58,1629130737.0,32.000000
-29,15,57,1629130737.0,32.000000
-29,14,57,1629130737.0,32.000000
-29,15,57,1629130737.0,32.000000
-29,15,55,1629130737.0,32.000000
-31,15,55,1629130737.0,32.000000
-30,15,55,1629130737.0,32.000000
-31,15,55,1629130737.0,32.000000
-31,15,55,1629130737.0,32.000000
-30,16,56,1629130737.0,32.000000
-30,16,55,1629130737.0,32.000000
-30,16,55,1629130737.0,32.000000
-30,15,55,1629130737.0,32.000000
-30,15,56,1629130737.0,32.000000
-31,15,56,1629130737.0,32.000000
-30,15,55,1629130737.0,32.000000
-30,15,56,1629130737.0,32.000000
-30,15,55,1629130737.0,32.000000
-30,15,56,1629130737.0,32.000000
-31,15,55,1629130737.0,32.000000
-30,15,55,1629130737.0,32.000000
-30,16,54,1629130737.0,32.000000
-30,16,56,1629130737.0,32.000000
-30,15,56,1629130737.0,32.000000
-30,15,55,1629130737.0,32.000000
-31,15,56,1629130737.0,32.000000
-30,15,56,1629130737.0,32.000000
-32,15,56,1629130737.0,32.000000
-32,15,55,1629130737.0,32.000000
-30,14,55,1629130737.0,32.000000
-31,14,55,1629130737.0,32.000000
-31,14,55,1629130737.0,32.000000
-31,15,55,1629130737.0,32.000000
-31,15,55,1629130737.0,32.000000
-31,16,54,1629130737.0,32.000000
-30,15,56,1629130737.0,32.000000
-31,15,55,1629130737.0,32.000000
-30,15,56,1629130737.0,32.000000
-30,15,56,1629130737.0,32.000000
-30,15,55,1629130737.0,32.000000
-30,15,55,1629130737.0,32.000000
-30,15,56,1629130737.0,32.000000
-31,14,55,1629130737.0,32.000000
-31,15,55,1629130737.0,32.000000
-31,15,55,1629130737.0,32.000000
-31,15,55,1629130737.0,32.000000
-31,15,56,1629130737.0,32.000000
-30,14,56,1629130737.0,32.000000
-30,15,55,1629130737.0,32.000000
-31,14,55,1629130737.0,32.000000
-31,15,55,1629130737.0,32.000000
-31,15,54,1629130737.0,32.000000
-32,14,55,1629130737.0,32.000000
-33,15,59,1629130737.0,32.000000
-30,16,57,1629130737.0,32.000000
-27,15,54,1629130737.0,32.000000
-29,13,55,1629130737.0,32.000000
-28,13,57,1629130737.0,32.000000
-24,12,56,1629130737.0,32.000000
-25,13,56,1629130737.0,32.000000
-26,14,53,1629130737.0,32.000000
-29,14,57,1629130737.0,32.000000
-36,14,56,1629130737.0,32.000000
-34,14,57,1629130737.0,32.000000
-34,13,56,1629130737.0,32.000000
-31,14,56,1629130737.0,32.000000
-31,13,56,1629130737.0,32.000000
-32,13,55,1629130737.0,32.000000
-31,13,55,1629130737.0,32.000000
-32,13,55,1629130737.0,32.000000
-32,14,55,1629130737.0,32.000000
-32,14,55,1629130737.0,32.000000
-32,14,54,1629130737.0,32.000000
-32,13,55,1629130737.0,32.000000
-32,14,55,1629130737.0,32.000000
-31,14,55,1629130737.0,32.000000
-31,14,55,1629130737.0,32.000000
-32,14,55,1629130737.0,32.000000
-32,14,55,1629130737.0,32.000000
-31,14,55,1629130737.0,32.000000
-31,14,55,1629130737.0,32.000000
-31,13,55,1629130737.0,32.000000
-31,14,55,1629130737.0,32.000000
-35,13,58,1629130737.0,32.000000
-40,12,61,1629130737.0,32.000000
-23,15,55,1629130737.0,32.000000
-22,17,52,1629130737.0,32.000000
-31,13,55,1629130737.0,32.000000
-24,12,56,1629130737.0,32.000000
-24,13,56,1629130737.0,32.000000
-28,14,53,1629130737.0,32.000000
-28,13,56,1629130737.0,32.000000
-30,15,59,1629130737.0,32.000000
-26,15,58,1629130737.0,32.000000
-27,14,59,1629130737.0,32.000000
-28,13,57,1629130737.0,32.000000
-28,13,57,1629130737.0,32.000000
-28,13,57,1629130737.0,32.000000
-28,13,57,1629130737.0,32.000000
-28,14,56,1629130737.0,32.000000
-30,14,56,1629130737.0,32.000000
-30,14,56,1629130737.0,32.000000
-29,14,56,1629130737.0,32.000000
-29,14,56,1629130737.0,32.000000
-29,13,56,1629130737.0,32.000000
-29,14,56,1629130737.0,32.000000
-29,14,56,1629130737.0,32.000000
-30,14,56,1629130737.0,32.000000
-30,14,56,1629130737.0,32.000000
-29,14,56,1629130737.0,32.000000
-30,14,56,1629130737.0,32.000000
-30,14,56,1629130737.0,32.000000
-29,14,56,1629130737.0,32.000000
-29,14,56,1629130737.0,32.000000
-29,14,56,1629130737.0,32.000000
-29,14,56,1629130737.0,32.000000
-30,14,56,1629130737.0,32.000000
-29,14,56,1629130737.0,32.000000
-29,14,56,1629130737.0,32.000000
-29,14,56,1629130737.0,32.000000
-30,14,57,1629130737.0,32.000000
-29,14,56,1629130737.0,32.000000
-30,14,55,1629130737.0,32.000000
-36,13,58,1629130737.0,32.000000
-36,14,60,1629130737.0,32.000000
-25,17,56,1629130737.0,32.000000
-23,15,58,1629130737.0,32.000000
-26,10,56,1629130737.0,32.000000
-25,11,56,1629130737.0,32.000000
-24,13,55,1629130737.0,32.000000
-28,14,56,1629130737.0,32.000000
-32,14,57,1629130737.0,32.000000
-32,16,57,1629130737.0,32.000000
-31,14,57,1629130737.0,32.000000
-32,13,58,1629130737.0,32.000000
-30,13,56,1629130737.0,32.000000
-31,13,55,1629130737.0,32.000000
-30,13,56,1629130737.0,32.000000
-30,14,55,1629130737.0,32.000000
-31,14,56,1629130737.0,32.000000
-30,13,56,1629130737.0,32.000000
-31,13,55,1629130737.0,32.000000
-31,13,56,1629130737.0,32.000000
-30,14,55,1629130737.0,32.000000
-30,14,56,1629130737.0,32.000000
-30,14,56,1629130737.0,32.000000
-30,14,56,1629130737.0,32.000000
-31,13,56,1629130737.0,32.000000
-35,14,57,1629130737.0,32.000000
-30,15,54,1629130737.0,32.000000
-23,15,55,1629130737.0,32.000000
-26,12,55,1629130737.0,32.000000
-26,12,54,1629130737.0,32.000000
-28,13,57,1629130737.0,32.000000
-32,13,57,1629130737.0,32.000000
-32,14,58,1629130737.0,32.000000
-32,13,55,1629130737.0,32.000000
-31,13,56,1629130737.0,32.000000
-31,13,56,1629130737.0,32.000000
-31,13,56,1629130737.0,32.000000
-31,13,55,1629130737.0,32.000000
-31,14,56,1629130737.0,32.000000
-31,14,56,1629130737.0,32.000000
-31,13,56,1629130737.0,32.000000
-31,13,56,1629130737.0,32.000000
-31,13,55,1629130737.0,32.000000
-31,13,55,1629130737.0,32.000000
-30,14,56,1629130737.0,32.000000
-31,13,56,1629130737.0,32.000000
-31,13,56,1629130737.0,32.000000
-31,13,55,1629130737.0,32.000000
-31,13,55,1629130737.0,32.000000
-31,13,56,1629130737.0,32.000000
-31,14,56,1629130737.0,32.000000
-30,14,56,1629130737.0,32.000000
-31,14,55,1629130737.0,32.000000
-31,13,55,1629130737.0,32.000000
-31,14,55,1629130737.0,32.000000
-31,13,55,1629130737.0,32.000000
-31,13,56,1629130737.0,32.000000
-31,13,56,1629130737.0,32.000000
-31,13,55,1629130737.0,32.000000
-31,13,56,1629130737.0,32.000000
-30,13,56,1629130737.0,32.000000
-31,13,56,1629130737.0,32.000000
-31,13,56,1629130737.0,32.000000
-31,14,55,1629130737.0,32.000000
-32,13,56,1629130737.0,32.000000
-30,13,57,1629130737.0,32.000000
-29,14,55,1629130737.0,32.000000
-37,14,56,1629130737.0,32.000000
-25,14,54,1629130737.0,32.000000
-24,12,56,1629130737.0,32.000000
-25,12,57,1629130737.0,32.000000
-25,13,56,1629130737.0,32.000000
-29,14,57,1629130737.0,32.000000
-33,14,57,1629130737.0,32.000000
-32,14,54,1629130737.0,32.000000
-31,13,56,1629130737.0,32.000000
-30,13,57,1629130737.0,32.000000
-30,13,57,1629130737.0,32.000000
-30,13,55,1629130737.0,32.000000
-30,13,56,1629130737.0,32.000000
-31,13,56,1629130737.0,32.000000
-31,13,56,1629130737.0,32.000000
-31,13,56,1629130737.0,32.000000
-30,13,56,1629130737.0,32.000000
-31,13,56,1629130737.0,32.000000
-31,13,55,1629130737.0,32.000000
-31,13,56,1629130737.0,32.000000
-31,13,55,1629130737.0,32.000000
-31,13,56,1629130737.0,32.000000
-30,13,56,1629130737.0,32.000000
-31,14,56,1629130737.0,32.000000
-31,13,56,1629130737.0,32.000000
-31,13,55,1629130737.0,32.000000
-31,13,55,1629130737.0,32.000000
-31,14,56,1629130737.0,32.000000
-30,13,56,1629130737.0,32.000000
-30,13,56,1629130737.0,32.000000
-30,13,56,1629130737.0,32.000000
-30,13,56,1629130737.0,32.000000
-31,14,56,1629130737.0,32.000000
-31,14,56,1629130737.0,32.000000
-31,13,56,1629130737.0,32.000000
-30,13,56,1629130737.0,32.000000
-31,13,56,1629130737.0,32.000000
-31,13,56,1629130737.0,32.000000
-31,13,55,1629130737.0,32.000000
-30,13,56,1629130737.0,32.000000
-31,13,56,1629130737.0,32.000000
-32,14,55,1629130737.0,32.000000
-35,13,56,1629130737.0,32.000000
-31,14,53,1629130737.0,32.000000
-25,13,58,1629130737.0,32.000000
-26,12,57,1629130737.0,32.000000
-27,13,56,1629130737.0,32.000000
-27,13,56,1629130737.0,32.000000
-31,13,56,1629130737.0,32.000000
-32,13,53,1629130737.0,32.000000
-33,13,55,1629130737.0,32.000000
-31,13,57,1629130737.0,32.000000
-31,13,57,1629130737.0,32.000000
-31,13,55,1629130737.0,32.000000
-30,13,56,1629130737.0,32.000000
-30,13,56,1629130737.0,32.000000
-31,13,56,1629130737.0,32.000000
-31,13,56,1629130737.0,32.000000
-31,13,56,1629130737.0,32.000000
-31,13,56,1629130737.0,32.000000
-30,13,56,1629130737.0,32.000000
-31,13,55,1629130737.0,32.000000
-31,13,56,1629130737.0,32.000000
-31,13,56,1629130737.0,32.000000
-31,13,56,1629130737.0,32.000000
-31,13,55,1629130737.0,32.000000
-30,13,56,1629130737.0,32.000000
-31,13,56,1629130737.0,32.000000
-31,13,56,1629130737.0,32.000000
-31,13,56,1629130737.0,32.000000
-31,13,56,1629130737.0,32.000000
-31,13,56,1629130737.0,32.000000
-31,13,56,1629130737.0,32.000000
-31,13,56,1629130737.0,32.000000
-32,13,56,1629130737.0,32.000000
-31,13,54,1629130737.0,32.000000
-29,13,56,1629130737.0,32.000000
-28,13,56,1629130737.0,32.000000
-28,13,56,1629130737.0,32.000000
-29,14,56,1629130737.0,32.000000
-28,13,56,1629130737.0,32.000000
-33,13,57,1629130737.0,32.000000
-33,13,55,1629130737.0,32.000000
-32,13,56,1629130737.0,32.000000
-31,12,56,1629130737.0,32.000000
-31,13,56,1629130737.0,32.000000
-31,13,56,1629130737.0,32.000000
-31,13,56,1629130737.0,32.000000
-31,13,56,1629130737.0,32.000000
-31,13,56,1629130737.0,32.000000
-31,13,56,1629130737.0,32.000000
-31,13,56,1629130737.0,32.000000
-31,13,55,1629130737.0,32.000000
-31,13,56,1629130737.0,32.000000
-31,13,56,1629130737.0,32.000000
-31,13,56,1629130737.0,32.000000
-31,13,56,1629130737.0,32.000000
-30,13,55,1629130737.0,32.000000
-31,13,56,1629130737.0,32.000000
-31,13,56,1629130737.0,32.000000
-31,13,56,1629130737.0,32.000000
-31,13,55,1629130737.0,32.000000
-31,13,56,1629130737.0,32.000000
-31,13,56,1629130737.0,32.000000
-31,13,56,1629130737.0,32.000000
-31,13,56,1629130737.0,32.000000
-31,13,56,1629130737.0,32.000000
-31,13,56,1629130737.0,32.000000
-31,13,56,1629130737.0,32.000000
-31,13,55,1629130737.0,32.000000
-32,13,55,1629130737.0,32.000000
-31,13,56,1629130737.0,32.000000
-31,13,56,1629130737.0,32.000000
-34,14,57,1629130737.0,32.000000
-31,13,55,1629130737.0,32.000000
-27,13,55,1629130737.0,32.000000
-27,12,58,1629130737.0,32.000000
-27,13,56,1629130737.0,32.000000
-28,13,56,1629130737.0,32.000000
-31,13,56,1629130737.0,32.000000
-32,13,54,1629130737.0,32.000000
-32,13,54,1629130737.0,32.000000
-31,12,57,1629130737.0,32.000000
-31,12,56,1629130737.0,32.000000
-31,13,56,1629130737.0,32.000000
-31,13,56,1629130737.0,32.000000
-31,13,55,1629130737.0,32.000000
-32,13,55,1629130737.0,32.000000
-31,13,56,1629130737.0,32.000000
-31,13,56,1629130737.0,32.000000
-31,13,55,1629130737.0,32.000000
-31,13,56,1629130737.0,32.000000
-31,13,56,1629130737.0,32.000000
-31,13,55,1629130737.0,32.000000
-31,13,56,1629130737.0,32.000000
-31,13,56,1629130737.0,32.000000
-31,13,56,1629130737.0,32.000000
-31,13,56,1629130737.0,32.000000
-31,13,56,1629130737.0,32.000000
-31,13,55,1629130737.0,32.000000
-31,13,55,1629130737.0,32.000000
-31,13,56,1629130737.0,32.000000
-31,13,56,1629130737.0,32.000000
-31,13,56,1629130737.0,32.000000
-31,13,55,1629130737.0,32.000000
-31,13,55,1629130737.0,32.000000
-31,13,55,1629130737.0,32.000000
-31,13,56,1629130737.0,32.000000
-31,13,56,1629130737.0,32.000000
-31,13,55,1629130737.0,32.000000
-31,13,56,1629130737.0,32.000000
-31,13,56,1629130737.0,32.000000
-31,13,56,1629130737.0,32.000000
-31,13,56,1629130737.0,32.000000
-31,13,56,1629130737.0,32.000000
-31,13,56,1629130737.0,32.000000
-31,13,55,1629130737.0,32.000000
-31,13,56,1629130737.0,32.000000
-31,13,55,1629130737.0,32.000000
-31,13,55,1629130737.0,32.000000
-31,13,56,1629130737.0,32.000000
-31,13,56,1629130737.0,32.000000
-31,13,55,1629130737.0,32.000000
-31,13,55,1629130737.0,32.000000
-31,13,56,1629130737.0,32.000000
-31,13,56,1629130737.0,32.000000
-31,13,55,1629130737.0,32.000000
-31,13,55,1629130737.0,32.000000
-32,13,55,1629130737.0,32.000000
-35,13,57,1629130737.0,32.000000
-31,14,56,1629130737.0,32.000000
-26,13,57,1629130737.0,32.000000
-28,12,56,1629130737.0,32.000000
-28,12,55,1629130737.0,32.000000
-28,13,56,1629130737.0,32.000000
-29,13,56,1629130737.0,32.000000
-32,13,55,1629130737.0,32.000000
-33,12,54,1629130737.0,32.000000
-34,13,54,1629130737.0,32.000000
-32,12,56,1629130737.0,32.000000
-31,12,55,1629130737.0,32.000000
-31,12,56,1629130737.0,32.000000
-31,13,55,1629130737.0,32.000000
-31,13,56,1629130737.0,32.000000
-32,13,56,1629130737.0,32.000000
-31,13,56,1629130737.0,32.000000
-32,12,55,1629130737.0,32.000000
-31,13,55,1629130737.0,32.000000
-31,12,56,1629130737.0,32.000000
-31,13,55,1629130737.0,32.000000
-31,12,56,1629130737.0,32.000000
-31,13,56,1629130737.0,32.000000
-32,12,55,1629130737.0,32.000000
-31,13,55,1629130737.0,32.000000
-32,13,56,1629130737.0,32.000000
-31,13,55,1629130737.0,32.000000
-32,13,55,1629130737.0,32.000000
-31,13,56,1629130737.0,32.000000
-31,13,55,1629130737.0,32.000000
-32,13,55,1629130737.0,32.000000
-31,13,55,1629130737.0,32.000000
-31,13,56,1629130737.0,32.000000
-32,13,56,1629130737.0,32.000000
-32,13,55,1629130737.0,32.000000
-32,12,56,1629130737.0,32.000000
-31,12,56,1629130737.0,32.000000
-31,12,56,1629130737.0,32.000000
-32,12,55,1629130737.0,32.000000
-31,13,55,1629130737.0,32.000000
-32,13,55,1629130737.0,32.000000
-31,13,56,1629130737.0,32.000000
-31,12,55,1629130737.0,32.000000
-32,12,56,1629130737.0,32.000000
-31,13,56,1629130737.0,32.000000
-31,13,55,1629130737.0,32.000000
-32,12,55,1629130737.0,32.000000
-32,13,55,1629130737.0,32.000000
-31,13,55,1629130737.0,32.000000
-32,12,55,1629130737.0,32.000000
-32,12,55,1629130737.0,32.000000
-31,13,55,1629130737.0,32.000000
-32,13,56,1629130737.0,32.000000
-32,12,55,1629130737.0,32.000000
-31,13,55,1629130737.0,32.000000
-32,13,55,1629130737.0,32.000000
-32,13,55,1629130737.0,32.000000
-32,12,55,1629130737.0,32.000000
-32,13,55,1629130737.0,32.000000
-35,13,56,1629130737.0,32.000000
-32,13,56,1629130737.0,32.000000
-28,13,57,1629130737.0,32.000000
-28,12,56,1629130737.0,32.000000
-29,12,56,1629130737.0,32.000000
-29,13,56,1629130737.0,32.000000
-28,13,56,1629130737.0,32.000000
-32,13,56,1629130737.0,32.000000
-32,12,54,1629130737.0,32.000000
-34,12,54,1629130737.0,32.000000
-32,12,56,1629130737.0,32.000000
-32,12,56,1629130737.0,32.000000
-32,12,55,1629130737.0,32.000000
-32,12,55,1629130737.0,32.000000
-32,12,55,1629130737.0,32.000000
-32,13,55,1629130737.0,32.000000
-32,12,55,1629130737.0,32.000000
-32,12,55,1629130737.0,32.000000
-32,12,55,1629130737.0,32.000000
-32,12,55,1629130737.0,32.000000
-31,12,56,1629130737.0,32.000000
-32,12,55,1629130737.0,32.000000
-32,13,55,1629130737.0,32.000000
-32,13,55,1629130737.0,32.000000
-32,13,55,1629130737.0,32.000000
-32,12,55,1629130737.0,32.000000
-32,12,55,1629130737.0,32.000000
-32,13,55,1629130737.0,32.000000
-32,12,55,1629130737.0,32.000000
-32,12,55,1629130737.0,32.000000
-32,13,55,1629130737.0,32.000000
-32,12,55,1629130737.0,32.000000
-32,13,55,1629130737.0,32.000000
-31,12,56,1629130737.0,32.000000
-32,12,55,1629130737.0,32.000000
-32,12,55,1629130737.0,32.000000
-32,12,55,1629130737.0,32.000000
-32,12,55,1629130737.0,32.000000
-32,13,55,1629130737.0,32.000000
-32,12,55,1629130737.0,32.000000
-32,12,55,1629130737.0,32.000000
-32,13,55,1629130737.0,32.000000
-31,13,56,1629130737.0,32.000000
-32,12,55,1629130737.0,32.000000
-32,12,55,1629130737.0,32.000000
-32,12,56,1629130737.0,32.000000
-32,13,55,1629130737.0,32.000000
-32,12,55,1629130737.0,32.000000
-32,13,55,1629130737.0,32.000000
-32,13,55,1629130737.0,32.000000
-32,12,55,1629130737.0,32.000000
-32,12,55,1629130737.0,32.000000
-32,11,57,1629130737.0,32.000000
-32,13,56,1629130737.0,32.000000
-31,13,54,1629130737.0,32.000000
-31,13,54,1629130737.0,32.000000
-31,12,56,1629130737.0,32.000000
-33,12,57,1629130737.0,32.000000
-33,13,54,1629130737.0,32.000000
-32,14,53,1629130737.0,32.000000
-31,12,55,1629130737.0,32.000000
-31,12,56,1629130737.0,32.000000
-32,12,55,1629130737.0,32.000000
-32,13,56,1629130737.0,32.000000
-32,13,55,1629130737.0,32.000000
-32,13,55,1629130737.0,32.000000
-31,13,55,1629130737.0,32.000000
-32,13,54,1629130737.0,32.000000
-31,12,56,1629130737.0,32.000000
-31,12,57,1629130737.0,32.000000
-32,13,55,1629130737.0,32.000000
-32,13,54,1629130737.0,32.000000
-32,13,54,1629130737.0,32.000000
-32,13,56,1629130737.0,32.000000
-32,13,55,1629130737.0,32.000000
-32,13,55,1629130737.0,32.000000
-32,13,55,1629130737.0,32.000000
-32,13,55,1629130737.0,32.000000
-32,13,55,1629130737.0,32.000000
-32,13,55,1629130737.0,32.000000
-32,14,55,1629130737.0,32.000000
-32,14,54,1629130737.0,32.000000
-32,14,55,1629130737.0,32.000000
-31,13,55,1629130737.0,32.000000
-32,13,55,1629130737.0,32.000000
-33,13,54,1629130737.0,32.000000
-32,13,55,1629130737.0,32.000000
-32,14,55,1629130737.0,32.000000
-33,13,55,1629130737.0,32.000000
-32,13,55,1629130737.0,32.000000
-32,14,55,1629130737.0,32.000000
-32,14,55,1629130737.0,32.000000
-32,13,55,1629130737.0,32.000000
-32,13,55,1629130737.0,32.000000
-32,14,55,1629130737.0,32.000000
-32,13,54,1629130737.0,32.000000
-32,14,56,1629130737.0,32.000000
-32,14,55,1629130737.0,32.000000
-32,13,54,1629130737.0,32.000000
-32,13,55,1629130737.0,32.000000
-32,14,55,1629130737.0,32.000000
-32,14,54,1629130737.0,32.000000
-31,14,55,1629130737.0,32.000000
-32,14,55,1629130737.0,32.000000
-33,14,55,1629130737.0,32.000000
-32,13,55,1629130737.0,32.000000
-32,13,55,1629130737.0,32.000000
-32,14,54,1629130737.0,32.000000
-32,14,54,1629130737.0,32.000000
-33,13,54,1629130737.0,32.000000
-32,14,55,1629130737.0,32.000000
-32,14,55,1629130737.0,32.000000
-32,13,55,1629130737.0,32.000000
-32,14,55,1629130737.0,32.000000
-32,14,55,1629130737.0,32.000000
-32,14,54,1629130737.0,32.000000
-32,14,55,1629130737.0,32.000000
-32,14,55,1629130737.0,32.000000
-32,13,55,1629130737.0,32.000000
-32,13,55,1629130737.0,32.000000
-32,13,55,1629130737.0,32.000000
-32,14,54,1629130737.0,32.000000
-32,13,55,1629130737.0,32.000000
-32,13,54,1629130737.0,32.000000
-32,13,55,1629130737.0,32.000000
-31,14,55,1629130737.0,32.000000
-32,15,54,1629130737.0,32.000000
-32,14,54,1629130737.0,32.000000
-32,13,56,1629130737.0,32.000000
-33,12,55,1629130737.0,32.000000
-33,12,54,1629130737.0,32.000000
-32,15,54,1629130737.0,32.000000
-31,15,55,1629130737.0,32.000000
-31,12,56,1629130737.0,32.000000
-33,13,56,1629130737.0,32.000000
-33,13,55,1629130737.0,32.000000
-30,13,55,1629130737.0,32.000000
-31,13,56,1629130737.0,32.000000
-32,11,54,1629130737.0,32.000000
-34,13,55,1629130737.0,32.000000
-29,14,53,1629130737.0,32.000000
-32,13,57,1629130737.0,32.000000
-32,12,55,1629130737.0,32.000000
-35,12,54,1629130737.0,32.000000
-31,13,54,1629130737.0,32.000000
-31,13,55,1629130737.0,32.000000
-33,12,54,1629130737.0,32.000000
-34,12,55,1629130737.0,32.000000
-33,13,55,1629130737.0,32.000000
-32,13,55,1629130737.0,32.000000
-32,12,54,1629130737.0,32.000000
-33,12,55,1629130737.0,32.000000
-33,12,54,1629130737.0,32.000000
-33,13,54,1629130737.0,32.000000
-33,13,54,1629130737.0,32.000000
-33,13,55,1629130737.0,32.000000
-32,14,56,1629130737.0,32.000000
-32,14,56,1629130737.0,32.000000
-33,13,53,1629130737.0,32.000000
-33,12,54,1629130737.0,32.000000
-33,12,55,1629130737.0,32.000000
-32,12,55,1629130737.0,32.000000
-32,12,56,1629130737.0,32.000000
-32,13,56,1629130737.0,32.000000
-32,14,55,1629130737.0,32.000000
-32,13,55,1629130737.0,32.000000
-33,12,54,1629130737.0,32.000000
-33,11,54,1629130737.0,32.000000
-33,11,55,1629130737.0,32.000000
-33,12,55,1629130737.0,32.000000
-33,12,55,1629130737.0,32.000000
-33,13,55,1629130737.0,32.000000
-33,12,55,1629130737.0,32.000000
-32,12,54,1629130737.0,32.000000
-33,12,55,1629130737.0,32.000000
-33,12,55,1629130737.0,32.000000
-33,13,55,1629130737.0,32.000000
-33,13,55,1629130737.0,32.000000
-32,12,55,1629130737.0,32.000000
-33,12,54,1629130737.0,32.000000
-33,12,54,1629130737.0,32.000000
-32,13,54,1629130737.0,32.000000
-31,13,55,1629130737.0,32.000000
-32,12,56,1629130737.0,32.000000
-33,12,54,1629130737.0,32.000000
-32,12,55,1629130737.0,32.000000
-32,13,55,1629130737.0,32.000000
-32,13,55,1629130737.0,32.000000
-32,13,54,1629130737.0,32.000000
-33,12,55,1629130737.0,32.000000
-32,12,55,1629130737.0,32.000000
-33,11,56,1629130737.0,32.000000
-32,12,55,1629130737.0,32.000000
-33,12,55,1629130737.0,32.000000
-33,12,54,1629130737.0,32.000000
-33,12,55,1629130737.0,32.000000
-32,12,56,1629130737.0,32.000000
-32,12,54,1629130737.0,32.000000
-33,12,54,1629130737.0,32.000000
-33,12,55,1629130737.0,32.000000
-32,12,55,1629130737.0,32.000000
-33,12,54,1629130737.0,32.000000
-33,12,55,1629130737.0,32.000000
-33,12,55,1629130737.0,32.000000
-32,12,55,1629130737.0,32.000000
-33,12,55,1629130737.0,32.000000
-32,12,55,1629130737.0,32.000000
-32,12,56,1629130737.0,32.000000
-32,12,55,1629130737.0,32.000000
-33,12,55,1629130737.0,32.000000
-33,12,56,1629130737.0,32.000000
-31,12,56,1629130737.0,32.000000
-36,11,55,1629130737.0,32.000000
-31,12,56,1629130737.0,32.000000
-29,12,55,1629130737.0,32.000000
-30,12,56,1629130737.0,32.000000
-29,13,54,1629130737.0,32.000000
-30,13,55,1629130737.0,32.000000
-32,12,56,1629130737.0,32.000000
-34,11,54,1629130737.0,32.000000
-34,11,56,1629130737.0,32.000000
-33,11,56,1629130737.0,32.000000
-33,11,55,1629130737.0,32.000000
-33,11,55,1629130737.0,32.000000
-33,12,55,1629130737.0,32.000000
-32,11,55,1629130737.0,32.000000
-32,12,56,1629130737.0,32.000000
-32,12,55,1629130737.0,32.000000
-33,12,55,1629130737.0,32.000000
-32,11,55,1629130737.0,32.000000
-33,11,55,1629130737.0,32.000000
-33,12,55,1629130737.0,32.000000
-33,11,55,1629130737.0,32.000000
-33,12,55,1629130737.0,32.000000
-33,12,55,1629130737.0,32.000000
-33,12,55,1629130737.0,32.000000
-33,11,56,1629130737.0,32.000000
-32,12,55,1629130737.0,32.000000
-33,12,55,1629130737.0,32.000000
-33,12,55,1629130737.0,32.000000
-33,12,55,1629130737.0,32.000000
-32,11,55,1629130737.0,32.000000
-33,12,55,1629130737.0,32.000000
-33,12,55,1629130737.0,32.000000
-32,12,55,1629130737.0,32.000000
-33,12,55,1629130737.0,32.000000
-32,12,55,1629130737.0,32.000000
-32,11,56,1629130737.0,32.000000
-33,11,55,1629130737.0,32.000000
-33,12,54,1629130737.0,32.000000
-33,12,55,1629130737.0,32.000000
-32,11,55,1629130737.0,32.000000
-33,12,55,1629130737.0,32.000000
-33,12,55,1629130737.0,32.000000
-33,12,55,1629130737.0,32.000000
-33,12,55,1629130737.0,32.000000
-33,12,55,1629130737.0,32.000000
-34,11,56,1629130737.0,32.000000
-40,11,59,1629130737.0,32.000000
-33,12,53,1629130737.0,32.000000
-26,12,55,1629130737.0,32.000000
-27,11,57,1629130737.0,32.000000
-27,12,54,1629130737.0,32.000000
-28,13,54,1629130737.0,32.000000
-30,12,57,1629130737.0,32.000000
-31,11,56,1629130737.0,32.000000
-34,11,54,1629130737.0,32.000000
-34,11,56,1629130737.0,32.000000
-33,11,56,1629130737.0,32.000000
-32,11,56,1629130737.0,32.000000
-33,11,55,1629130737.0,32.000000
-33,11,55,1629130737.0,32.000000
-32,11,55,1629130737.0,32.000000
-33,11,55,1629130737.0,32.000000
-33,11,55,1629130737.0,32.000000
-32,11,55,1629130737.0,32.000000
-33,11,55,1629130737.0,32.000000
-33,11,55,1629130737.0,32.000000
-33,11,55,1629130737.0,32.000000
-33,11,55,1629130737.0,32.000000
-33,11,55,1629130737.0,32.000000
-33,11,55,1629130737.0,32.000000
-32,11,55,1629130737.0,32.000000
-33,11,55,1629130737.0,32.000000
-33,11,55,1629130737.0,32.000000
-32,12,55,1629130737.0,32.000000
-33,12,55,1629130737.0,32.000000
-33,11,55,1629130737.0,32.000000
-32,11,56,1629130737.0,32.000000
-33,11,55,1629130737.0,32.000000
-33,11,55,1629130737.0,32.000000
-33,12,55,1629130737.0,32.000000
-33,11,55,1629130737.0,32.000000
-33,11,55,1629130737.0,32.000000
-33,11,55,1629130737.0,32.000000
-33,11,55,1629130737.0,32.000000
-33,11,55,1629130737.0,32.000000
-33,12,55,1629130737.0,32.000000
-33,11,55,1629130737.0,32.000000
-33,11,55,1629130737.0,32.000000
-33,12,55,1629130737.0,32.000000
-33,11,55,1629130737.0,32.000000
-33,11,55,1629130737.0,32.000000
-33,11,55,1629130737.0,32.000000
-33,11,55,1629130737.0,32.000000
-33,11,55,1629130737.0,32.000000
-33,11,55,1629130737.0,32.000000
-32,11,55,1629130737.0,32.000000
-33,11,55,1629130737.0,32.000000
-33,11,55,1629130737.0,32.000000
-33,11,55,1629130737.0,32.000000
-33,11,55,1629130737.0,32.000000
-33,12,55,1629130737.0,32.000000
-33,11,55,1629130737.0,32.000000
-33,11,54,1629130737.0,32.000000
-32,11,55,1629130737.0,32.000000
-32,11,56,1629130737.0,32.000000
-33,11,55,1629130737.0,32.000000
-34,12,54,1629130737.0,32.000000
-32,11,56,1629130737.0,32.000000
-33,11,56,1629130737.0,32.000000
-32,11,55,1629130737.0,32.000000
-33,11,54,1629130737.0,32.000000
-32,11,55,1629130737.0,32.000000
-32,11,56,1629130737.0,32.000000
-33,11,54,1629130737.0,32.000000
-33,11,54,1629130737.0,32.000000
-32,11,56,1629130737.0,32.000000
-39,12,59,1629130737.0,32.000000
-30,11,55,1629130737.0,32.000000
-37,11,50,1629130737.0,32.000000
-46,11,58,1629130737.0,32.000000
-24,12,61,1629130737.0,32.000000
-18,14,53,1629130737.0,32.000000
-23,9,52,1629130737.0,32.000000
-30,9,52,1629130737.0,32.000000
-29,10,52,1629130737.0,32.000000
-31,11,57,1629130737.0,32.000000
-36,13,59,1629130737.0,32.000000
-30,14,59,1629130737.0,32.000000
-33,12,54,1629130737.0,32.000000
-35,11,56,1629130737.0,32.000000
-32,10,56,1629130737.0,32.000000
-31,10,56,1629130737.0,32.000000
-31,11,56,1629130737.0,32.000000
-33,11,55,1629130737.0,32.000000
-33,11,55,1629130737.0,32.000000
-33,11,55,1629130737.0,32.000000
-33,11,55,1629130737.0,32.000000
-33,11,55,1629130737.0,32.000000
-33,11,55,1629130737.0,32.000000
-33,11,55,1629130737.0,32.000000
-33,11,54,1629130737.0,32.000000
-34,11,54,1629130737.0,32.000000
-33,11,55,1629130737.0,32.000000
-33,11,55,1629130737.0,32.000000
-33,11,55,1629130737.0,32.000000
-33,11,54,1629130737.0,32.000000
-33,11,55,1629130737.0,32.000000
-33,11,55,1629130737.0,32.000000
-33,11,55,1629130737.0,32.000000
-33,11,54,1629130737.0,32.000000
-33,11,55,1629130737.0,32.000000
-33,11,54,1629130737.0,32.000000
-33,11,55,1629130737.0,32.000000
-33,11,56,1629130737.0,32.000000
-33,11,55,1629130737.0,32.000000
-33,11,55,1629130737.0,32.000000
-33,11,55,1629130737.0,32.000000
-33,11,55,1629130737.0,32.000000
-33,11,55,1629130737.0,32.000000
-33,11,55,1629130737.0,32.000000
-33,11,55,1629130737.0,32.000000
-33,11,54,1629130737.0,32.000000
-34,11,54,1629130737.0,32.000000
-33,11,55,1629130737.0,32.000000
-33,11,55,1629130737.0,32.000000
-33,11,55,1629130737.0,32.000000
-33,11,55,1629130737.0,32.000000
-33,11,55,1629130737.0,32.000000
-33,11,55,1629130737.0,32.000000
-33,11,55,1629130737.0,32.000000
-33,11,55,1629130737.0,32.000000
-33,11,55,1629130737.0,32.000000
-33,11,55,1629130737.0,32.000000
-33,11,55,1629130737.0,32.000000
-33,11,55,1629130737.0,32.000000
-33,11,54,1629130737.0,32.000000
-33,11,54,1629130737.0,32.000000
-35,11,56,1629130737.0,32.000000
-33,11,56,1629130737.0,32.000000
-28,12,54,1629130737.0,32.000000
-32,12,54,1629130737.0,32.000000
-30,11,54,1629130737.0,32.000000
-30,11,54,1629130737.0,32.000000
-30,11,55,1629130737.0,32.000000
-34,11,57,1629130737.0,32.000000
-33,10,55,1629130737.0,32.000000
-34,10,55,1629130737.0,32.000000
-34,10,55,1629130737.0,32.000000
-33,11,55,1629130737.0,32.000000
-33,11,55,1629130737.0,32.000000
-33,11,54,1629130737.0,32.000000
-34,11,54,1629130737.0,32.000000
-33,11,55,1629130737.0,32.000000
-33,11,55,1629130737.0,32.000000
-33,11,55,1629130737.0,32.000000
-33,11,54,1629130737.0,32.000000
-33,11,55,1629130737.0,32.000000
-34,11,54,1629130737.0,32.000000
-34,11,54,1629130737.0,32.000000
-33,11,55,1629130737.0,32.000000
-33,11,55,1629130737.0,32.000000
-33,11,55,1629130737.0,32.000000
-33,11,55,1629130737.0,32.000000
-34,11,54,1629130737.0,32.000000
-34,11,54,1629130737.0,32.000000
-33,11,55,1629130737.0,32.000000
-33,11,54,1629130737.0,32.000000
-33,11,54,1629130737.0,32.000000
-33,11,54,1629130737.0,32.000000
-34,11,54,1629130737.0,32.000000
-34,11,54,1629130737.0,32.000000
-33,11,55,1629130737.0,32.000000
-33,11,54,1629130737.0,32.000000
-34,11,54,1629130737.0,32.000000
-33,11,54,1629130737.0,32.000000
-33,11,54,1629130737.0,32.000000
-34,11,54,1629130737.0,32.000000
-34,11,54,1629130737.0,32.000000
-33,11,55,1629130737.0,32.000000
-34,11,55,1629130737.0,32.000000
-33,11,55,1629130737.0,32.000000
-33,11,54,1629130737.0,32.000000
-33,11,54,1629130737.0,32.000000
-33,11,55,1629130737.0,32.000000
-33,11,55,1629130737.0,32.000000
-33,11,54,1629130737.0,32.000000
-33,11,54,1629130737.0,32.000000
-34,11,55,1629130737.0,32.000000
-33,11,54,1629130737.0,32.000000
-33,11,54,1629130737.0,32.000000
-34,11,54,1629130737.0,32.000000
-33,11,54,1629130737.0,32.000000
-33,11,55,1629130737.0,32.000000
-33,11,54,1629130737.0,32.000000
-34,11,54,1629130737.0,32.000000
-33,11,55,1629130737.0,32.000000
-33,11,55,1629130737.0,32.000000
-33,11,54,1629130737.0,32.000000
-34,11,54,1629130737.0,32.000000
-37,10,59,1629130737.0,32.000000
-34,11,56,1629130737.0,32.000000
-28,12,53,1629130737.0,32.000000
-31,11,53,1629130737.0,32.000000
-29,11,54,1629130737.0,32.000000
-30,12,55,1629130737.0,32.000000
-32,11,56,1629130737.0,32.000000
-32,11,58,1629130737.0,32.000000
-35,10,54,1629130737.0,32.000000
-34,10,55,1629130737.0,32.000000
-33,10,55,1629130737.0,32.000000
-33,11,55,1629130737.0,32.000000
-34,11,55,1629130737.0,32.000000
-33,11,54,1629130737.0,32.000000
-33,11,55,1629130737.0,32.000000
-33,11,55,1629130737.0,32.000000
-33,11,55,1629130737.0,32.000000
-34,11,54,1629130737.0,32.000000
-33,11,55,1629130737.0,32.000000
-34,11,54,1629130737.0,32.000000
-33,11,54,1629130737.0,32.000000
-33,11,55,1629130737.0,32.000000
-34,11,54,1629130737.0,32.000000
-34,11,54,1629130737.0,32.000000
-34,11,54,1629130737.0,32.000000
-33,11,54,1629130737.0,32.000000
-33,11,55,1629130737.0,32.000000
-34,11,54,1629130737.0,32.000000
-34,11,55,1629130737.0,32.000000
-34,11,55,1629130737.0,32.000000
-33,11,54,1629130737.0,32.000000
-33,11,55,1629130737.0,32.000000
-34,11,54,1629130737.0,32.000000
-34,11,55,1629130737.0,32.000000
-34,11,54,1629130737.0,32.000000
-34,11,55,1629130737.0,32.000000
-33,11,55,1629130737.0,32.000000
-34,11,54,1629130737.0,32.000000
-34,11,54,1629130737.0,32.000000
-34,11,55,1629130737.0,32.000000
-34,11,55,1629130737.0,32.000000
-33,11,54,1629130737.0,32.000000
-34,11,54,1629130737.0,32.000000
-33,11,54,1629130737.0,32.000000
-34,11,54,1629130737.0,32.000000
-33,11,55,1629130737.0,32.000000
-33,11,54,1629130737.0,32.000000
-33,11,54,1629130737.0,32.000000
-33,11,55,1629130737.0,32.000000
-33,11,55,1629130737.0,32.000000
-33,11,55,1629130737.0,32.000000
-33,11,54,1629130737.0,32.000000
-34,11,54,1629130737.0,32.000000
-33,11,55,1629130737.0,32.000000
-33,11,55,1629130737.0,32.000000
-34,11,54,1629130737.0,32.000000
-34,11,54,1629130737.0,32.000000
-33,11,54,1629130737.0,32.000000
-34,11,55,1629130737.0,32.000000
-34,11,55,1629130737.0,32.000000
-35,10,56,1629130737.0,32.000000
-33,10,54,1629130737.0,32.000000
-31,11,55,1629130737.0,32.000000
-32,11,54,1629130737.0,32.000000
-32,11,54,1629130737.0,32.000000
-32,12,55,1629130737.0,32.000000
-32,12,55,1629130737.0,32.000000
-34,11,54,1629130737.0,32.000000
-34,10,54,1629130737.0,32.000000
-34,11,55,1629130737.0,32.000000
-34,10,55,1629130737.0,32.000000
-34,11,54,1629130737.0,32.000000
-34,11,55,1629130737.0,32.000000
-34,11,54,1629130737.0,32.000000
-34,11,55,1629130737.0,32.000000
-33,11,55,1629130737.0,32.000000
-34,11,54,1629130737.0,32.000000
-33,11,54,1629130737.0,32.000000
-33,11,55,1629130737.0,32.000000
-34,11,55,1629130737.0,32.000000
-33,11,54,1629130737.0,32.000000
-33,11,55,1629130737.0,32.000000
-34,11,54,1629130737.0,32.000000
-33,11,54,1629130737.0,32.000000
-33,11,55,1629130737.0,32.000000
-33,11,54,1629130737.0,32.000000
-34,11,54,1629130737.0,32.000000
-33,11,54,1629130737.0,32.000000
-34,11,55,1629130737.0,32.000000
-34,11,55,1629130737.0,32.000000
-33,11,54,1629130737.0,32.000000
-34,11,55,1629130737.0,32.000000
-33,11,55,1629130737.0,32.000000
-33,11,55,1629130737.0,32.000000
-34,11,55,1629130737.0,32.000000
-34,11,55,1629130737.0,32.000000
-33,11,55,1629130737.0,32.000000
-33,11,54,1629130737.0,32.000000
-34,11,55,1629130737.0,32.000000
-34,11,54,1629130737.0,32.000000
-34,11,55,1629130737.0,32.000000
-34,11,55,1629130737.0,32.000000
-34,11,55,1629130737.0,32.000000
-34,11,55,1629130737.0,32.000000
-34,11,54,1629130737.0,32.000000
-34,11,55,1629130737.0,32.000000
-34,11,54,1629130737.0,32.000000
-33,11,54,1629130737.0,32.000000
-34,11,54,1629130737.0,32.000000
-33,11,55,1629130737.0,32.000000
-34,11,55,1629130737.0,32.000000
-33,11,55,1629130737.0,32.000000
-33,11,54,1629130737.0,32.000000
-33,11,54,1629130737.0,32.000000
-33,11,55,1629130737.0,32.000000
-33,11,55,1629130737.0,32.000000
-34,11,55,1629130737.0,32.000000
-34,11,55,1629130737.0,32.000000
-34,11,54,1629130737.0,32.000000
-34,11,54,1629130737.0,32.000000
-33,11,54,1629130737.0,32.000000
-39,9,59,1629130737.0,32.000000
-33,10,56,1629130737.0,32.000000
-28,12,55,1629130737.0,32.000000
-31,11,54,1629130737.0,32.000000
-30,10,54,1629130737.0,32.000000
-30,11,56,1629130737.0,32.000000
-31,11,56,1629130737.0,32.000000
-35,11,57,1629130737.0,32.000000
-34,10,54,1629130737.0,32.000000
-34,10,55,1629130737.0,32.000000
-33,10,55,1629130737.0,32.000000
-33,10,55,1629130737.0,32.000000
-34,10,55,1629130737.0,32.000000
-33,10,55,1629130737.0,32.000000
-33,11,55,1629130737.0,32.000000
-34,10,54,1629130737.0,32.000000
-34,10,54,1629130737.0,32.000000
-34,11,54,1629130737.0,32.000000
-34,11,55,1629130737.0,32.000000
-34,11,54,1629130737.0,32.000000
-34,11,54,1629130737.0,32.000000
-34,11,54,1629130737.0,32.000000
-34,11,54,1629130737.0,32.000000
-34,11,54,1629130737.0,32.000000
-34,11,54,1629130737.0,32.000000
-34,11,54,1629130737.0,32.000000
-34,11,54,1629130737.0,32.000000
-34,11,54,1629130737.0,32.000000
-34,11,55,1629130737.0,32.000000
-34,11,54,1629130737.0,32.000000
-34,11,54,1629130737.0,32.000000
-34,11,55,1629130737.0,32.000000
-34,11,54,1629130737.0,32.000000
-34,11,54,1629130737.0,32.000000
-33,11,54,1629130737.0,32.000000
-34,11,55,1629130737.0,32.000000
-34,11,55,1629130737.0,32.000000
-34,11,54,1629130737.0,32.000000
-34,11,54,1629130737.0,32.000000
-34,11,54,1629130737.0,32.000000
-34,11,55,1629130737.0,32.000000
-34,11,55,1629130737.0,32.000000
-33,11,54,1629130737.0,32.000000
-34,11,54,1629130737.0,32.000000
-34,11,54,1629130737.0,32.000000
-34,11,55,1629130737.0,32.000000
-34,11,55,1629130737.0,32.000000
-34,11,54,1629130737.0,32.000000
-34,11,55,1629130737.0,32.000000
-34,11,55,1629130737.0,32.000000
-34,11,54,1629130737.0,32.000000
-34,11,55,1629130737.0,32.000000
-34,11,55,1629130737.0,32.000000
-34,11,54,1629130737.0,32.000000
-34,11,54,1629130737.0,32.000000
-34,11,55,1629130737.0,32.000000
-34,11,54,1629130737.0,32.000000
-33,11,55,1629130737.0,32.000000
-34,11,54,1629130737.0,32.000000
-34,11,54,1629130737.0,32.000000
-36,10,56,1629130737.0,32.000000
-38,9,58,1629130737.0,32.000000
-33,12,53,1629130737.0,32.000000
-31,11,54,1629130737.0,32.000000
-30,10,55,1629130737.0,32.000000
-29,11,54,1629130737.0,32.000000
-30,11,55,1629130737.0,32.000000
-33,11,56,1629130737.0,32.000000
-33,10,54,1629130737.0,32.000000
-36,11,54,1629130737.0,32.000000
-33,10,55,1629130737.0,32.000000
-35,10,55,1629130737.0,32.000000
-34,10,55,1629130737.0,32.000000
-34,10,54,1629130737.0,32.000000
-34,10,55,1629130737.0,32.000000
-34,10,54,1629130737.0,32.000000
-34,10,55,1629130737.0,32.000000
-34,10,55,1629130737.0,32.000000
-34,10,55,1629130737.0,32.000000
-34,10,54,1629130737.0,32.000000
-34,10,54,1629130737.0,32.000000
-34,11,54,1629130737.0,32.000000
-34,10,54,1629130737.0,32.000000
-34,10,54,1629130737.0,32.000000
-34,10,54,1629130737.0,32.000000
-34,11,54,1629130737.0,32.000000
-34,11,54,1629130737.0,32.000000
-34,11,55,1629130737.0,32.000000
-34,10,54,1629130737.0,32.000000
-34,10,55,1629130737.0,32.000000
-34,11,54,1629130737.0,32.000000
-34,11,55,1629130737.0,32.000000
-34,10,55,1629130737.0,32.000000
-34,10,54,1629130737.0,32.000000
-34,11,54,1629130737.0,32.000000
-34,10,54,1629130737.0,32.000000
-34,10,54,1629130737.0,32.000000
-34,11,54,1629130737.0,32.000000
-34,11,54,1629130737.0,32.000000
-34,11,54,1629130737.0,32.000000
-34,11,55,1629130737.0,32.000000
-34,11,54,1629130737.0,32.000000
-34,10,54,1629130737.0,32.000000
-34,11,54,1629130737.0,32.000000
-34,11,55,1629130737.0,32.000000
-34,11,54,1629130737.0,32.000000
-34,11,54,1629130737.0,32.000000
-34,11,54,1629130737.0,32.000000
-34,11,55,1629130737.0,32.000000
-34,11,54,1629130737.0,32.000000
-34,11,54,1629130737.0,32.000000
-34,11,54,1629130737.0,32.000000
-34,11,54,1629130737.0,32.000000
-34,11,54,1629130737.0,32.000000
-34,11,54,1629130737.0,32.000000
-34,11,54,1629130737.0,32.000000
-34,11,55,1629130737.0,32.000000
-34,11,54,1629130737.0,32.000000
-34,11,54,1629130737.0,32.000000
-34,11,54,1629130737.0,32.000000
-34,11,55,1629130737.0,32.000000
-34,11,55,1629130737.0,32.000000
-34,10,54,1629130737.0,32.000000
-34,11,54,1629130737.0,32.000000
-34,11,54,1629130737.0,32.000000
-34,11,54,1629130737.0,32.000000
-34,11,54,1629130737.0,32.000000
-34,11,54,1629130737.0,32.000000
-34,11,55,1629130737.0,32.000000
-34,11,54,1629130737.0,32.000000
-34,11,54,1629130737.0,32.000000
-34,11,54,1629130737.0,32.000000
-34,11,54,1629130737.0,32.000000
-34,10,55,1629130737.0,32.000000
-34,11,54,1629130737.0,32.000000
-34,11,54,1629130737.0,32.000000
-34,11,54,1629130737.0,32.000000
-34,10,54,1629130737.0,32.000000
-34,11,54,1629130737.0,32.000000
-34,11,54,1629130737.0,32.000000
-34,11,54,1629130737.0,32.000000
-34,11,55,1629130737.0,32.000000
-34,11,54,1629130737.0,32.000000
-33,11,55,1629130737.0,32.000000
-31,12,55,1629130737.0,32.000000
-30,12,55,1629130737.0,32.000000
-32,12,55,1629130737.0,32.000000
-33,11,55,1629130737.0,32.000000
-34,12,55,1629130737.0,32.000000
-35,12,55,1629130737.0,32.000000
-34,13,54,1629130737.0,32.000000
-33,13,56,1629130737.0,32.000000
-32,13,54,1629130737.0,32.000000
-32,14,55,1629130737.0,32.000000
-28,15,56,1629130737.0,32.000000
-29,16,56,1629130737.0,32.000000
-31,15,56,1629130737.0,32.000000
-28,14,55,1629130737.0,32.000000
-30,15,55,1629130737.0,32.000000
-31,15,55,1629130737.0,32.000000
-31,15,55,1629130737.0,32.000000
-30,15,55,1629130737.0,32.000000
-31,15,55,1629130737.0,32.000000
-31,14,56,1629130737.0,32.000000
-31,15,55,1629130737.0,32.000000
-31,15,55,1629130737.0,32.000000
-31,14,55,1629130737.0,32.000000
-31,14,55,1629130737.0,32.000000
-31,14,55,1629130737.0,32.000000
-31,14,56,1629130737.0,32.000000
-32,14,56,1629130737.0,32.000000
-32,14,54,1629130737.0,32.000000
-31,14,54,1629130737.0,32.000000
-32,14,55,1629130737.0,32.000000
-32,13,55,1629130737.0,32.000000
-31,13,56,1629130737.0,32.000000
-32,13,55,1629130737.0,32.000000
-32,13,55,1629130737.0,32.000000
-32,13,55,1629130737.0,32.000000
-32,13,55,1629130737.0,32.000000
-32,13,54,1629130737.0,32.000000
-31,14,55,1629130737.0,32.000000
-33,14,55,1629130737.0,32.000000
-33,13,54,1629130737.0,32.000000
-32,12,56,1629130737.0,32.000000
-33,12,55,1629130737.0,32.000000
-33,13,55,1629130737.0,32.000000
-33,13,54,1629130737.0,32.000000
-33,13,54,1629130737.0,32.000000
-33,13,54,1629130737.0,32.000000
-33,13,55,1629130737.0,32.000000
-33,13,54,1629130737.0,32.000000
-33,13,55,1629130737.0,32.000000
-33,13,54,1629130737.0,32.000000
-34,13,54,1629130737.0,32.000000
-34,13,54,1629130737.0,32.000000
-34,13,54,1629130737.0,32.000000
-33,13,54,1629130737.0,32.000000
-33,14,54,1629130737.0,32.000000
-33,13,54,1629130737.0,32.000000
-33,13,54,1629130737.0,32.000000
-33,13,54,1629130737.0,32.000000
-33,13,54,1629130737.0,32.000000
-34,13,54,1629130737.0,32.000000
-34,13,54,1629130737.0,32.000000
-33,13,54,1629130737.0,32.000000
-34,13,54,1629130737.0,32.000000
-34,13,54,1629130737.0,32.000000
-33,13,54,1629130737.0,32.000000
-33,14,54,1629130737.0,32.000000
-34,13,54,1629130737.0,32.000000
-34,13,54,1629130737.0,32.000000
-33,13,54,1629130737.0,32.000000
-33,13,54,1629130737.0,32.000000
-33,14,54,1629130737.0,32.000000
-33,13,54,1629130737.0,32.000000
-34,13,53,1629130737.0,32.000000
-34,13,54,1629130737.0,32.000000
-34,13,54,1629130737.0,32.000000
-34,13,54,1629130737.0,32.000000
-34,13,54,1629130737.0,32.000000
-34,14,54,1629130737.0,32.000000
-33,14,54,1629130737.0,32.000000
-34,14,54,1629130737.0,32.000000
-34,13,54,1629130737.0,32.000000
-34,13,54,1629130737.0,32.000000
-34,14,54,1629130737.0,32.000000
-34,14,54,1629130737.0,32.000000
-34,13,54,1629130737.0,32.000000
-34,13,54,1629130737.0,32.000000
-34,13,54,1629130737.0,32.000000
-33,14,54,1629130737.0,32.000000
-34,13,54,1629130737.0,32.000000
-34,13,54,1629130737.0,32.000000
-34,13,54,1629130737.0,32.000000
-34,13,54,1629130737.0,32.000000
-34,13,54,1629130737.0,32.000000
-34,13,54,1629130737.0,32.000000
-34,13,54,1629130737.0,32.000000
-34,13,54,1629130737.0,32.000000
-34,13,54,1629130737.0,32.000000
-33,13,54,1629130737.0,32.000000
-33,13,54,1629130737.0,32.000000
-34,13,54,1629130737.0,32.000000
-33,13,54,1629130737.0,32.000000
-34,13,54,1629130737.0,32.000000
-34,13,54,1629130737.0,32.000000
-34,13,54,1629130737.0,32.000000
-34,13,54,1629130737.0,32.000000
-33,13,54,1629130737.0,32.000000
-33,14,54,1629130737.0,32.000000
-34,13,54,1629130737.0,32.000000
-34,13,54,1629130737.0,32.000000
-34,13,54,1629130737.0,32.000000
-34,13,54,1629130737.0,32.000000
-34,13,54,1629130737.0,32.000000
-33,14,54,1629130737.0,32.000000
-34,13,54,1629130737.0,32.000000
-34,13,54,1629130737.0,32.000000
-34,13,54,1629130737.0,32.000000
-34,13,54,1629130737.0,32.000000
-34,13,54,1629130737.0,32.000000
-34,13,53,1629130737.0,32.000000
-34,14,54,1629130737.0,32.000000
-34,13,54,1629130737.0,32.000000
-34,13,54,1629130737.0,32.000000
-34,13,54,1629130737.0,32.000000
-34,13,54,1629130737.0,32.000000
-34,13,54,1629130737.0,32.000000
-33,13,54,1629130737.0,32.000000
-33,13,54,1629130737.0,32.000000
-33,12,55,1629130737.0,32.000000
-34,13,53,1629130737.0,32.000000
-34,13,53,1629130737.0,32.000000
-33,13,54,1629130737.0,32.000000
-34,12,54,1629130737.0,32.000000
-34,13,54,1629130737.0,32.000000
-33,13,54,1629130737.0,32.000000
-34,13,54,1629130737.0,32.000000
-34,13,54,1629130737.0,32.000000
-33,13,54,1629130737.0,32.000000
-33,13,54,1629130737.0,32.000000
-34,13,54,1629130737.0,32.000000
-34,13,54,1629130737.0,32.000000
-34,13,54,1629130737.0,32.000000
-34,13,54,1629130737.0,32.000000
-34,13,54,1629130737.0,32.000000
-34,13,54,1629130737.0,32.000000
-34,13,54,1629130737.0,32.000000
-34,13,54,1629130737.0,32.000000
-34,13,54,1629130737.0,32.000000
-34,13,54,1629130737.0,32.000000
-34,13,54,1629130737.0,32.000000
-34,13,54,1629130737.0,32.000000
-34,13,54,1629130737.0,32.000000
-34,13,54,1629130737.0,32.000000
-34,13,54,1629130737.0,32.000000
-34,13,54,1629130737.0,32.000000
-34,13,54,1629130737.0,32.000000
-34,13,54,1629130737.0,32.000000
-34,13,54,1629130737.0,32.000000
-34,13,54,1629130737.0,32.000000
-34,13,54,1629130737.0,32.000000
-34,13,54,1629130737.0,32.000000
-34,13,54,1629130737.0,32.000000
-34,13,54,1629130737.0,32.000000
-34,13,54,1629130737.0,32.000000
-34,13,54,1629130737.0,32.000000
-34,13,54,1629130737.0,32.000000
-34,13,54,1629130737.0,32.000000
-34,13,54,1629130737.0,32.000000
-34,13,54,1629130737.0,32.000000
-34,13,54,1629130737.0,32.000000
-35,13,54,1629130737.0,32.000000
-34,13,54,1629130737.0,32.000000
-34,13,54,1629130737.0,32.000000
-34,13,54,1629130737.0,32.000000
-34,13,54,1629130737.0,32.000000
-34,13,54,1629130737.0,32.000000
-34,13,54,1629130737.0,32.000000
-34,13,54,1629130737.0,32.000000
-34,13,54,1629130737.0,32.000000
-34,13,54,1629130737.0,32.000000
-34,13,54,1629130737.0,32.000000
-34,13,54,1629130737.0,32.000000
-34,13,54,1629130737.0,32.000000
-34,13,54,1629130737.0,32.000000
-34,13,54,1629130737.0,32.000000
-35,12,54,1629130737.0,32.000000
-34,12,54,1629130737.0,32.000000
-34,13,54,1629130737.0,32.000000
-35,13,54,1629130737.0,32.000000
-35,13,53,1629130737.0,32.000000
-34,13,54,1629130737.0,32.000000
-34,13,54,1629130737.0,32.000000
-34,13,54,1629130737.0,32.000000
-34,13,54,1629130737.0,32.000000
-34,13,54,1629130737.0,32.000000
-34,12,54,1629130737.0,32.000000
-34,12,54,1629130737.0,32.000000
-34,13,54,1629130737.0,32.000000
-34,13,53,1629130737.0,32.000000
-34,13,54,1629130737.0,32.000000
-34,13,54,1629130737.0,32.000000
-34,13,54,1629130737.0,32.000000
-34,13,54,1629130737.0,32.000000
-34,14,54,1629130737.0,32.000000
-34,13,54,1629130737.0,32.000000
-34,13,54,1629130737.0,32.000000
-34,13,54,1629130737.0,32.000000
-34,13,54,1629130737.0,32.000000
-34,13,54,1629130737.0,32.000000
-34,13,54,1629130737.0,32.000000
-34,13,54,1629130737.0,32.000000
-34,13,54,1629130737.0,32.000000
-34,13,54,1629130737.0,32.000000
-34,13,54,1629130737.0,32.000000
-34,13,54,1629130737.0,32.000000
-34,13,54,1629130737.0,32.000000
-34,13,54,1629130737.0,32.000000
-34,13,54,1629130737.0,32.000000
-34,13,54,1629130737.0,32.000000
-34,13,54,1629130737.0,32.000000
-34,13,54,1629130737.0,32.000000
-34,13,54,1629130737.0,32.000000
-34,13,54,1629130737.0,32.000000
-34,13,54,1629130737.0,32.000000
-34,13,54,1629130737.0,32.000000
-34,13,54,1629130737.0,32.000000
-34,13,54,1629130737.0,32.000000
-34,13,54,1629130737.0,32.000000
-34,13,54,1629130737.0,32.000000
-34,13,54,1629130737.0,32.000000
-34,13,54,1629130737.0,32.000000
-34,13,54,1629130737.0,32.000000
-34,13,54,1629130737.0,32.000000
-34,13,54,1629130737.0,32.000000
-34,13,54,1629130737.0,32.000000
-34,13,54,1629130737.0,32.000000
-34,13,54,1629130737.0,32.000000
-34,13,54,1629130737.0,32.000000
-34,13,54,1629130737.0,32.000000
-34,13,54,1629130737.0,32.000000
-34,13,54,1629130737.0,32.000000
-34,13,54,1629130737.0,32.000000
-34,13,54,1629130737.0,32.000000
-34,13,54,1629130737.0,32.000000
-34,13,54,1629130737.0,32.000000
-34,13,54,1629130737.0,32.000000
-34,13,54,1629130737.0,32.000000
-35,13,54,1629130737.0,32.000000
-34,13,53,1629130737.0,32.000000
-34,13,54,1629130737.0,32.000000
-34,13,54,1629130737.0,32.000000
-34,13,54,1629130737.0,32.000000
-34,13,54,1629130737.0,32.000000
-34,13,54,1629130737.0,32.000000
-34,13,54,1629130737.0,32.000000
-34,13,54,1629130737.0,32.000000
-34,13,54,1629130737.0,32.000000
-34,13,54,1629130737.0,32.000000
-34,13,54,1629130737.0,32.000000
-35,14,53,1629130737.0,32.000000
-34,13,54,1629130737.0,32.000000
-33,13,55,1629130737.0,32.000000
-34,13,53,1629130737.0,32.000000
-34,13,55,1629130737.0,32.000000
-33,14,54,1629130737.0,32.000000
-34,13,54,1629130737.0,32.000000
-34,13,54,1629130737.0,32.000000
-33,13,54,1629130737.0,32.000000
-33,13,54,1629130737.0,32.000000
-34,13,54,1629130737.0,32.000000
-34,13,54,1629130737.0,32.000000
-34,14,54,1629130737.0,32.000000
-34,13,54,1629130737.0,32.000000
-34,13,54,1629130737.0,32.000000
-34,13,54,1629130737.0,32.000000
-33,13,54,1629130737.0,32.000000
-34,13,54,1629130737.0,32.000000
-34,14,54,1629130737.0,32.000000
-34,13,54,1629130737.0,32.000000
-34,13,54,1629130737.0,32.000000
-34,13,54,1629130737.0,32.000000
-34,13,54,1629130737.0,32.000000
-34,14,54,1629130737.0,32.000000
-34,13,54,1629130737.0,32.000000
-34,13,54,1629130737.0,32.000000
-34,13,54,1629130737.0,32.000000
-34,13,54,1629130737.0,32.000000
-34,13,54,1629130737.0,32.000000
-34,13,54,1629130737.0,32.000000
-34,13,54,1629130737.0,32.000000
-34,13,54,1629130737.0,32.000000
-34,13,54,1629130737.0,32.000000
-34,13,54,1629130737.0,32.000000
-34,13,54,1629130737.0,32.000000
-34,13,54,1629130737.0,32.000000
-34,13,54,1629130737.0,32.000000
-34,13,54,1629130737.0,32.000000
-34,13,54,1629130737.0,32.000000
-34,13,54,1629130737.0,32.000000
-34,13,54,1629130737.0,32.000000
-34,13,54,1629130737.0,32.000000
-34,13,54,1629130737.0,32.000000
-34,13,54,1629130737.0,32.000000
-34,13,54,1629130737.0,32.000000
-34,13,54,1629130737.0,32.000000
-34,13,54,1629130737.0,32.000000
-34,13,54,1629130737.0,32.000000
-34,13,54,1629130737.0,32.000000
-33,13,54,1629130737.0,32.000000
-34,13,54,1629130737.0,32.000000
-34,13,54,1629130737.0,32.000000
-34,13,54,1629130737.0,32.000000
-34,13,54,1629130737.0,32.000000
-34,13,54,1629130737.0,32.000000
-34,13,54,1629130737.0,32.000000
-34,13,54,1629130737.0,32.000000
-34,13,54,1629130737.0,32.000000
-34,13,54,1629130737.0,32.000000
-34,13,54,1629130737.0,32.000000
-34,13,54,1629130737.0,32.000000
-34,13,54,1629130737.0,32.000000
-34,13,54,1629130737.0,32.000000
-34,13,54,1629130737.0,32.000000
-34,13,54,1629130737.0,32.000000
-34,13,54,1629130737.0,32.000000
-34,13,54,1629130737.0,32.000000
-34,13,54,1629130737.0,32.000000
-34,13,54,1629130737.0,32.000000
-34,13,54,1629130737.0,32.000000
-34,13,54,1629130737.0,32.000000
-34,13,54,1629130737.0,32.000000
-34,13,54,1629130737.0,32.000000
-34,13,54,1629130737.0,32.000000
-34,13,54,1629130737.0,32.000000
-34,13,54,1629130737.0,32.000000
-34,13,54,1629130737.0,32.000000
-34,13,54,1629130737.0,32.000000
-34,13,54,1629130737.0,32.000000
-34,13,54,1629130737.0,32.000000
-34,13,54,1629130737.0,32.000000
-34,13,54,1629130737.0,32.000000
-34,13,54,1629130737.0,32.000000
-34,13,54,1629130737.0,32.000000
-34,13,54,1629130737.0,32.000000
-33,13,54,1629130737.0,32.000000
-34,13,54,1629130737.0,32.000000
-34,13,54,1629130737.0,32.000000
-34,13,54,1629130737.0,32.000000
-34,13,54,1629130737.0,32.000000
-34,13,54,1629130737.0,32.000000
-34,13,54,1629130737.0,32.000000
-34,13,54,1629130737.0,32.000000
-34,13,54,1629130737.0,32.000000
-34,13,54,1629130737.0,32.000000
-34,13,54,1629130737.0,32.000000
-34,13,54,1629130737.0,32.000000
-33,13,54,1629130737.0,32.000000
-34,13,54,1629130737.0,32.000000
-34,13,54,1629130737.0,32.000000
-34,13,54,1629130737.0,32.000000
-34,13,54,1629130737.0,32.000000
-34,13,54,1629130737.0,32.000000
-34,13,54,1629130737.0,32.000000
-34,13,54,1629130737.0,32.000000
-34,13,54,1629130737.0,32.000000
-34,13,54,1629130737.0,32.000000
-34,13,54,1629130737.0,32.000000
-34,13,54,1629130737.0,32.000000
-34,13,54,1629130737.0,32.000000
-34,13,55,1629130737.0,32.000000
-33,13,56,1629130737.0,32.000000
-34,13,53,1629130737.0,32.000000
-34,13,54,1629130737.0,32.000000
-34,13,54,1629130737.0,32.000000
-34,13,53,1629130737.0,32.000000
-34,13,54,1629130737.0,32.000000
-34,13,55,1629130737.0,32.000000
-34,12,54,1629130737.0,32.000000
-34,13,53,1629130737.0,32.000000
-34,13,54,1629130737.0,32.000000
-34,13,54,1629130737.0,32.000000
-34,13,54,1629130737.0,32.000000
-34,13,54,1629130737.0,32.000000
-34,13,54,1629130737.0,32.000000
-34,13,54,1629130737.0,32.000000
-34,13,54,1629130737.0,32.000000
-34,13,54,1629130737.0,32.000000
-34,13,54,1629130737.0,32.000000
-34,13,54,1629130737.0,32.000000
-34,13,54,1629130737.0,32.000000
-34,13,54,1629130737.0,32.000000
-34,13,54,1629130737.0,32.000000
-34,13,54,1629130737.0,32.000000
-34,13,54,1629130737.0,32.000000
-34,13,54,1629130737.0,32.000000
-34,13,54,1629130737.0,32.000000
-34,13,54,1629130737.0,32.000000
-34,13,54,1629130737.0,32.000000
-34,13,54,1629130737.0,32.000000
-33,13,54,1629130737.0,32.000000
-34,13,55,1629130737.0,32.000000
-34,13,53,1629130737.0,32.000000
-34,13,53,1629130737.0,32.000000
