ACC_X,ACC_Y,ACC_Z,start_time_unix,sampling_rate
-33,21,54,1625449482.0,32.000000
-42,15,51,1625449482.0,32.000000
-43,14,51,1625449482.0,32.000000
-41,14,53,1625449482.0,32.000000
-41,13,52,1625449482.0,32.000000
-42,16,49,1625449482.0,32.000000
-39,18,50,1625449482.0,32.000000
-39,17,50,1625449482.0,32.000000
-41,15,50,1625449482.0,32.000000
-42,14,50,1625449482.0,32.000000
-42,14,50,1625449482.0,32.000000
-40,14,50,1625449482.0,32.000000
-40,15,50,1625449482.0,32.000000
-41,15,50,1625449482.0,32.000000
-41,14,50,1625449482.0,32.000000
-41,14,49,1625449482.0,32.000000
-41,15,50,1625449482.0,32.000000
-41,14,49,1625449482.0,32.000000
-41,15,50,1625449482.0,32.000000
-41,15,49,1625449482.0,32.000000
-41,15,50,1625449482.0,32.000000
-41,15,49,1625449482.0,32.000000
-41,15,50,1625449482.0,32.000000
-41,16,49,1625449482.0,32.000000
-41,16,49,1625449482.0,32.000000
-41,16,49,1625449482.0,32.000000
-41,15,50,1625449482.0,32.000000
-41,14,50,1625449482.0,32.000000
-42,14,49,1625449482.0,32.000000
-42,15,49,1625449482.0,32.000000
-40,14,49,1625449482.0,32.000000
-41,14,49,1625449482.0,32.000000
-42,15,50,1625449482.0,32.000000
-42,14,49,1625449482.0,32.000000
-41,14,50,1625449482.0,32.000000
-41,13,49,1625449482.0,32.000000
-42,13,49,1625449482.0,32.000000
-42,14,49,1625449482.0,32.000000
-41,14,49,1625449482.0,32.000000
-42,14,49,1625449482.0,32.000000
-42,14,49,1625449482.0,32.000000
-43,13,49,1625449482.0,32.000000
-55,10,45,1625449482.0,32.000000
-38,21,56,1625449482.0,32.000000
-33,21,53,1625449482.0,32.000000
-51,15,40,1625449482.0,32.000000
-49,13,45,1625449482.0,32.000000
-43,10,50,1625449482.0,32.000000
-33,9,59,1625449482.0,32.000000
-36,10,59,1625449482.0,32.000000
-42,10,49,1625449482.0,32.000000
-41,10,47,1625449482.0,32.000000
-43,12,51,1625449482.0,32.000000
-58,9,40,1625449482.0,32.000000
-51,4,30,1625449482.0,32.000000
-60,6,22,1625449482.0,32.000000
-48,9,33,1625449482.0,32.000000
-52,11,31,1625449482.0,32.000000
-62,11,24,1625449482.0,32.000000
-60,10,26,1625449482.0,32.000000
-53,22,40,1625449482.0,32.000000
-60,21,34,1625449482.0,32.000000
-69,15,19,1625449482.0,32.000000
-75,11,11,1625449482.0,32.000000
-72,6,11,1625449482.0,32.000000
-63,5,23,1625449482.0,32.000000
-62,5,18,1625449482.0,32.000000
-63,6,21,1625449482.0,32.000000
-68,6,29,1625449482.0,32.000000
-71,2,30,1625449482.0,32.000000
-62,1,21,1625449482.0,32.000000
-49,-3,18,1625449482.0,32.000000
-83,-2,-2,1625449482.0,32.000000
-76,-2,11,1625449482.0,32.000000
-43,-13,18,1625449482.0,32.000000
-46,-1,17,1625449482.0,32.000000
-53,4,17,1625449482.0,32.000000
-64,12,23,1625449482.0,32.000000
-65,13,26,1625449482.0,32.000000
-59,5,27,1625449482.0,32.000000
-52,-11,24,1625449482.0,32.000000
-65,0,20,1625449482.0,32.000000
-69,17,22,1625449482.0,32.000000
-55,20,27,1625449482.0,32.000000
-31,25,43,1625449482.0,32.000000
-49,26,51,1625449482.0,32.000000
-69,26,46,1625449482.0,32.000000
-62,19,39,1625449482.0,32.000000
-52,20,39,1625449482.0,32.000000
-61,14,35,1625449482.0,32.000000
-49,10,35,1625449482.0,32.000000
-50,11,34,1625449482.0,32.000000
-54,13,33,1625449482.0,32.000000
-55,14,33,1625449482.0,32.000000
-53,16,35,1625449482.0,32.000000
-53,16,36,1625449482.0,32.000000
-54,15,37,1625449482.0,32.000000
-47,15,44,1625449482.0,32.000000
-47,16,43,1625449482.0,32.000000
-51,18,41,1625449482.0,32.000000
-51,19,42,1625449482.0,32.000000
-49,20,44,1625449482.0,32.000000
-52,16,42,1625449482.0,32.000000
-53,15,40,1625449482.0,32.000000
-50,14,38,1625449482.0,32.000000
-48,14,39,1625449482.0,32.000000
-49,14,38,1625449482.0,32.000000
-51,14,40,1625449482.0,32.000000
-52,14,40,1625449482.0,32.000000
-55,14,40,1625449482.0,32.000000
-54,16,40,1625449482.0,32.000000
-48,16,38,1625449482.0,32.000000
-48,15,38,1625449482.0,32.000000
-51,15,38,1625449482.0,32.000000
-52,16,41,1625449482.0,32.000000
-52,15,41,1625449482.0,32.000000
-54,15,41,1625449482.0,32.000000
-52,16,40,1625449482.0,32.000000
-50,16,38,1625449482.0,32.000000
-47,14,38,1625449482.0,32.000000
-49,14,39,1625449482.0,32.000000
-52,15,41,1625449482.0,32.000000
-52,14,41,1625449482.0,32.000000
-53,15,41,1625449482.0,32.000000
-50,16,39,1625449482.0,32.000000
-48,16,38,1625449482.0,32.000000
-48,15,38,1625449482.0,32.000000
-52,16,40,1625449482.0,32.000000
-52,16,40,1625449482.0,32.000000
-54,16,43,1625449482.0,32.000000
-55,15,43,1625449482.0,32.000000
-51,12,39,1625449482.0,32.000000
-47,11,37,1625449482.0,32.000000
-48,11,37,1625449482.0,32.000000
-53,14,38,1625449482.0,32.000000
-54,14,39,1625449482.0,32.000000
-53,14,43,1625449482.0,32.000000
-49,14,41,1625449482.0,32.000000
-48,14,37,1625449482.0,32.000000
-47,12,38,1625449482.0,32.000000
-47,13,39,1625449482.0,32.000000
-58,14,40,1625449482.0,32.000000
-61,16,41,1625449482.0,32.000000
-52,16,44,1625449482.0,32.000000
-42,16,42,1625449482.0,32.000000
-42,15,41,1625449482.0,32.000000
-51,15,40,1625449482.0,32.000000
-52,15,40,1625449482.0,32.000000
-57,15,40,1625449482.0,32.000000
-55,14,39,1625449482.0,32.000000
-50,14,40,1625449482.0,32.000000
-49,15,39,1625449482.0,32.000000
-49,15,39,1625449482.0,32.000000
-50,15,40,1625449482.0,32.000000
-55,14,40,1625449482.0,32.000000
-53,13,39,1625449482.0,32.000000
-52,13,38,1625449482.0,32.000000
-51,13,38,1625449482.0,32.000000
-51,15,38,1625449482.0,32.000000
-52,14,38,1625449482.0,32.000000
-53,13,39,1625449482.0,32.000000
-55,13,40,1625449482.0,32.000000
-52,12,39,1625449482.0,32.000000
-50,14,37,1625449482.0,32.000000
-51,15,38,1625449482.0,32.000000
-52,16,41,1625449482.0,32.000000
-49,15,39,1625449482.0,32.000000
-51,14,39,1625449482.0,32.000000
-53,14,39,1625449482.0,32.000000
-52,14,39,1625449482.0,32.000000
-52,15,38,1625449482.0,32.000000
-51,15,38,1625449482.0,32.000000
-51,15,38,1625449482.0,32.000000
-52,15,39,1625449482.0,32.000000
-52,14,39,1625449482.0,32.000000
-53,13,39,1625449482.0,32.000000
-52,13,39,1625449482.0,32.000000
-52,13,39,1625449482.0,32.000000
-51,14,38,1625449482.0,32.000000
-51,14,39,1625449482.0,32.000000
-51,15,39,1625449482.0,32.000000
-51,15,39,1625449482.0,32.000000
-51,15,40,1625449482.0,32.000000
-52,14,40,1625449482.0,32.000000
-52,14,39,1625449482.0,32.000000
-51,14,39,1625449482.0,32.000000
-52,14,38,1625449482.0,32.000000
-52,14,38,1625449482.0,32.000000
-51,14,38,1625449482.0,32.000000
-52,14,39,1625449482.0,32.000000
-51,15,39,1625449482.0,32.000000
-52,15,40,1625449482.0,32.000000
-52,15,39,1625449482.0,32.000000
-52,14,39,1625449482.0,32.000000
-52,14,39,1625449482.0,32.000000
-52,14,39,1625449482.0,32.000000
-52,14,39,1625449482.0,32.000000
-51,14,39,1625449482.0,32.000000
-52,15,39,1625449482.0,32.000000
-52,15,39,1625449482.0,32.000000
-52,15,39,1625449482.0,32.000000
-52,15,39,1625449482.0,32.000000
-51,15,39,1625449482.0,32.000000
-52,14,39,1625449482.0,32.000000
-52,14,39,1625449482.0,32.000000
-52,14,39,1625449482.0,32.000000
-52,14,39,1625449482.0,32.000000
-52,14,39,1625449482.0,32.000000
-51,15,39,1625449482.0,32.000000
-51,14,39,1625449482.0,32.000000
-52,15,39,1625449482.0,32.000000
-51,15,39,1625449482.0,32.000000
-52,15,39,1625449482.0,32.000000
-52,15,39,1625449482.0,32.000000
-52,15,39,1625449482.0,32.000000
-52,15,39,1625449482.0,32.000000
-52,15,39,1625449482.0,32.000000
-51,14,39,1625449482.0,32.000000
-51,14,39,1625449482.0,32.000000
-52,15,39,1625449482.0,32.000000
-51,15,39,1625449482.0,32.000000
-51,15,39,1625449482.0,32.000000
-52,15,39,1625449482.0,32.000000
-51,15,39,1625449482.0,32.000000
-52,15,39,1625449482.0,32.000000
-51,15,39,1625449482.0,32.000000
-52,15,39,1625449482.0,32.000000
-51,15,39,1625449482.0,32.000000
-52,15,38,1625449482.0,32.000000
-51,15,38,1625449482.0,32.000000
-51,15,40,1625449482.0,32.000000
-51,15,40,1625449482.0,32.000000
-52,14,38,1625449482.0,32.000000
-52,14,38,1625449482.0,32.000000
-51,15,39,1625449482.0,32.000000
-52,15,38,1625449482.0,32.000000
-51,15,38,1625449482.0,32.000000
-51,15,39,1625449482.0,32.000000
-53,15,39,1625449482.0,32.000000
-51,14,39,1625449482.0,32.000000
-53,14,38,1625449482.0,32.000000
-52,14,38,1625449482.0,32.000000
-50,15,40,1625449482.0,32.000000
-51,15,37,1625449482.0,32.000000
-53,15,39,1625449482.0,32.000000
-51,15,40,1625449482.0,32.000000
-52,14,39,1625449482.0,32.000000
-51,15,38,1625449482.0,32.000000
-51,14,39,1625449482.0,32.000000
-52,14,38,1625449482.0,32.000000
-52,14,38,1625449482.0,32.000000
-52,14,39,1625449482.0,32.000000
-51,14,39,1625449482.0,32.000000
-51,14,38,1625449482.0,32.000000
-52,14,39,1625449482.0,32.000000
-51,14,40,1625449482.0,32.000000
-51,14,39,1625449482.0,32.000000
-51,14,39,1625449482.0,32.000000
-51,14,39,1625449482.0,32.000000
-52,14,39,1625449482.0,32.000000
-52,14,39,1625449482.0,32.000000
-52,14,39,1625449482.0,32.000000
-51,14,39,1625449482.0,32.000000
-51,14,39,1625449482.0,32.000000
-52,14,39,1625449482.0,32.000000
-52,14,39,1625449482.0,32.000000
-52,14,39,1625449482.0,32.000000
-52,14,39,1625449482.0,32.000000
-51,14,39,1625449482.0,32.000000
-52,14,39,1625449482.0,32.000000
-52,14,39,1625449482.0,32.000000
-52,14,39,1625449482.0,32.000000
-52,14,39,1625449482.0,32.000000
-51,14,39,1625449482.0,32.000000
-52,14,39,1625449482.0,32.000000
-52,14,39,1625449482.0,32.000000
-52,14,39,1625449482.0,32.000000
-52,14,39,1625449482.0,32.000000
-52,13,39,1625449482.0,32.000000
-52,14,39,1625449482.0,32.000000
-52,14,39,1625449482.0,32.000000
-52,14,39,1625449482.0,32.000000
-52,14,38,1625449482.0,32.000000
-52,14,38,1625449482.0,32.000000
-52,14,39,1625449482.0,32.000000
-52,14,39,1625449482.0,32.000000
-52,14,39,1625449482.0,32.000000
-52,14,39,1625449482.0,32.000000
-52,14,39,1625449482.0,32.000000
-52,14,38,1625449482.0,32.000000
-52,14,38,1625449482.0,32.000000
-53,14,39,1625449482.0,32.000000
-52,14,39,1625449482.0,32.000000
-51,14,39,1625449482.0,32.000000
-52,14,38,1625449482.0,32.000000
-52,14,38,1625449482.0,32.000000
-52,14,39,1625449482.0,32.000000
-59,17,31,1625449482.0,32.000000
-41,9,46,1625449482.0,32.000000
-51,12,42,1625449482.0,32.000000
-53,14,39,1625449482.0,32.000000
-52,13,37,1625449482.0,32.000000
-53,13,37,1625449482.0,32.000000
-52,12,37,1625449482.0,32.000000
-52,13,39,1625449482.0,32.000000
-52,12,39,1625449482.0,32.000000
-52,13,39,1625449482.0,32.000000
-52,13,39,1625449482.0,32.000000
-52,13,40,1625449482.0,32.000000
-52,13,39,1625449482.0,32.000000
-52,13,40,1625449482.0,32.000000
-52,13,40,1625449482.0,32.000000
-52,13,39,1625449482.0,32.000000
-52,13,39,1625449482.0,32.000000
-52,13,39,1625449482.0,32.000000
-51,13,40,1625449482.0,32.000000
-52,13,39,1625449482.0,32.000000
-51,13,40,1625449482.0,32.000000
-52,13,39,1625449482.0,32.000000
-52,13,39,1625449482.0,32.000000
-52,14,39,1625449482.0,32.000000
-52,14,40,1625449482.0,32.000000
-52,14,40,1625449482.0,32.000000
-51,14,40,1625449482.0,32.000000
-51,14,40,1625449482.0,32.000000
-51,13,40,1625449482.0,32.000000
-51,13,39,1625449482.0,32.000000
-52,13,39,1625449482.0,32.000000
-52,13,39,1625449482.0,32.000000
-51,13,39,1625449482.0,32.000000
-52,13,39,1625449482.0,32.000000
-52,14,40,1625449482.0,32.000000
-51,14,40,1625449482.0,32.000000
-51,14,40,1625449482.0,32.000000
-51,13,40,1625449482.0,32.000000
-51,13,39,1625449482.0,32.000000
-52,13,39,1625449482.0,32.000000
-51,13,39,1625449482.0,32.000000
-52,13,39,1625449482.0,32.000000
-51,14,40,1625449482.0,32.000000
-52,14,40,1625449482.0,32.000000
-51,13,40,1625449482.0,32.000000
-51,14,40,1625449482.0,32.000000
-51,14,40,1625449482.0,32.000000
-51,14,40,1625449482.0,32.000000
-51,13,40,1625449482.0,32.000000
-52,13,39,1625449482.0,32.000000
-52,13,39,1625449482.0,32.000000
-51,13,39,1625449482.0,32.000000
-51,13,39,1625449482.0,32.000000
-52,14,40,1625449482.0,32.000000
-52,14,39,1625449482.0,32.000000
-51,14,39,1625449482.0,32.000000
-50,14,39,1625449482.0,32.000000
-51,14,40,1625449482.0,32.000000
-52,14,40,1625449482.0,32.000000
-53,13,39,1625449482.0,32.000000
-52,13,39,1625449482.0,32.000000
-51,13,39,1625449482.0,32.000000
-51,13,39,1625449482.0,32.000000
-51,14,39,1625449482.0,32.000000
-51,14,39,1625449482.0,32.000000
-52,14,39,1625449482.0,32.000000
-52,13,40,1625449482.0,32.000000
-52,13,40,1625449482.0,32.000000
-52,14,39,1625449482.0,32.000000
-51,14,39,1625449482.0,32.000000
-51,14,39,1625449482.0,32.000000
-51,14,40,1625449482.0,32.000000
-51,14,40,1625449482.0,32.000000
-52,14,40,1625449482.0,32.000000
-52,14,40,1625449482.0,32.000000
-51,14,40,1625449482.0,32.000000
-51,13,39,1625449482.0,32.000000
-51,13,40,1625449482.0,32.000000
-51,14,39,1625449482.0,32.000000
-52,14,39,1625449482.0,32.000000
-52,14,39,1625449482.0,32.000000
-51,15,40,1625449482.0,32.000000
-51,15,40,1625449482.0,32.000000
-51,14,40,1625449482.0,32.000000
-51,14,41,1625449482.0,32.000000
-51,13,40,1625449482.0,32.000000
-50,13,39,1625449482.0,32.000000
-51,14,39,1625449482.0,32.000000
-52,14,39,1625449482.0,32.000000
-52,15,39,1625449482.0,32.000000
-51,15,40,1625449482.0,32.000000
-51,15,40,1625449482.0,32.000000
-51,15,40,1625449482.0,32.000000
-51,15,40,1625449482.0,32.000000
-51,14,40,1625449482.0,32.000000
-51,14,40,1625449482.0,32.000000
-51,14,39,1625449482.0,32.000000
-51,14,39,1625449482.0,32.000000
-51,15,39,1625449482.0,32.000000
-51,15,39,1625449482.0,32.000000
-51,15,40,1625449482.0,32.000000
-51,15,40,1625449482.0,32.000000
-51,15,40,1625449482.0,32.000000
-51,15,40,1625449482.0,32.000000
-51,14,40,1625449482.0,32.000000
-51,14,40,1625449482.0,32.000000
-51,14,40,1625449482.0,32.000000
-51,14,40,1625449482.0,32.000000
-51,14,40,1625449482.0,32.000000
-51,14,40,1625449482.0,32.000000
-51,14,40,1625449482.0,32.000000
-51,15,39,1625449482.0,32.000000
-51,15,39,1625449482.0,32.000000
-51,15,39,1625449482.0,32.000000
-51,15,39,1625449482.0,32.000000
-51,15,40,1625449482.0,32.000000
-51,15,40,1625449482.0,32.000000
-51,15,40,1625449482.0,32.000000
-51,14,40,1625449482.0,32.000000
-51,14,40,1625449482.0,32.000000
-51,14,40,1625449482.0,32.000000
-51,14,40,1625449482.0,32.000000
-51,14,39,1625449482.0,32.000000
-51,15,39,1625449482.0,32.000000
-51,15,40,1625449482.0,32.000000
-51,15,40,1625449482.0,32.000000
-51,15,40,1625449482.0,32.000000
-51,15,40,1625449482.0,32.000000
-51,15,40,1625449482.0,32.000000
-51,15,40,1625449482.0,32.000000
-51,15,40,1625449482.0,32.000000
-51,15,40,1625449482.0,32.000000
-51,15,40,1625449482.0,32.000000
-51,15,40,1625449482.0,32.000000
-51,15,40,1625449482.0,32.000000
-51,15,40,1625449482.0,32.000000
-51,15,40,1625449482.0,32.000000
-51,15,40,1625449482.0,32.000000
-51,15,40,1625449482.0,32.000000
-50,15,39,1625449482.0,32.000000
-51,15,39,1625449482.0,32.000000
-51,15,39,1625449482.0,32.000000
-51,15,39,1625449482.0,32.000000
-51,15,39,1625449482.0,32.000000
-51,15,40,1625449482.0,32.000000
-51,15,40,1625449482.0,32.000000
-51,15,40,1625449482.0,32.000000
-51,15,40,1625449482.0,32.000000
-51,15,40,1625449482.0,32.000000
-51,15,39,1625449482.0,32.000000
-51,15,39,1625449482.0,32.000000
-51,15,40,1625449482.0,32.000000
-51,15,39,1625449482.0,32.000000
-51,15,39,1625449482.0,32.000000
-51,15,40,1625449482.0,32.000000
-51,15,40,1625449482.0,32.000000
-51,15,40,1625449482.0,32.000000
-51,15,40,1625449482.0,32.000000
-51,15,40,1625449482.0,32.000000
-51,15,40,1625449482.0,32.000000
-51,15,40,1625449482.0,32.000000
-51,15,40,1625449482.0,32.000000
-51,15,40,1625449482.0,32.000000
-51,15,40,1625449482.0,32.000000
-51,15,40,1625449482.0,32.000000
-51,15,39,1625449482.0,32.000000
-51,15,40,1625449482.0,32.000000
-51,15,39,1625449482.0,32.000000
-51,15,39,1625449482.0,32.000000
-51,15,40,1625449482.0,32.000000
-51,15,40,1625449482.0,32.000000
-51,15,40,1625449482.0,32.000000
-51,15,40,1625449482.0,32.000000
-51,15,40,1625449482.0,32.000000
-51,15,40,1625449482.0,32.000000
-51,15,39,1625449482.0,32.000000
-51,15,40,1625449482.0,32.000000
-51,15,40,1625449482.0,32.000000
-51,15,40,1625449482.0,32.000000
-51,16,40,1625449482.0,32.000000
-51,15,40,1625449482.0,32.000000
-51,15,40,1625449482.0,32.000000
-51,15,40,1625449482.0,32.000000
-51,15,40,1625449482.0,32.000000
-51,15,40,1625449482.0,32.000000
-51,15,40,1625449482.0,32.000000
-51,15,40,1625449482.0,32.000000
-51,15,40,1625449482.0,32.000000
-51,15,40,1625449482.0,32.000000
-51,15,40,1625449482.0,32.000000
-51,15,40,1625449482.0,32.000000
-51,15,39,1625449482.0,32.000000
-51,15,40,1625449482.0,32.000000
-51,15,40,1625449482.0,32.000000
-51,15,40,1625449482.0,32.000000
-51,15,40,1625449482.0,32.000000
-51,15,39,1625449482.0,32.000000
-51,15,40,1625449482.0,32.000000
-51,15,40,1625449482.0,32.000000
-51,15,40,1625449482.0,32.000000
-51,16,39,1625449482.0,32.000000
-51,15,40,1625449482.0,32.000000
-51,15,40,1625449482.0,32.000000
-51,16,40,1625449482.0,32.000000
-51,15,39,1625449482.0,32.000000
-51,15,40,1625449482.0,32.000000
-51,15,40,1625449482.0,32.000000
-51,15,40,1625449482.0,32.000000
-51,16,40,1625449482.0,32.000000
-51,15,40,1625449482.0,32.000000
-51,16,40,1625449482.0,32.000000
-51,16,40,1625449482.0,32.000000
-51,15,40,1625449482.0,32.000000
-51,15,40,1625449482.0,32.000000
-51,15,40,1625449482.0,32.000000
-51,15,40,1625449482.0,32.000000
-51,15,40,1625449482.0,32.000000
-51,16,40,1625449482.0,32.000000
-51,16,40,1625449482.0,32.000000
-51,15,39,1625449482.0,32.000000
-51,15,40,1625449482.0,32.000000
-51,15,40,1625449482.0,32.000000
-50,16,40,1625449482.0,32.000000
-51,16,40,1625449482.0,32.000000
-51,16,40,1625449482.0,32.000000
-51,15,40,1625449482.0,32.000000
-51,16,40,1625449482.0,32.000000
-50,16,40,1625449482.0,32.000000
-51,16,40,1625449482.0,32.000000
-51,15,40,1625449482.0,32.000000
-50,16,40,1625449482.0,32.000000
-51,16,40,1625449482.0,32.000000
-51,16,40,1625449482.0,32.000000
-50,16,40,1625449482.0,32.000000
-51,16,40,1625449482.0,32.000000
-51,16,40,1625449482.0,32.000000
-51,16,40,1625449482.0,32.000000
-51,16,40,1625449482.0,32.000000
-50,16,40,1625449482.0,32.000000
-51,16,40,1625449482.0,32.000000
-50,16,40,1625449482.0,32.000000
-51,16,40,1625449482.0,32.000000
-51,16,40,1625449482.0,32.000000
-51,16,40,1625449482.0,32.000000
-51,16,40,1625449482.0,32.000000
-50,16,40,1625449482.0,32.000000
-50,16,40,1625449482.0,32.000000
-51,16,40,1625449482.0,32.000000
-51,16,40,1625449482.0,32.000000
-51,16,40,1625449482.0,32.000000
-51,16,40,1625449482.0,32.000000
-51,16,40,1625449482.0,32.000000
-51,16,40,1625449482.0,32.000000
-51,16,40,1625449482.0,32.000000
-51,16,40,1625449482.0,32.000000
-50,16,40,1625449482.0,32.000000
-51,16,40,1625449482.0,32.000000
-51,16,40,1625449482.0,32.000000
-51,16,40,1625449482.0,32.000000
-51,16,40,1625449482.0,32.000000
-50,16,40,1625449482.0,32.000000
-51,16,40,1625449482.0,32.000000
-50,16,40,1625449482.0,32.000000
-51,16,40,1625449482.0,32.000000
-51,16,40,1625449482.0,32.000000
-51,16,40,1625449482.0,32.000000
-51,16,40,1625449482.0,32.000000
-51,16,40,1625449482.0,32.000000
-50,16,40,1625449482.0,32.000000
-51,16,40,1625449482.0,32.000000
-51,16,40,1625449482.0,32.000000
-50,16,40,1625449482.0,32.000000
-51,16,40,1625449482.0,32.000000
-50,16,40,1625449482.0,32.000000
-51,16,40,1625449482.0,32.000000
-50,16,40,1625449482.0,32.000000
-51,16,40,1625449482.0,32.000000
-50,16,40,1625449482.0,32.000000
-50,16,40,1625449482.0,32.000000
-50,16,40,1625449482.0,32.000000
-51,16,40,1625449482.0,32.000000
-51,16,40,1625449482.0,32.000000
-51,16,40,1625449482.0,32.000000
-50,16,40,1625449482.0,32.000000
-50,16,40,1625449482.0,32.000000
-51,16,40,1625449482.0,32.000000
-50,16,40,1625449482.0,32.000000
-50,16,40,1625449482.0,32.000000
-51,16,40,1625449482.0,32.000000
-50,16,40,1625449482.0,32.000000
-50,16,40,1625449482.0,32.000000
-50,16,40,1625449482.0,32.000000
-51,16,40,1625449482.0,32.000000
-51,16,40,1625449482.0,32.000000
-50,16,40,1625449482.0,32.000000
-51,16,40,1625449482.0,32.000000
-50,16,40,1625449482.0,32.000000
-51,16,40,1625449482.0,32.000000
-51,16,40,1625449482.0,32.000000
-50,16,40,1625449482.0,32.000000
-50,16,40,1625449482.0,32.000000
-50,16,40,1625449482.0,32.000000
-50,16,40,1625449482.0,32.000000
-51,16,40,1625449482.0,32.000000
-51,16,39,1625449482.0,32.000000
-50,16,40,1625449482.0,32.000000
-51,16,40,1625449482.0,32.000000
-51,16,40,1625449482.0,32.000000
-51,16,40,1625449482.0,32.000000
-50,16,39,1625449482.0,32.000000
-51,16,40,1625449482.0,32.000000
-51,16,40,1625449482.0,32.000000
-51,16,40,1625449482.0,32.000000
-50,16,40,1625449482.0,32.000000
-51,16,40,1625449482.0,32.000000
-51,16,40,1625449482.0,32.000000
-51,16,40,1625449482.0,32.000000
-50,16,40,1625449482.0,32.000000
-50,16,40,1625449482.0,32.000000
-51,16,40,1625449482.0,32.000000
-51,16,40,1625449482.0,32.000000
-50,16,40,1625449482.0,32.000000
-51,16,40,1625449482.0,32.000000
-51,16,40,1625449482.0,32.000000
-50,16,40,1625449482.0,32.000000
-50,16,40,1625449482.0,32.000000
-51,16,40,1625449482.0,32.000000
-51,16,40,1625449482.0,32.000000
-50,16,39,1625449482.0,32.000000
-50,16,40,1625449482.0,32.000000
-51,16,40,1625449482.0,32.000000
-50,16,40,1625449482.0,32.000000
-50,16,40,1625449482.0,32.000000
-50,16,40,1625449482.0,32.000000
-51,16,40,1625449482.0,32.000000
-51,16,40,1625449482.0,32.000000
-50,16,40,1625449482.0,32.000000
-50,16,40,1625449482.0,32.000000
-51,16,40,1625449482.0,32.000000
-51,16,40,1625449482.0,32.000000
-50,16,40,1625449482.0,32.000000
-50,16,40,1625449482.0,32.000000
-51,16,40,1625449482.0,32.000000
-51,16,40,1625449482.0,32.000000
-51,16,40,1625449482.0,32.000000
-50,16,40,1625449482.0,32.000000
-51,16,40,1625449482.0,32.000000
-51,16,40,1625449482.0,32.000000
-50,16,40,1625449482.0,32.000000
-51,16,40,1625449482.0,32.000000
-51,16,40,1625449482.0,32.000000
-50,16,40,1625449482.0,32.000000
-51,16,40,1625449482.0,32.000000
-50,16,40,1625449482.0,32.000000
-51,16,40,1625449482.0,32.000000
-51,16,40,1625449482.0,32.000000
-51,16,40,1625449482.0,32.000000
-50,16,40,1625449482.0,32.000000
-50,16,40,1625449482.0,32.000000
-51,16,40,1625449482.0,32.000000
-51,16,40,1625449482.0,32.000000
-50,16,40,1625449482.0,32.000000
-50,16,40,1625449482.0,32.000000
-51,16,40,1625449482.0,32.000000
-50,16,40,1625449482.0,32.000000
-50,16,40,1625449482.0,32.000000
-50,16,40,1625449482.0,32.000000
-51,16,40,1625449482.0,32.000000
-51,16,40,1625449482.0,32.000000
-50,16,40,1625449482.0,32.000000
-50,16,40,1625449482.0,32.000000
-51,16,40,1625449482.0,32.000000
-50,16,40,1625449482.0,32.000000
-50,16,40,1625449482.0,32.000000
-51,16,40,1625449482.0,32.000000
-51,16,40,1625449482.0,32.000000
-50,16,40,1625449482.0,32.000000
-50,16,40,1625449482.0,32.000000
-50,16,40,1625449482.0,32.000000
-50,16,40,1625449482.0,32.000000
-50,16,40,1625449482.0,32.000000
-50,16,39,1625449482.0,32.000000
-51,16,39,1625449482.0,32.000000
-50,16,40,1625449482.0,32.000000
-50,16,40,1625449482.0,32.000000
-50,16,40,1625449482.0,32.000000
-50,16,40,1625449482.0,32.000000
-51,16,40,1625449482.0,32.000000
-50,16,40,1625449482.0,32.000000
-50,16,40,1625449482.0,32.000000
-50,16,40,1625449482.0,32.000000
-50,16,40,1625449482.0,32.000000
-50,16,40,1625449482.0,32.000000
-50,16,40,1625449482.0,32.000000
-51,16,40,1625449482.0,32.000000
-51,16,40,1625449482.0,32.000000
-50,16,40,1625449482.0,32.000000
-50,16,40,1625449482.0,32.000000
-50,16,40,1625449482.0,32.000000
-50,16,40,1625449482.0,32.000000
-50,16,40,1625449482.0,32.000000
-50,16,40,1625449482.0,32.000000
-50,16,40,1625449482.0,32.000000
-50,16,40,1625449482.0,32.000000
-50,16,40,1625449482.0,32.000000
-50,16,40,1625449482.0,32.000000
-51,16,40,1625449482.0,32.000000
-51,16,40,1625449482.0,32.000000
-50,16,40,1625449482.0,32.000000
-51,16,40,1625449482.0,32.000000
-50,16,40,1625449482.0,32.000000
-50,16,40,1625449482.0,32.000000
-50,16,40,1625449482.0,32.000000
-51,16,40,1625449482.0,32.000000
-50,16,40,1625449482.0,32.000000
-50,16,40,1625449482.0,32.000000
-50,16,40,1625449482.0,32.000000
-50,16,40,1625449482.0,32.000000
-50,16,40,1625449482.0,32.000000
-51,16,40,1625449482.0,32.000000
-50,16,40,1625449482.0,32.000000
-50,16,40,1625449482.0,32.000000
-50,16,40,1625449482.0,32.000000
-50,16,40,1625449482.0,32.000000
-50,16,40,1625449482.0,32.000000
-50,16,40,1625449482.0,32.000000
-51,16,40,1625449482.0,32.000000
-50,16,40,1625449482.0,32.000000
-50,16,40,1625449482.0,32.000000
-50,16,40,1625449482.0,32.000000
-50,16,40,1625449482.0,32.000000
-51,16,40,1625449482.0,32.000000
-50,16,40,1625449482.0,32.000000
-50,16,40,1625449482.0,32.000000
-50,16,40,1625449482.0,32.000000
-50,16,40,1625449482.0,32.000000
-50,16,40,1625449482.0,32.000000
-50,16,40,1625449482.0,32.000000
-50,16,40,1625449482.0,32.000000
-50,16,40,1625449482.0,32.000000
-50,16,40,1625449482.0,32.000000
-50,16,40,1625449482.0,32.000000
-50,16,40,1625449482.0,32.000000
-50,16,40,1625449482.0,32.000000
-50,16,40,1625449482.0,32.000000
-51,16,40,1625449482.0,32.000000
-50,16,40,1625449482.0,32.000000
-50,16,40,1625449482.0,32.000000
-51,16,40,1625449482.0,32.000000
-50,16,40,1625449482.0,32.000000
-50,16,40,1625449482.0,32.000000
-50,16,40,1625449482.0,32.000000
-50,16,40,1625449482.0,32.000000
-50,16,40,1625449482.0,32.000000
-50,16,40,1625449482.0,32.000000
-50,16,40,1625449482.0,32.000000
-51,16,40,1625449482.0,32.000000
-50,16,40,1625449482.0,32.000000
-50,16,40,1625449482.0,32.000000
-50,16,40,1625449482.0,32.000000
-50,16,40,1625449482.0,32.000000
-50,16,40,1625449482.0,32.000000
-50,16,40,1625449482.0,32.000000
-50,16,40,1625449482.0,32.000000
-50,16,40,1625449482.0,32.000000
-50,16,40,1625449482.0,32.000000
-50,16,40,1625449482.0,32.000000
-50,16,40,1625449482.0,32.000000
-50,16,40,1625449482.0,32.000000
-50,16,40,1625449482.0,32.000000
-50,16,40,1625449482.0,32.000000
-50,16,40,1625449482.0,32.000000
-50,16,40,1625449482.0,32.000000
-50,16,40,1625449482.0,32.000000
-50,16,40,1625449482.0,32.000000
-50,16,40,1625449482.0,32.000000
-50,16,40,1625449482.0,32.000000
-50,16,40,1625449482.0,32.000000
-50,16,40,1625449482.0,32.000000
-50,16,40,1625449482.0,32.000000
-51,16,40,1625449482.0,32.000000
-50,16,40,1625449482.0,32.000000
-50,16,40,1625449482.0,32.000000
-50,16,40,1625449482.0,32.000000
-50,16,40,1625449482.0,32.000000
-50,16,40,1625449482.0,32.000000
-50,16,40,1625449482.0,32.000000
-51,16,40,1625449482.0,32.000000
-50,16,40,1625449482.0,32.000000
-50,16,40,1625449482.0,32.000000
-50,16,40,1625449482.0,32.000000
-50,16,40,1625449482.0,32.000000
-50,16,40,1625449482.0,32.000000
-50,16,40,1625449482.0,32.000000
-50,16,40,1625449482.0,32.000000
-50,16,40,1625449482.0,32.000000
-50,16,40,1625449482.0,32.000000
-51,16,40,1625449482.0,32.000000
-50,16,40,1625449482.0,32.000000
-50,16,40,1625449482.0,32.000000
-51,16,40,1625449482.0,32.000000
-50,16,40,1625449482.0,32.000000
-50,16,40,1625449482.0,32.000000
-50,16,40,1625449482.0,32.000000
-50,16,40,1625449482.0,32.000000
-50,16,40,1625449482.0,32.000000
-51,16,40,1625449482.0,32.000000
-50,16,40,1625449482.0,32.000000
-50,16,40,1625449482.0,32.000000
-50,16,40,1625449482.0,32.000000
-50,16,40,1625449482.0,32.000000
-50,16,40,1625449482.0,32.000000
-50,16,40,1625449482.0,32.000000
-51,16,40,1625449482.0,32.000000
-50,16,40,1625449482.0,32.000000
-50,16,40,1625449482.0,32.000000
-50,16,40,1625449482.0,32.000000
-51,16,40,1625449482.0,32.000000
-50,16,40,1625449482.0,32.000000
-50,16,40,1625449482.0,32.000000
-51,16,40,1625449482.0,32.000000
-50,16,40,1625449482.0,32.000000
-50,16,40,1625449482.0,32.000000
-50,16,40,1625449482.0,32.000000
-51,16,40,1625449482.0,32.000000
-50,16,40,1625449482.0,32.000000
-50,17,40,1625449482.0,32.000000
-50,16,40,1625449482.0,32.000000
-50,16,40,1625449482.0,32.000000
-50,16,40,1625449482.0,32.000000
-50,16,40,1625449482.0,32.000000
-50,16,40,1625449482.0,32.000000
-50,16,40,1625449482.0,32.000000
-50,16,40,1625449482.0,32.000000
-50,16,40,1625449482.0,32.000000
-50,16,40,1625449482.0,32.000000
-50,16,40,1625449482.0,32.000000
-50,16,40,1625449482.0,32.000000
-50,16,40,1625449482.0,32.000000
-50,16,40,1625449482.0,32.000000
-50,16,40,1625449482.0,32.000000
-50,16,40,1625449482.0,32.000000
-50,16,40,1625449482.0,32.000000
-51,16,40,1625449482.0,32.000000
-50,16,40,1625449482.0,32.000000
-50,16,40,1625449482.0,32.000000
-50,16,40,1625449482.0,32.000000
-50,16,40,1625449482.0,32.000000
-50,16,40,1625449482.0,32.000000
-50,16,40,1625449482.0,32.000000
-51,16,40,1625449482.0,32.000000
-50,16,40,1625449482.0,32.000000
-50,16,40,1625449482.0,32.000000
-50,16,40,1625449482.0,32.000000
-50,16,40,1625449482.0,32.000000
-50,16,40,1625449482.0,32.000000
-50,16,40,1625449482.0,32.000000
-50,16,40,1625449482.0,32.000000
-50,16,40,1625449482.0,32.000000
-50,17,40,1625449482.0,32.000000
-50,16,40,1625449482.0,32.000000
-50,16,40,1625449482.0,32.000000
-50,16,40,1625449482.0,32.000000
-50,16,40,1625449482.0,32.000000
-50,16,40,1625449482.0,32.000000
-50,16,40,1625449482.0,32.000000
-50,16,40,1625449482.0,32.000000
-50,16,40,1625449482.0,32.000000
-50,17,40,1625449482.0,32.000000
-50,16,40,1625449482.0,32.000000
-50,16,40,1625449482.0,32.000000
-50,16,40,1625449482.0,32.000000
-50,16,40,1625449482.0,32.000000
-50,16,40,1625449482.0,32.000000
-50,16,40,1625449482.0,32.000000
-50,16,40,1625449482.0,32.000000
-50,16,40,1625449482.0,32.000000
-50,16,40,1625449482.0,32.000000
-50,16,40,1625449482.0,32.000000
-50,16,40,1625449482.0,32.000000
-50,16,40,1625449482.0,32.000000
-50,16,40,1625449482.0,32.000000
-51,16,40,1625449482.0,32.000000
-50,16,40,1625449482.0,32.000000
-50,16,40,1625449482.0,32.000000
-50,16,40,1625449482.0,32.000000
-50,16,40,1625449482.0,32.000000
-50,16,40,1625449482.0,32.000000
-50,16,40,1625449482.0,32.000000
-50,16,40,1625449482.0,32.000000
-50,16,40,1625449482.0,32.000000
-50,16,40,1625449482.0,32.000000
-50,16,40,1625449482.0,32.000000
-50,16,40,1625449482.0,32.000000
-50,16,40,1625449482.0,32.000000
-50,16,40,1625449482.0,32.000000
-50,16,40,1625449482.0,32.000000
-50,16,40,1625449482.0,32.000000
-50,16,40,1625449482.0,32.000000
-50,16,40,1625449482.0,32.000000
-50,16,40,1625449482.0,32.000000
-50,16,40,1625449482.0,32.000000
-50,16,40,1625449482.0,32.000000
-50,16,40,1625449482.0,32.000000
-50,16,40,1625449482.0,32.000000
-50,16,40,1625449482.0,32.000000
-50,16,40,1625449482.0,32.000000
-50,16,40,1625449482.0,32.000000
-50,16,40,1625449482.0,32.000000
-50,16,40,1625449482.0,32.000000
-50,16,40,1625449482.0,32.000000
-50,16,40,1625449482.0,32.000000
-50,16,40,1625449482.0,32.000000
-50,16,40,1625449482.0,32.000000
-50,16,40,1625449482.0,32.000000
-50,16,40,1625449482.0,32.000000
-50,16,40,1625449482.0,32.000000
-50,16,40,1625449482.0,32.000000
-50,16,40,1625449482.0,32.000000
-50,16,40,1625449482.0,32.000000
-50,16,40,1625449482.0,32.000000
-50,16,40,1625449482.0,32.000000
-50,16,40,1625449482.0,32.000000
-50,16,40,1625449482.0,32.000000
-50,16,40,1625449482.0,32.000000
-50,16,40,1625449482.0,32.000000
-50,17,40,1625449482.0,32.000000
-50,16,40,1625449482.0,32.000000
-50,16,40,1625449482.0,32.000000
-50,16,40,1625449482.0,32.000000
-50,16,40,1625449482.0,32.000000
-50,16,40,1625449482.0,32.000000
-50,17,40,1625449482.0,32.000000
-50,17,40,1625449482.0,32.000000
-50,17,40,1625449482.0,32.000000
-50,16,40,1625449482.0,32.000000
-50,16,40,1625449482.0,32.000000
-50,16,40,1625449482.0,32.000000
-50,16,40,1625449482.0,32.000000
-50,16,40,1625449482.0,32.000000
-50,16,40,1625449482.0,32.000000
-50,16,40,1625449482.0,32.000000
-50,16,40,1625449482.0,32.000000
-50,17,40,1625449482.0,32.000000
-50,16,40,1625449482.0,32.000000
-50,16,40,1625449482.0,32.000000
-50,16,40,1625449482.0,32.000000
-50,16,40,1625449482.0,32.000000
-50,16,40,1625449482.0,32.000000
-50,17,40,1625449482.0,32.000000
-50,16,40,1625449482.0,32.000000
-50,16,40,1625449482.0,32.000000
-50,16,40,1625449482.0,32.000000
-50,16,40,1625449482.0,32.000000
-50,16,40,1625449482.0,32.000000
-50,16,40,1625449482.0,32.000000
-50,16,40,1625449482.0,32.000000
-50,16,40,1625449482.0,32.000000
-50,16,40,1625449482.0,32.000000
-50,16,40,1625449482.0,32.000000
-50,16,40,1625449482.0,32.000000
-50,16,40,1625449482.0,32.000000
-50,16,40,1625449482.0,32.000000
-50,16,40,1625449482.0,32.000000
-50,16,40,1625449482.0,32.000000
-50,16,40,1625449482.0,32.000000
-50,16,40,1625449482.0,32.000000
-50,16,40,1625449482.0,32.000000
-50,16,40,1625449482.0,32.000000
-50,16,40,1625449482.0,32.000000
-50,16,40,1625449482.0,32.000000
-50,16,40,1625449482.0,32.000000
-50,16,40,1625449482.0,32.000000
-50,16,40,1625449482.0,32.000000
-50,16,40,1625449482.0,32.000000
-50,17,40,1625449482.0,32.000000
-50,16,40,1625449482.0,32.000000
-50,16,40,1625449482.0,32.000000
-50,16,40,1625449482.0,32.000000
-50,16,40,1625449482.0,32.000000
-50,16,40,1625449482.0,32.000000
-50,16,40,1625449482.0,32.000000
-50,16,40,1625449482.0,32.000000
-50,17,40,1625449482.0,32.000000
-50,16,40,1625449482.0,32.000000
-50,16,40,1625449482.0,32.000000
-50,16,40,1625449482.0,32.000000
-50,16,40,1625449482.0,32.000000
-50,16,40,1625449482.0,32.000000
-50,16,40,1625449482.0,32.000000
-50,17,40,1625449482.0,32.000000
-50,17,40,1625449482.0,32.000000
-50,16,40,1625449482.0,32.000000
-50,16,40,1625449482.0,32.000000
-50,16,40,1625449482.0,32.000000
-50,16,40,1625449482.0,32.000000
-50,16,40,1625449482.0,32.000000
-50,16,40,1625449482.0,32.000000
-50,17,40,1625449482.0,32.000000
-50,17,40,1625449482.0,32.000000
-50,17,40,1625449482.0,32.000000
-50,16,40,1625449482.0,32.000000
-50,16,40,1625449482.0,32.000000
-50,16,40,1625449482.0,32.000000
-50,16,40,1625449482.0,32.000000
-50,16,40,1625449482.0,32.000000
-50,16,40,1625449482.0,32.000000
-50,16,40,1625449482.0,32.000000
-50,17,40,1625449482.0,32.000000
-50,16,40,1625449482.0,32.000000
-50,16,40,1625449482.0,32.000000
-50,16,40,1625449482.0,32.000000
-50,16,40,1625449482.0,32.000000
-50,17,40,1625449482.0,32.000000
-50,16,40,1625449482.0,32.000000
-50,16,40,1625449482.0,32.000000
-50,17,40,1625449482.0,32.000000
-50,16,40,1625449482.0,32.000000
-50,16,40,1625449482.0,32.000000
-50,16,40,1625449482.0,32.000000
-50,16,40,1625449482.0,32.000000
-50,16,40,1625449482.0,32.000000
-50,17,40,1625449482.0,32.000000
-50,16,40,1625449482.0,32.000000
-50,16,40,1625449482.0,32.000000
-50,16,40,1625449482.0,32.000000
-50,16,40,1625449482.0,32.000000
-50,16,40,1625449482.0,32.000000
-50,16,40,1625449482.0,32.000000
-50,16,40,1625449482.0,32.000000
-51,17,40,1625449482.0,32.000000
-50,16,40,1625449482.0,32.000000
-50,16,40,1625449482.0,32.000000
-51,17,40,1625449482.0,32.000000
-50,16,40,1625449482.0,32.000000
-50,16,40,1625449482.0,32.000000
-50,16,40,1625449482.0,32.000000
-50,17,40,1625449482.0,32.000000
-50,17,40,1625449482.0,32.000000
-50,17,40,1625449482.0,32.000000
-50,17,40,1625449482.0,32.000000
-50,16,40,1625449482.0,32.000000
-50,16,40,1625449482.0,32.000000
-50,16,40,1625449482.0,32.000000
-50,16,40,1625449482.0,32.000000
-50,16,40,1625449482.0,32.000000
-50,17,40,1625449482.0,32.000000
-50,16,40,1625449482.0,32.000000
-50,16,40,1625449482.0,32.000000
-50,17,40,1625449482.0,32.000000
-50,17,40,1625449482.0,32.000000
-50,16,40,1625449482.0,32.000000
-50,17,40,1625449482.0,32.000000
-50,17,40,1625449482.0,32.000000
-50,17,40,1625449482.0,32.000000
-50,17,40,1625449482.0,32.000000
-50,17,40,1625449482.0,32.000000
-50,17,40,1625449482.0,32.000000
-50,17,40,1625449482.0,32.000000
-49,16,40,1625449482.0,32.000000
-50,17,40,1625449482.0,32.000000
-50,17,41,1625449482.0,32.000000
-50,16,40,1625449482.0,32.000000
-49,16,40,1625449482.0,32.000000
-50,17,40,1625449482.0,32.000000
-50,17,40,1625449482.0,32.000000
-50,17,40,1625449482.0,32.000000
-50,17,40,1625449482.0,32.000000
-50,17,40,1625449482.0,32.000000
-50,17,40,1625449482.0,32.000000
-49,17,40,1625449482.0,32.000000
-50,16,40,1625449482.0,32.000000
-50,16,40,1625449482.0,32.000000
-49,17,41,1625449482.0,32.000000
-49,18,40,1625449482.0,32.000000
-49,18,40,1625449482.0,32.000000
-50,17,40,1625449482.0,32.000000
-50,16,40,1625449482.0,32.000000
-50,17,40,1625449482.0,32.000000
-50,17,40,1625449482.0,32.000000
-50,17,41,1625449482.0,32.000000
-49,17,40,1625449482.0,32.000000
-49,17,40,1625449482.0,32.000000
-49,17,40,1625449482.0,32.000000
-49,17,41,1625449482.0,32.000000
-50,17,40,1625449482.0,32.000000
-50,17,40,1625449482.0,32.000000
-50,17,40,1625449482.0,32.000000
-50,16,40,1625449482.0,32.000000
-50,17,40,1625449482.0,32.000000
-50,17,41,1625449482.0,32.000000
-49,17,40,1625449482.0,32.000000
-49,17,40,1625449482.0,32.000000
-50,17,40,1625449482.0,32.000000
-50,17,40,1625449482.0,32.000000
-50,17,40,1625449482.0,32.000000
-50,17,40,1625449482.0,32.000000
-50,17,40,1625449482.0,32.000000
-49,17,40,1625449482.0,32.000000
-50,17,40,1625449482.0,32.000000
-50,17,40,1625449482.0,32.000000
-49,17,40,1625449482.0,32.000000
-49,17,40,1625449482.0,32.000000
-50,17,40,1625449482.0,32.000000
-50,17,40,1625449482.0,32.000000
-50,17,40,1625449482.0,32.000000
-50,17,40,1625449482.0,32.000000
-50,17,40,1625449482.0,32.000000
-50,17,40,1625449482.0,32.000000
-50,17,40,1625449482.0,32.000000
-49,17,40,1625449482.0,32.000000
-50,17,40,1625449482.0,32.000000
-50,17,40,1625449482.0,32.000000
-50,17,40,1625449482.0,32.000000
-50,17,40,1625449482.0,32.000000
-50,17,40,1625449482.0,32.000000
-50,17,40,1625449482.0,32.000000
-51,16,40,1625449482.0,32.000000
-50,17,40,1625449482.0,32.000000
-50,17,40,1625449482.0,32.000000
-50,17,40,1625449482.0,32.000000
-51,17,40,1625449482.0,32.000000
-51,17,40,1625449482.0,32.000000
-50,18,40,1625449482.0,32.000000
-46,17,43,1625449482.0,32.000000
-48,18,46,1625449482.0,32.000000
-46,17,42,1625449482.0,32.000000
-55,12,31,1625449482.0,32.000000
-66,9,11,1625449482.0,32.000000
-62,5,10,1625449482.0,32.000000
-71,1,1,1625449482.0,32.000000
-70,-1,-3,1625449482.0,32.000000
-62,0,0,1625449482.0,32.000000
-66,-2,-2,1625449482.0,32.000000
-69,-2,-4,1625449482.0,32.000000
-62,1,3,1625449482.0,32.000000
-64,1,4,1625449482.0,32.000000
-69,6,6,1625449482.0,32.000000
-68,7,13,1625449482.0,32.000000
-65,4,11,1625449482.0,32.000000
-63,4,4,1625449482.0,32.000000
-62,6,1,1625449482.0,32.000000
-66,4,3,1625449482.0,32.000000
-67,6,6,1625449482.0,32.000000
-67,6,6,1625449482.0,32.000000
-63,7,10,1625449482.0,32.000000
-64,7,10,1625449482.0,32.000000
-70,9,7,1625449482.0,32.000000
-55,-2,8,1625449482.0,32.000000
-67,10,-5,1625449482.0,32.000000
-63,4,3,1625449482.0,32.000000
-60,5,5,1625449482.0,32.000000
-64,7,5,1625449482.0,32.000000
-66,1,2,1625449482.0,32.000000
-64,4,3,1625449482.0,32.000000
-65,4,4,1625449482.0,32.000000
-67,4,5,1625449482.0,32.000000
-67,6,6,1625449482.0,32.000000
-63,2,-1,1625449482.0,32.000000
-63,0,0,1625449482.0,32.000000
-67,-1,-3,1625449482.0,32.000000
-61,2,-4,1625449482.0,32.000000
-67,4,3,1625449482.0,32.000000
-68,8,6,1625449482.0,32.000000
-73,6,3,1625449482.0,32.000000
-63,4,11,1625449482.0,32.000000
-65,4,13,1625449482.0,32.000000
-67,8,15,1625449482.0,32.000000
-63,10,24,1625449482.0,32.000000
-62,10,7,1625449482.0,32.000000
-70,13,0,1625449482.0,32.000000
-51,7,8,1625449482.0,32.000000
-71,6,5,1625449482.0,32.000000
-73,10,18,1625449482.0,32.000000
-58,9,30,1625449482.0,32.000000
-64,6,24,1625449482.0,32.000000
-65,6,26,1625449482.0,32.000000
-61,8,25,1625449482.0,32.000000
-61,10,19,1625449482.0,32.000000
-71,11,11,1625449482.0,32.000000
-63,13,13,1625449482.0,32.000000
-60,13,16,1625449482.0,32.000000
-65,13,21,1625449482.0,32.000000
-60,16,29,1625449482.0,32.000000
-57,15,34,1625449482.0,32.000000
-57,13,25,1625449482.0,32.000000
-57,13,25,1625449482.0,32.000000
-58,13,27,1625449482.0,32.000000
-60,12,27,1625449482.0,32.000000
-57,7,31,1625449482.0,32.000000
-55,6,33,1625449482.0,32.000000
-55,5,30,1625449482.0,32.000000
-65,13,29,1625449482.0,32.000000
-65,15,26,1625449482.0,32.000000
-60,11,28,1625449482.0,32.000000
-55,9,26,1625449482.0,32.000000
-61,6,22,1625449482.0,32.000000
-65,3,20,1625449482.0,32.000000
-69,5,19,1625449482.0,32.000000
-61,7,25,1625449482.0,32.000000
-57,10,30,1625449482.0,32.000000
-53,17,32,1625449482.0,32.000000
-53,14,29,1625449482.0,32.000000
-51,15,34,1625449482.0,32.000000
-49,15,37,1625449482.0,32.000000
-50,12,34,1625449482.0,32.000000
-59,9,27,1625449482.0,32.000000
-62,11,31,1625449482.0,32.000000
-63,12,33,1625449482.0,32.000000
-61,15,30,1625449482.0,32.000000
-60,13,28,1625449482.0,32.000000
-60,10,29,1625449482.0,32.000000
-58,9,34,1625449482.0,32.000000
-57,10,33,1625449482.0,32.000000
-55,9,33,1625449482.0,32.000000
-54,9,34,1625449482.0,32.000000
-59,11,33,1625449482.0,32.000000
-60,11,30,1625449482.0,32.000000
-59,10,30,1625449482.0,32.000000
-59,9,30,1625449482.0,32.000000
-59,8,29,1625449482.0,32.000000
-57,6,28,1625449482.0,32.000000
-58,7,29,1625449482.0,32.000000
-58,8,30,1625449482.0,32.000000
-58,10,31,1625449482.0,32.000000
-57,10,33,1625449482.0,32.000000
-59,10,30,1625449482.0,32.000000
-59,9,30,1625449482.0,32.000000
-59,9,30,1625449482.0,32.000000
-60,9,28,1625449482.0,32.000000
-60,8,27,1625449482.0,32.000000
-59,9,30,1625449482.0,32.000000
-59,9,30,1625449482.0,32.000000
-59,9,30,1625449482.0,32.000000
-59,9,31,1625449482.0,32.000000
-59,8,30,1625449482.0,32.000000
-58,8,29,1625449482.0,32.000000
-58,7,29,1625449482.0,32.000000
-58,8,29,1625449482.0,32.000000
-59,8,29,1625449482.0,32.000000
-59,8,29,1625449482.0,32.000000
-58,8,29,1625449482.0,32.000000
-59,8,29,1625449482.0,32.000000
-60,8,28,1625449482.0,32.000000
-59,8,28,1625449482.0,32.000000
-59,8,29,1625449482.0,32.000000
-59,8,28,1625449482.0,32.000000
-59,8,28,1625449482.0,32.000000
-60,10,28,1625449482.0,32.000000
-59,11,30,1625449482.0,32.000000
-59,11,31,1625449482.0,32.000000
-59,11,30,1625449482.0,32.000000
-60,10,29,1625449482.0,32.000000
-59,10,27,1625449482.0,32.000000
-60,11,26,1625449482.0,32.000000
-60,11,26,1625449482.0,32.000000
-60,11,27,1625449482.0,32.000000
-60,11,28,1625449482.0,32.000000
-60,10,29,1625449482.0,32.000000
-59,10,28,1625449482.0,32.000000
-60,10,27,1625449482.0,32.000000
-60,9,27,1625449482.0,32.000000
-60,8,27,1625449482.0,32.000000
-59,8,28,1625449482.0,32.000000
-59,8,28,1625449482.0,32.000000
-59,9,28,1625449482.0,32.000000
-59,8,29,1625449482.0,32.000000
-59,8,29,1625449482.0,32.000000
-59,9,29,1625449482.0,32.000000
-59,9,30,1625449482.0,32.000000
-60,8,30,1625449482.0,32.000000
-60,8,29,1625449482.0,32.000000
-59,8,29,1625449482.0,32.000000
-59,8,29,1625449482.0,32.000000
-59,9,28,1625449482.0,32.000000
-59,9,29,1625449482.0,32.000000
-59,9,29,1625449482.0,32.000000
-59,9,30,1625449482.0,32.000000
-59,10,30,1625449482.0,32.000000
-58,10,30,1625449482.0,32.000000
-59,10,30,1625449482.0,32.000000
-59,10,29,1625449482.0,32.000000
-59,10,29,1625449482.0,32.000000
-59,9,29,1625449482.0,32.000000
-59,9,29,1625449482.0,32.000000
-58,9,30,1625449482.0,32.000000
-58,10,30,1625449482.0,32.000000
-58,10,30,1625449482.0,32.000000
-58,10,31,1625449482.0,32.000000
-59,10,30,1625449482.0,32.000000
-59,10,30,1625449482.0,32.000000
-59,10,30,1625449482.0,32.000000
-59,10,29,1625449482.0,32.000000
-59,9,29,1625449482.0,32.000000
-59,10,29,1625449482.0,32.000000
-59,10,29,1625449482.0,32.000000
-58,10,30,1625449482.0,32.000000
-59,10,30,1625449482.0,32.000000
-59,10,30,1625449482.0,32.000000
-59,10,30,1625449482.0,32.000000
-59,10,29,1625449482.0,32.000000
-58,9,29,1625449482.0,32.000000
-59,9,29,1625449482.0,32.000000
-59,9,29,1625449482.0,32.000000
-59,9,29,1625449482.0,32.000000
-59,10,30,1625449482.0,32.000000
-59,10,30,1625449482.0,32.000000
-59,9,30,1625449482.0,32.000000
-59,9,29,1625449482.0,32.000000
-59,9,29,1625449482.0,32.000000
-59,9,29,1625449482.0,32.000000
-59,9,29,1625449482.0,32.000000
-59,9,29,1625449482.0,32.000000
-59,9,30,1625449482.0,32.000000
-58,10,30,1625449482.0,32.000000
-59,9,29,1625449482.0,32.000000
-59,9,29,1625449482.0,32.000000
-59,9,29,1625449482.0,32.000000
-59,9,29,1625449482.0,32.000000
-58,9,29,1625449482.0,32.000000
-59,9,29,1625449482.0,32.000000
-59,9,29,1625449482.0,32.000000
-59,9,29,1625449482.0,32.000000
-59,9,29,1625449482.0,32.000000
-58,9,29,1625449482.0,32.000000
-59,10,29,1625449482.0,32.000000
-59,9,29,1625449482.0,32.000000
-59,9,29,1625449482.0,32.000000
-59,9,29,1625449482.0,32.000000
-59,9,29,1625449482.0,32.000000
-59,10,30,1625449482.0,32.000000
-59,10,29,1625449482.0,32.000000
-59,10,30,1625449482.0,32.000000
-59,10,30,1625449482.0,32.000000
-59,10,30,1625449482.0,32.000000
-59,10,30,1625449482.0,32.000000
-59,10,29,1625449482.0,32.000000
-59,9,29,1625449482.0,32.000000
-59,9,29,1625449482.0,32.000000
-59,10,29,1625449482.0,32.000000
-59,10,29,1625449482.0,32.000000
-59,10,30,1625449482.0,32.000000
-59,9,29,1625449482.0,32.000000
-59,10,29,1625449482.0,32.000000
-59,9,29,1625449482.0,32.000000
-59,9,28,1625449482.0,32.000000
-59,9,29,1625449482.0,32.000000
-59,9,29,1625449482.0,32.000000
-58,10,31,1625449482.0,32.000000
-59,10,31,1625449482.0,32.000000
-58,10,31,1625449482.0,32.000000
-59,10,30,1625449482.0,32.000000
-59,10,29,1625449482.0,32.000000
-59,10,29,1625449482.0,32.000000
-59,10,29,1625449482.0,32.000000
-59,10,30,1625449482.0,32.000000
-59,10,29,1625449482.0,32.000000
-58,10,29,1625449482.0,32.000000
-59,10,29,1625449482.0,32.000000
-58,10,30,1625449482.0,32.000000
-59,10,30,1625449482.0,32.000000
-59,9,30,1625449482.0,32.000000
-59,9,29,1625449482.0,32.000000
-59,9,29,1625449482.0,32.000000
-59,9,29,1625449482.0,32.000000
-59,10,29,1625449482.0,32.000000
-59,10,29,1625449482.0,32.000000
-59,10,29,1625449482.0,32.000000
-59,10,29,1625449482.0,32.000000
-59,10,29,1625449482.0,32.000000
-58,10,30,1625449482.0,32.000000
-58,10,30,1625449482.0,32.000000
-58,10,30,1625449482.0,32.000000
-58,9,30,1625449482.0,32.000000
-58,9,30,1625449482.0,32.000000
-58,10,29,1625449482.0,32.000000
-58,10,29,1625449482.0,32.000000
-58,9,29,1625449482.0,32.000000
-59,9,29,1625449482.0,32.000000
-59,10,30,1625449482.0,32.000000
-59,10,30,1625449482.0,32.000000
-59,10,30,1625449482.0,32.000000
-59,10,30,1625449482.0,32.000000
-59,10,29,1625449482.0,32.000000
-59,11,30,1625449482.0,32.000000
-59,11,30,1625449482.0,32.000000
-59,10,30,1625449482.0,32.000000
-59,10,30,1625449482.0,32.000000
-59,10,30,1625449482.0,32.000000
-58,9,30,1625449482.0,32.000000
-59,9,30,1625449482.0,32.000000
-58,9,29,1625449482.0,32.000000
-59,9,29,1625449482.0,32.000000
-58,9,30,1625449482.0,32.000000
-58,9,30,1625449482.0,32.000000
-59,9,30,1625449482.0,32.000000
-59,10,30,1625449482.0,32.000000
-59,10,29,1625449482.0,32.000000
-59,10,29,1625449482.0,32.000000
-59,10,29,1625449482.0,32.000000
-59,10,29,1625449482.0,32.000000
-59,11,30,1625449482.0,32.000000
-59,11,30,1625449482.0,32.000000
-59,11,30,1625449482.0,32.000000
-59,10,30,1625449482.0,32.000000
-58,10,30,1625449482.0,32.000000
-58,9,30,1625449482.0,32.000000
-59,9,30,1625449482.0,32.000000
-58,9,29,1625449482.0,32.000000
-59,9,29,1625449482.0,32.000000
-58,9,29,1625449482.0,32.000000
-59,9,30,1625449482.0,32.000000
-59,10,30,1625449482.0,32.000000
-58,10,30,1625449482.0,32.000000
-59,10,30,1625449482.0,32.000000
-59,10,29,1625449482.0,32.000000
-59,10,29,1625449482.0,32.000000
-59,10,30,1625449482.0,32.000000
-59,10,30,1625449482.0,32.000000
-59,10,30,1625449482.0,32.000000
-59,10,30,1625449482.0,32.000000
-59,9,30,1625449482.0,32.000000
-58,9,29,1625449482.0,32.000000
-59,9,29,1625449482.0,32.000000
-59,9,30,1625449482.0,32.000000
-58,10,30,1625449482.0,32.000000
-59,10,30,1625449482.0,32.000000
-58,10,30,1625449482.0,32.000000
-59,10,30,1625449482.0,32.000000
-59,10,30,1625449482.0,32.000000
-59,10,30,1625449482.0,32.000000
-59,10,30,1625449482.0,32.000000
-59,10,29,1625449482.0,32.000000
-59,10,30,1625449482.0,32.000000
-59,10,30,1625449482.0,32.000000
-58,9,30,1625449482.0,32.000000
-59,9,29,1625449482.0,32.000000
-59,10,30,1625449482.0,32.000000
-58,10,30,1625449482.0,32.000000
-59,10,30,1625449482.0,32.000000
-58,10,30,1625449482.0,32.000000
-59,10,30,1625449482.0,32.000000
-59,10,30,1625449482.0,32.000000
-58,10,29,1625449482.0,32.000000
-59,10,30,1625449482.0,32.000000
-59,10,29,1625449482.0,32.000000
-58,10,30,1625449482.0,32.000000
-59,10,30,1625449482.0,32.000000
-59,10,30,1625449482.0,32.000000
-59,10,30,1625449482.0,32.000000
-59,10,29,1625449482.0,32.000000
-58,9,30,1625449482.0,32.000000
-59,10,30,1625449482.0,32.000000
-59,10,30,1625449482.0,32.000000
-59,10,30,1625449482.0,32.000000
-58,10,30,1625449482.0,32.000000
-59,10,30,1625449482.0,32.000000
-58,10,30,1625449482.0,32.000000
-59,10,30,1625449482.0,32.000000
-59,9,30,1625449482.0,32.000000
-58,10,30,1625449482.0,32.000000
-59,10,30,1625449482.0,32.000000
-59,10,30,1625449482.0,32.000000
-58,10,30,1625449482.0,32.000000
-59,10,30,1625449482.0,32.000000
-58,10,30,1625449482.0,32.000000
-58,10,30,1625449482.0,32.000000
-58,10,31,1625449482.0,32.000000
-58,9,30,1625449482.0,32.000000
-58,9,30,1625449482.0,32.000000
-58,9,30,1625449482.0,32.000000
-58,10,30,1625449482.0,32.000000
-58,10,30,1625449482.0,32.000000
-59,10,29,1625449482.0,32.000000
-59,10,30,1625449482.0,32.000000
-58,10,30,1625449482.0,32.000000
-59,10,30,1625449482.0,32.000000
-59,10,30,1625449482.0,32.000000
-58,10,30,1625449482.0,32.000000
-58,10,30,1625449482.0,32.000000
-59,9,30,1625449482.0,32.000000
-59,9,30,1625449482.0,32.000000
-59,9,29,1625449482.0,32.000000
-59,9,29,1625449482.0,32.000000
-58,9,30,1625449482.0,32.000000
-59,10,30,1625449482.0,32.000000
-59,10,30,1625449482.0,32.000000
-58,10,30,1625449482.0,32.000000
-58,10,30,1625449482.0,32.000000
-59,10,30,1625449482.0,32.000000
-59,9,30,1625449482.0,32.000000
-59,9,29,1625449482.0,32.000000
-59,9,29,1625449482.0,32.000000
-59,9,29,1625449482.0,32.000000
-59,9,29,1625449482.0,32.000000
-59,9,30,1625449482.0,32.000000
-59,10,30,1625449482.0,32.000000
-58,10,30,1625449482.0,32.000000
-58,10,30,1625449482.0,32.000000
-58,10,30,1625449482.0,32.000000
-59,9,30,1625449482.0,32.000000
-59,10,30,1625449482.0,32.000000
-59,10,30,1625449482.0,32.000000
-59,9,30,1625449482.0,32.000000
-59,9,30,1625449482.0,32.000000
-59,10,30,1625449482.0,32.000000
-59,10,30,1625449482.0,32.000000
-59,9,30,1625449482.0,32.000000
-58,9,30,1625449482.0,32.000000
-59,10,30,1625449482.0,32.000000
-59,9,30,1625449482.0,32.000000
-59,9,30,1625449482.0,32.000000
-58,10,30,1625449482.0,32.000000
-59,10,30,1625449482.0,32.000000
-59,9,30,1625449482.0,32.000000
-59,9,30,1625449482.0,32.000000
-59,10,29,1625449482.0,32.000000
-59,9,30,1625449482.0,32.000000
-59,10,30,1625449482.0,32.000000
-59,10,30,1625449482.0,32.000000
-59,9,30,1625449482.0,32.000000
-58,9,30,1625449482.0,32.000000
-59,10,30,1625449482.0,32.000000
-59,9,30,1625449482.0,32.000000
-59,9,29,1625449482.0,32.000000
-59,9,29,1625449482.0,32.000000
-59,9,30,1625449482.0,32.000000
-59,9,30,1625449482.0,32.000000
-59,10,29,1625449482.0,32.000000
-59,10,30,1625449482.0,32.000000
-59,9,29,1625449482.0,32.000000
-59,9,29,1625449482.0,32.000000
-59,9,29,1625449482.0,32.000000
-59,9,29,1625449482.0,32.000000
-59,9,30,1625449482.0,32.000000
-59,9,30,1625449482.0,32.000000
-59,9,30,1625449482.0,32.000000
-59,10,29,1625449482.0,32.000000
-59,9,30,1625449482.0,32.000000
-59,10,30,1625449482.0,32.000000
-59,9,30,1625449482.0,32.000000
-59,9,30,1625449482.0,32.000000
-59,9,29,1625449482.0,32.000000
-59,9,29,1625449482.0,32.000000
-59,9,29,1625449482.0,32.000000
-59,9,29,1625449482.0,32.000000
-59,9,29,1625449482.0,32.000000
-59,9,30,1625449482.0,32.000000
-59,9,29,1625449482.0,32.000000
-59,9,30,1625449482.0,32.000000
-59,10,30,1625449482.0,32.000000
-59,9,30,1625449482.0,32.000000
-59,9,30,1625449482.0,32.000000
-59,9,30,1625449482.0,32.000000
-59,9,29,1625449482.0,32.000000
-59,9,30,1625449482.0,32.000000
-59,9,30,1625449482.0,32.000000
-59,9,30,1625449482.0,32.000000
-59,9,30,1625449482.0,32.000000
-59,9,30,1625449482.0,32.000000
-59,9,30,1625449482.0,32.000000
-58,10,30,1625449482.0,32.000000
-59,9,29,1625449482.0,32.000000
-58,9,30,1625449482.0,32.000000
-59,10,30,1625449482.0,32.000000
-59,9,30,1625449482.0,32.000000
-59,9,30,1625449482.0,32.000000
-59,9,30,1625449482.0,32.000000
-59,9,30,1625449482.0,32.000000
-59,9,29,1625449482.0,32.000000
-59,9,30,1625449482.0,32.000000
-59,9,30,1625449482.0,32.000000
-59,9,30,1625449482.0,32.000000
-59,9,30,1625449482.0,32.000000
-59,9,30,1625449482.0,32.000000
-59,10,30,1625449482.0,32.000000
-59,9,30,1625449482.0,32.000000
-58,9,30,1625449482.0,32.000000
-59,9,30,1625449482.0,32.000000
-59,9,29,1625449482.0,32.000000
-58,9,29,1625449482.0,32.000000
-59,9,30,1625449482.0,32.000000
-59,9,30,1625449482.0,32.000000
-59,9,30,1625449482.0,32.000000
-59,10,30,1625449482.0,32.000000
-59,10,30,1625449482.0,32.000000
-59,10,30,1625449482.0,32.000000
-59,10,29,1625449482.0,32.000000
-59,9,30,1625449482.0,32.000000
-59,9,30,1625449482.0,32.000000
-59,9,30,1625449482.0,32.000000
-59,9,30,1625449482.0,32.000000
-58,9,30,1625449482.0,32.000000
-59,9,30,1625449482.0,32.000000
-59,9,30,1625449482.0,32.000000
-59,9,30,1625449482.0,32.000000
-59,9,29,1625449482.0,32.000000
-59,9,30,1625449482.0,32.000000
-59,9,30,1625449482.0,32.000000
-59,10,30,1625449482.0,32.000000
-59,9,30,1625449482.0,32.000000
-59,9,30,1625449482.0,32.000000
-59,9,30,1625449482.0,32.000000
-59,9,30,1625449482.0,32.000000
-59,9,30,1625449482.0,32.000000
-59,9,30,1625449482.0,32.000000
-58,9,30,1625449482.0,32.000000
-59,9,30,1625449482.0,32.000000
-59,9,30,1625449482.0,32.000000
-58,10,30,1625449482.0,32.000000
-59,9,30,1625449482.0,32.000000
-59,9,30,1625449482.0,32.000000
-59,9,30,1625449482.0,32.000000
-59,10,29,1625449482.0,32.000000
-59,9,30,1625449482.0,32.000000
-59,9,30,1625449482.0,32.000000
-58,9,30,1625449482.0,32.000000
-59,9,30,1625449482.0,32.000000
-59,10,30,1625449482.0,32.000000
-59,10,30,1625449482.0,32.000000
-59,10,30,1625449482.0,32.000000
-59,10,30,1625449482.0,32.000000
-58,9,30,1625449482.0,32.000000
-58,9,30,1625449482.0,32.000000
-58,9,30,1625449482.0,32.000000
-58,9,30,1625449482.0,32.000000
-58,8,30,1625449482.0,32.000000
-58,8,30,1625449482.0,32.000000
-58,9,29,1625449482.0,32.000000
-59,9,30,1625449482.0,32.000000
-59,10,29,1625449482.0,32.000000
-59,11,30,1625449482.0,32.000000
-59,11,29,1625449482.0,32.000000
-59,11,30,1625449482.0,32.000000
-59,12,30,1625449482.0,32.000000
-59,11,30,1625449482.0,32.000000
-58,10,30,1625449482.0,32.000000
-58,10,30,1625449482.0,32.000000
-58,9,30,1625449482.0,32.000000
-58,9,30,1625449482.0,32.000000
-58,8,30,1625449482.0,32.000000
-58,8,29,1625449482.0,32.000000
-58,8,29,1625449482.0,32.000000
-58,8,30,1625449482.0,32.000000
-58,9,30,1625449482.0,32.000000
-59,9,30,1625449482.0,32.000000
-59,10,29,1625449482.0,32.000000
-59,10,29,1625449482.0,32.000000
-59,10,29,1625449482.0,32.000000
-59,11,29,1625449482.0,32.000000
-59,11,30,1625449482.0,32.000000
-58,11,31,1625449482.0,32.000000
-58,10,31,1625449482.0,32.000000
-58,9,31,1625449482.0,32.000000
-58,9,30,1625449482.0,32.000000
-58,9,30,1625449482.0,32.000000
-58,8,29,1625449482.0,32.000000
-58,8,29,1625449482.0,32.000000
-59,9,30,1625449482.0,32.000000
-58,9,29,1625449482.0,32.000000
-59,10,30,1625449482.0,32.000000
-59,10,30,1625449482.0,32.000000
-59,10,30,1625449482.0,32.000000
-59,10,30,1625449482.0,32.000000
-59,10,30,1625449482.0,32.000000
-59,10,30,1625449482.0,32.000000
-58,9,30,1625449482.0,32.000000
-58,9,30,1625449482.0,32.000000
-59,9,29,1625449482.0,32.000000
-58,9,30,1625449482.0,32.000000
-58,9,30,1625449482.0,32.000000
-58,9,30,1625449482.0,32.000000
-59,10,30,1625449482.0,32.000000
-59,9,30,1625449482.0,32.000000
-59,9,30,1625449482.0,32.000000
-59,10,30,1625449482.0,32.000000
-59,10,30,1625449482.0,32.000000
-59,10,30,1625449482.0,32.000000
-59,10,30,1625449482.0,32.000000
-58,10,30,1625449482.0,32.000000
-58,9,30,1625449482.0,32.000000
-58,9,30,1625449482.0,32.000000
-58,9,29,1625449482.0,32.000000
-59,9,29,1625449482.0,32.000000
-59,9,29,1625449482.0,32.000000
-59,10,30,1625449482.0,32.000000
-59,10,30,1625449482.0,32.000000
-58,10,30,1625449482.0,32.000000
-59,10,30,1625449482.0,32.000000
-59,10,29,1625449482.0,32.000000
-59,9,30,1625449482.0,32.000000
-59,10,30,1625449482.0,32.000000
-58,9,30,1625449482.0,32.000000
-58,9,30,1625449482.0,32.000000
-58,9,30,1625449482.0,32.000000
-59,9,30,1625449482.0,32.000000
-58,9,29,1625449482.0,32.000000
-59,9,29,1625449482.0,32.000000
-58,9,30,1625449482.0,32.000000
-59,10,30,1625449482.0,32.000000
-59,10,30,1625449482.0,32.000000
-58,9,30,1625449482.0,32.000000
-58,10,30,1625449482.0,32.000000
-58,10,30,1625449482.0,32.000000
-58,10,30,1625449482.0,32.000000
-59,9,30,1625449482.0,32.000000
-59,9,30,1625449482.0,32.000000
-58,9,30,1625449482.0,32.000000
-59,9,30,1625449482.0,32.000000
-58,10,30,1625449482.0,32.000000
-58,10,30,1625449482.0,32.000000
-58,10,30,1625449482.0,32.000000
-58,10,30,1625449482.0,32.000000
-58,9,30,1625449482.0,32.000000
-59,10,30,1625449482.0,32.000000
-58,10,30,1625449482.0,32.000000
-59,10,30,1625449482.0,32.000000
-58,10,30,1625449482.0,32.000000
-58,10,30,1625449482.0,32.000000
-59,10,30,1625449482.0,32.000000
-58,9,30,1625449482.0,32.000000
-59,9,30,1625449482.0,32.000000
-58,9,30,1625449482.0,32.000000
-58,10,30,1625449482.0,32.000000
-58,10,30,1625449482.0,32.000000
-58,10,30,1625449482.0,32.000000
-58,10,30,1625449482.0,32.000000
-59,10,30,1625449482.0,32.000000
-58,10,30,1625449482.0,32.000000
-59,10,30,1625449482.0,32.000000
-59,10,30,1625449482.0,32.000000
-58,10,30,1625449482.0,32.000000
-58,10,30,1625449482.0,32.000000
-58,10,30,1625449482.0,32.000000
-58,10,30,1625449482.0,32.000000
-58,10,30,1625449482.0,32.000000
-58,10,30,1625449482.0,32.000000
-59,10,30,1625449482.0,32.000000
-59,10,30,1625449482.0,32.000000
-59,10,30,1625449482.0,32.000000
-58,10,30,1625449482.0,32.000000
-58,10,30,1625449482.0,32.000000
-59,10,30,1625449482.0,32.000000
-59,10,30,1625449482.0,32.000000
-58,9,30,1625449482.0,32.000000
-59,9,30,1625449482.0,32.000000
-58,10,30,1625449482.0,32.000000
-58,10,30,1625449482.0,32.000000
-58,10,30,1625449482.0,32.000000
-58,10,30,1625449482.0,32.000000
-58,10,30,1625449482.0,32.000000
-58,10,30,1625449482.0,32.000000
-58,10,30,1625449482.0,32.000000
-58,10,30,1625449482.0,32.000000
-58,10,30,1625449482.0,32.000000
-58,10,30,1625449482.0,32.000000
-58,10,30,1625449482.0,32.000000
-58,10,30,1625449482.0,32.000000
-58,10,30,1625449482.0,32.000000
-58,9,30,1625449482.0,32.000000
-58,10,30,1625449482.0,32.000000
-59,10,30,1625449482.0,32.000000
-58,10,30,1625449482.0,32.000000
-58,10,30,1625449482.0,32.000000
-58,10,30,1625449482.0,32.000000
-58,10,30,1625449482.0,32.000000
-58,10,30,1625449482.0,32.000000
-58,10,30,1625449482.0,32.000000
-58,10,30,1625449482.0,32.000000
-58,10,30,1625449482.0,32.000000
-58,10,30,1625449482.0,32.000000
-58,10,30,1625449482.0,32.000000
-58,10,30,1625449482.0,32.000000
-58,10,30,1625449482.0,32.000000
-58,10,30,1625449482.0,32.000000
-58,10,30,1625449482.0,32.000000
-59,10,30,1625449482.0,32.000000
-58,10,30,1625449482.0,32.000000
-58,10,30,1625449482.0,32.000000
-58,10,30,1625449482.0,32.000000
-58,10,30,1625449482.0,32.000000
-58,10,30,1625449482.0,32.000000
-58,10,30,1625449482.0,32.000000
-58,10,30,1625449482.0,32.000000
-59,10,30,1625449482.0,32.000000
-58,10,30,1625449482.0,32.000000
-59,10,30,1625449482.0,32.000000
-58,10,30,1625449482.0,32.000000
-58,10,30,1625449482.0,32.000000
-58,10,30,1625449482.0,32.000000
-58,10,30,1625449482.0,32.000000
-58,10,30,1625449482.0,32.000000
-58,10,30,1625449482.0,32.000000
-58,10,30,1625449482.0,32.000000
-58,10,30,1625449482.0,32.000000
-58,10,30,1625449482.0,32.000000
-58,10,30,1625449482.0,32.000000
-58,10,30,1625449482.0,32.000000
-58,10,30,1625449482.0,32.000000
-58,10,30,1625449482.0,32.000000
-58,10,30,1625449482.0,32.000000
-58,10,30,1625449482.0,32.000000
-58,10,30,1625449482.0,32.000000
-58,10,30,1625449482.0,32.000000
-58,10,30,1625449482.0,32.000000
-58,10,30,1625449482.0,32.000000
-58,10,30,1625449482.0,32.000000
-58,10,30,1625449482.0,32.000000
-58,10,30,1625449482.0,32.000000
-58,10,30,1625449482.0,32.000000
-58,10,30,1625449482.0,32.000000
-58,10,30,1625449482.0,32.000000
-58,10,30,1625449482.0,32.000000
-59,10,30,1625449482.0,32.000000
-58,10,30,1625449482.0,32.000000
-58,10,30,1625449482.0,32.000000
-58,10,30,1625449482.0,32.000000
-58,10,30,1625449482.0,32.000000
-58,10,31,1625449482.0,32.000000
-58,10,30,1625449482.0,32.000000
-58,10,30,1625449482.0,32.000000
-58,10,30,1625449482.0,32.000000
-58,10,30,1625449482.0,32.000000
-58,10,30,1625449482.0,32.000000
-58,10,30,1625449482.0,32.000000
-58,10,30,1625449482.0,32.000000
-58,10,30,1625449482.0,32.000000
-59,10,30,1625449482.0,32.000000
-59,10,30,1625449482.0,32.000000
-58,10,30,1625449482.0,32.000000
-58,10,30,1625449482.0,32.000000
-58,10,30,1625449482.0,32.000000
-59,10,30,1625449482.0,32.000000
-59,10,30,1625449482.0,32.000000
-59,10,30,1625449482.0,32.000000
-58,10,30,1625449482.0,32.000000
-58,10,30,1625449482.0,32.000000
-59,10,30,1625449482.0,32.000000
-58,10,30,1625449482.0,32.000000
-58,10,30,1625449482.0,32.000000
-58,10,30,1625449482.0,32.000000
-59,10,30,1625449482.0,32.000000
-58,10,30,1625449482.0,32.000000
-58,10,30,1625449482.0,32.000000
-58,10,30,1625449482.0,32.000000
-58,10,30,1625449482.0,32.000000
-59,10,30,1625449482.0,32.000000
-59,10,30,1625449482.0,32.000000
-59,10,30,1625449482.0,32.000000
-59,10,30,1625449482.0,32.000000
-58,10,30,1625449482.0,32.000000
-58,10,30,1625449482.0,32.000000
-58,10,30,1625449482.0,32.000000
-58,9,30,1625449482.0,32.000000
-58,9,30,1625449482.0,32.000000
-59,9,30,1625449482.0,32.000000
-58,10,30,1625449482.0,32.000000
-58,10,30,1625449482.0,32.000000
-58,10,30,1625449482.0,32.000000
-59,10,30,1625449482.0,32.000000
-59,10,30,1625449482.0,32.000000
-58,10,30,1625449482.0,32.000000
-58,10,30,1625449482.0,32.000000
-58,10,30,1625449482.0,32.000000
-58,10,30,1625449482.0,32.000000
-58,10,30,1625449482.0,32.000000
-59,10,30,1625449482.0,32.000000
-59,10,30,1625449482.0,32.000000
-58,9,30,1625449482.0,32.000000
-58,9,30,1625449482.0,32.000000
-59,10,30,1625449482.0,32.000000
-58,10,30,1625449482.0,32.000000
-59,10,30,1625449482.0,32.000000
-58,10,30,1625449482.0,32.000000
-58,10,30,1625449482.0,32.000000
-58,10,30,1625449482.0,32.000000
-58,10,30,1625449482.0,32.000000
-58,9,30,1625449482.0,32.000000
-59,10,30,1625449482.0,32.000000
-58,10,30,1625449482.0,32.000000
-58,10,30,1625449482.0,32.000000
-58,10,30,1625449482.0,32.000000
-58,10,30,1625449482.0,32.000000
-59,10,30,1625449482.0,32.000000
-59,10,30,1625449482.0,32.000000
-58,10,30,1625449482.0,32.000000
-58,10,30,1625449482.0,32.000000
-59,10,30,1625449482.0,32.000000
-58,10,30,1625449482.0,32.000000
-59,10,30,1625449482.0,32.000000
-58,10,30,1625449482.0,32.000000
-58,10,30,1625449482.0,32.000000
-58,10,30,1625449482.0,32.000000
-59,10,30,1625449482.0,32.000000
-59,10,30,1625449482.0,32.000000
-58,10,30,1625449482.0,32.000000
-58,10,30,1625449482.0,32.000000
-58,10,30,1625449482.0,32.000000
-58,10,30,1625449482.0,32.000000
-58,10,30,1625449482.0,32.000000
-58,9,30,1625449482.0,32.000000
-58,10,30,1625449482.0,32.000000
-58,9,30,1625449482.0,32.000000
-57,9,30,1625449482.0,32.000000
-58,9,30,1625449482.0,32.000000
-59,10,30,1625449482.0,32.000000
-59,10,30,1625449482.0,32.000000
-58,10,30,1625449482.0,32.000000
-58,10,30,1625449482.0,32.000000
-59,11,30,1625449482.0,32.000000
-59,11,30,1625449482.0,32.000000
-58,10,30,1625449482.0,32.000000
-58,10,30,1625449482.0,32.000000
-59,10,30,1625449482.0,32.000000
-58,10,30,1625449482.0,32.000000
-58,9,30,1625449482.0,32.000000
-58,9,30,1625449482.0,32.000000
-58,9,30,1625449482.0,32.000000
-58,9,30,1625449482.0,32.000000
-59,10,30,1625449482.0,32.000000
-59,11,30,1625449482.0,32.000000
-58,11,30,1625449482.0,32.000000
-58,10,30,1625449482.0,32.000000
-58,10,30,1625449482.0,32.000000
-59,10,30,1625449482.0,32.000000
-58,10,30,1625449482.0,32.000000
-58,10,30,1625449482.0,32.000000
-58,9,31,1625449482.0,32.000000
-58,9,30,1625449482.0,32.000000
-58,10,30,1625449482.0,32.000000
-58,10,30,1625449482.0,32.000000
-58,10,30,1625449482.0,32.000000
-58,10,30,1625449482.0,32.000000
-58,10,30,1625449482.0,32.000000
-58,10,30,1625449482.0,32.000000
-58,10,31,1625449482.0,32.000000
-58,10,30,1625449482.0,32.000000
-58,10,30,1625449482.0,32.000000
-58,10,30,1625449482.0,32.000000
-58,10,30,1625449482.0,32.000000
-58,10,30,1625449482.0,32.000000
-58,9,30,1625449482.0,32.000000
-58,10,30,1625449482.0,32.000000
-58,10,30,1625449482.0,32.000000
-59,11,31,1625449482.0,32.000000
-59,11,31,1625449482.0,32.000000
-59,11,30,1625449482.0,32.000000
-58,10,29,1625449482.0,32.000000
-58,10,29,1625449482.0,32.000000
-58,10,30,1625449482.0,32.000000
-58,10,30,1625449482.0,32.000000
-57,9,31,1625449482.0,32.000000
-57,9,31,1625449482.0,32.000000
-57,8,31,1625449482.0,32.000000
-58,9,31,1625449482.0,32.000000
-58,9,30,1625449482.0,32.000000
-58,10,30,1625449482.0,32.000000
-59,11,30,1625449482.0,32.000000
-59,11,30,1625449482.0,32.000000
-59,11,30,1625449482.0,32.000000
-59,11,30,1625449482.0,32.000000
-58,11,30,1625449482.0,32.000000
-58,11,30,1625449482.0,32.000000
-58,11,31,1625449482.0,32.000000
-58,10,31,1625449482.0,32.000000
-58,10,31,1625449482.0,32.000000
-58,10,30,1625449482.0,32.000000
-58,9,30,1625449482.0,32.000000
-58,9,30,1625449482.0,32.000000
-58,10,30,1625449482.0,32.000000
-58,10,31,1625449482.0,32.000000
-58,11,31,1625449482.0,32.000000
-58,11,31,1625449482.0,32.000000
-58,11,31,1625449482.0,32.000000
-58,10,30,1625449482.0,32.000000
-58,10,30,1625449482.0,32.000000
-58,10,30,1625449482.0,32.000000
-58,10,31,1625449482.0,32.000000
-58,10,31,1625449482.0,32.000000
-58,10,30,1625449482.0,32.000000
-58,10,31,1625449482.0,32.000000
-58,10,31,1625449482.0,32.000000
-58,10,31,1625449482.0,32.000000
-58,10,30,1625449482.0,32.000000
-58,10,30,1625449482.0,32.000000
-58,10,30,1625449482.0,32.000000
-58,10,30,1625449482.0,32.000000
-58,10,30,1625449482.0,32.000000
-58,10,30,1625449482.0,32.000000
-58,10,30,1625449482.0,32.000000
-58,10,30,1625449482.0,32.000000
-58,10,30,1625449482.0,32.000000
-58,10,30,1625449482.0,32.000000
-58,10,31,1625449482.0,32.000000
-58,10,31,1625449482.0,32.000000
-58,10,30,1625449482.0,32.000000
-58,10,30,1625449482.0,32.000000
-58,10,30,1625449482.0,32.000000
-58,10,30,1625449482.0,32.000000
-58,10,30,1625449482.0,32.000000
-58,10,31,1625449482.0,32.000000
-58,10,31,1625449482.0,32.000000
-58,10,31,1625449482.0,32.000000
-58,10,30,1625449482.0,32.000000
-58,10,30,1625449482.0,32.000000
-58,10,30,1625449482.0,32.000000
-58,10,31,1625449482.0,32.000000
-58,10,31,1625449482.0,32.000000
-58,10,30,1625449482.0,32.000000
-58,10,30,1625449482.0,32.000000
-58,10,31,1625449482.0,32.000000
-58,10,30,1625449482.0,32.000000
-58,10,30,1625449482.0,32.000000
-58,10,30,1625449482.0,32.000000
-58,10,30,1625449482.0,32.000000
-58,10,30,1625449482.0,32.000000
-59,10,30,1625449482.0,32.000000
-58,10,30,1625449482.0,32.000000
-58,10,30,1625449482.0,32.000000
-58,10,30,1625449482.0,32.000000
-58,10,30,1625449482.0,32.000000
-58,10,30,1625449482.0,32.000000
-58,10,30,1625449482.0,32.000000
-58,10,30,1625449482.0,32.000000
-58,10,30,1625449482.0,32.000000
-58,10,30,1625449482.0,32.000000
-58,10,30,1625449482.0,32.000000
-58,10,30,1625449482.0,32.000000
-58,10,30,1625449482.0,32.000000
-58,10,30,1625449482.0,32.000000
-58,10,30,1625449482.0,32.000000
-59,10,30,1625449482.0,32.000000
-58,10,30,1625449482.0,32.000000
-58,10,30,1625449482.0,32.000000
-59,10,30,1625449482.0,32.000000
-58,10,30,1625449482.0,32.000000
-58,10,30,1625449482.0,32.000000
-58,10,30,1625449482.0,32.000000
-58,10,30,1625449482.0,32.000000
-58,10,30,1625449482.0,32.000000
-58,10,30,1625449482.0,32.000000
-58,10,30,1625449482.0,32.000000
-58,10,30,1625449482.0,32.000000
-58,10,30,1625449482.0,32.000000
-58,10,30,1625449482.0,32.000000
-58,10,30,1625449482.0,32.000000
-58,10,30,1625449482.0,32.000000
-58,10,30,1625449482.0,32.000000
-58,10,30,1625449482.0,32.000000
-58,10,30,1625449482.0,32.000000
-58,10,30,1625449482.0,32.000000
-58,10,30,1625449482.0,32.000000
-58,10,30,1625449482.0,32.000000
-58,10,30,1625449482.0,32.000000
-58,10,30,1625449482.0,32.000000
-58,10,30,1625449482.0,32.000000
-58,10,30,1625449482.0,32.000000
-58,10,30,1625449482.0,32.000000
-58,10,30,1625449482.0,32.000000
-58,10,30,1625449482.0,32.000000
-58,10,30,1625449482.0,32.000000
-58,10,30,1625449482.0,32.000000
-59,10,30,1625449482.0,32.000000
-58,10,31,1625449482.0,32.000000
-58,10,30,1625449482.0,32.000000
-58,10,30,1625449482.0,32.000000
-58,10,30,1625449482.0,32.000000
-58,10,30,1625449482.0,32.000000
-58,10,30,1625449482.0,32.000000
-58,10,30,1625449482.0,32.000000
-58,10,30,1625449482.0,32.000000
-58,10,30,1625449482.0,32.000000
-58,10,30,1625449482.0,32.000000
-58,10,30,1625449482.0,32.000000
-58,10,30,1625449482.0,32.000000
-58,10,30,1625449482.0,32.000000
-58,10,30,1625449482.0,32.000000
-58,10,30,1625449482.0,32.000000
-58,10,30,1625449482.0,32.000000
-58,10,30,1625449482.0,32.000000
-58,10,30,1625449482.0,32.000000
-58,10,30,1625449482.0,32.000000
-58,10,30,1625449482.0,32.000000
-58,10,30,1625449482.0,32.000000
-58,10,30,1625449482.0,32.000000
-58,10,30,1625449482.0,32.000000
-58,10,30,1625449482.0,32.000000
-58,10,30,1625449482.0,32.000000
-58,10,30,1625449482.0,32.000000
-59,11,30,1625449482.0,32.000000
-59,10,30,1625449482.0,32.000000
-59,10,30,1625449482.0,32.000000
-58,11,30,1625449482.0,32.000000
-58,10,30,1625449482.0,32.000000
-58,10,31,1625449482.0,32.000000
-58,10,30,1625449482.0,32.000000
-58,10,30,1625449482.0,32.000000
-58,10,30,1625449482.0,32.000000
-58,10,30,1625449482.0,32.000000
-58,10,30,1625449482.0,32.000000
-58,10,30,1625449482.0,32.000000
-58,10,30,1625449482.0,32.000000
-58,10,30,1625449482.0,32.000000
-58,10,30,1625449482.0,32.000000
-58,10,30,1625449482.0,32.000000
-58,10,30,1625449482.0,32.000000
-58,10,30,1625449482.0,32.000000
-58,10,30,1625449482.0,32.000000
-58,10,31,1625449482.0,32.000000
-58,10,30,1625449482.0,32.000000
-58,10,31,1625449482.0,32.000000
-58,10,30,1625449482.0,32.000000
-58,10,30,1625449482.0,32.000000
-58,10,30,1625449482.0,32.000000
-58,10,30,1625449482.0,32.000000
-58,10,30,1625449482.0,32.000000
-58,10,31,1625449482.0,32.000000
-58,10,31,1625449482.0,32.000000
-58,10,31,1625449482.0,32.000000
-58,10,31,1625449482.0,32.000000
-58,10,30,1625449482.0,32.000000
-58,10,30,1625449482.0,32.000000
-58,10,30,1625449482.0,32.000000
-58,10,30,1625449482.0,32.000000
-58,10,30,1625449482.0,32.000000
-58,10,30,1625449482.0,32.000000
-58,10,30,1625449482.0,32.000000
-58,10,30,1625449482.0,32.000000
-58,10,30,1625449482.0,32.000000
-58,10,30,1625449482.0,32.000000
-58,10,30,1625449482.0,32.000000
-58,10,30,1625449482.0,32.000000
-58,10,31,1625449482.0,32.000000
-58,10,30,1625449482.0,32.000000
-58,10,30,1625449482.0,32.000000
-58,10,30,1625449482.0,32.000000
-58,10,30,1625449482.0,32.000000
-58,10,31,1625449482.0,32.000000
-58,10,30,1625449482.0,32.000000
-58,10,30,1625449482.0,32.000000
-58,10,30,1625449482.0,32.000000
-58,10,31,1625449482.0,32.000000
-58,10,31,1625449482.0,32.000000
-58,10,31,1625449482.0,32.000000
-58,10,30,1625449482.0,32.000000
-58,10,30,1625449482.0,32.000000
-58,10,30,1625449482.0,32.000000
-58,10,31,1625449482.0,32.000000
-58,10,30,1625449482.0,32.000000
-58,10,31,1625449482.0,32.000000
-58,10,30,1625449482.0,32.000000
-58,10,30,1625449482.0,32.000000
-58,10,30,1625449482.0,32.000000
-58,10,30,1625449482.0,32.000000
-58,10,30,1625449482.0,32.000000
-58,10,30,1625449482.0,32.000000
-58,11,30,1625449482.0,32.000000
-58,10,30,1625449482.0,32.000000
-58,10,30,1625449482.0,32.000000
-58,10,30,1625449482.0,32.000000
-58,10,30,1625449482.0,32.000000
-58,10,31,1625449482.0,32.000000
-58,10,31,1625449482.0,32.000000
-58,10,30,1625449482.0,32.000000
-58,10,30,1625449482.0,32.000000
-58,10,31,1625449482.0,32.000000
-58,10,30,1625449482.0,32.000000
-58,10,30,1625449482.0,32.000000
-58,10,31,1625449482.0,32.000000
-58,10,30,1625449482.0,32.000000
-58,10,30,1625449482.0,32.000000
-58,10,31,1625449482.0,32.000000
-58,10,31,1625449482.0,32.000000
-58,10,30,1625449482.0,32.000000
-58,10,30,1625449482.0,32.000000
-58,10,30,1625449482.0,32.000000
-58,10,31,1625449482.0,32.000000
-58,10,30,1625449482.0,32.000000
-58,10,30,1625449482.0,32.000000
-58,10,30,1625449482.0,32.000000
-58,10,30,1625449482.0,32.000000
-58,10,30,1625449482.0,32.000000
-58,10,30,1625449482.0,32.000000
-58,10,30,1625449482.0,32.000000
-58,10,30,1625449482.0,32.000000
-58,10,30,1625449482.0,32.000000
-58,10,30,1625449482.0,32.000000
-58,10,30,1625449482.0,32.000000
-58,10,30,1625449482.0,32.000000
-58,10,30,1625449482.0,32.000000
-58,10,30,1625449482.0,32.000000
-58,10,30,1625449482.0,32.000000
-58,10,30,1625449482.0,32.000000
-58,10,30,1625449482.0,32.000000
-58,10,30,1625449482.0,32.000000
-58,10,30,1625449482.0,32.000000
-58,10,30,1625449482.0,32.000000
-58,10,30,1625449482.0,32.000000
-58,11,31,1625449482.0,32.000000
-59,11,30,1625449482.0,32.000000
-58,11,30,1625449482.0,32.000000
-58,11,30,1625449482.0,32.000000
-58,11,30,1625449482.0,32.000000
-58,10,30,1625449482.0,32.000000
-57,9,30,1625449482.0,32.000000
-58,9,30,1625449482.0,32.000000
-58,10,30,1625449482.0,32.000000
-58,10,31,1625449482.0,32.000000
-59,10,30,1625449482.0,32.000000
-58,10,30,1625449482.0,32.000000
-58,11,30,1625449482.0,32.000000
-59,11,30,1625449482.0,32.000000
-59,11,30,1625449482.0,32.000000
-59,10,30,1625449482.0,32.000000
-58,10,30,1625449482.0,32.000000
-58,10,30,1625449482.0,32.000000
-58,10,30,1625449482.0,32.000000
-58,10,30,1625449482.0,32.000000
-58,10,30,1625449482.0,32.000000
-58,11,30,1625449482.0,32.000000
-58,10,30,1625449482.0,32.000000
-58,10,30,1625449482.0,32.000000
-59,10,30,1625449482.0,32.000000
-58,10,31,1625449482.0,32.000000
-57,10,32,1625449482.0,32.000000
-58,10,31,1625449482.0,32.000000
-58,11,31,1625449482.0,32.000000
-57,12,31,1625449482.0,32.000000
-58,13,30,1625449482.0,32.000000
-58,12,30,1625449482.0,32.000000
-57,12,31,1625449482.0,32.000000
-57,12,30,1625449482.0,32.000000
-58,12,30,1625449482.0,32.000000
-59,12,29,1625449482.0,32.000000
-59,11,29,1625449482.0,32.000000
-58,10,29,1625449482.0,32.000000
-59,11,29,1625449482.0,32.000000
-58,12,31,1625449482.0,32.000000
-58,13,31,1625449482.0,32.000000
-59,13,31,1625449482.0,32.000000
-58,12,30,1625449482.0,32.000000
-58,11,29,1625449482.0,32.000000
-58,11,30,1625449482.0,32.000000
-58,12,30,1625449482.0,32.000000
-58,11,30,1625449482.0,32.000000
-58,11,29,1625449482.0,32.000000
-58,11,30,1625449482.0,32.000000
-58,11,30,1625449482.0,32.000000
-58,12,30,1625449482.0,32.000000
-58,12,30,1625449482.0,32.000000
-58,12,30,1625449482.0,32.000000
-58,12,30,1625449482.0,32.000000
-58,12,30,1625449482.0,32.000000
-59,12,30,1625449482.0,32.000000
-58,13,30,1625449482.0,32.000000
-58,12,30,1625449482.0,32.000000
-58,12,30,1625449482.0,32.000000
-58,12,30,1625449482.0,32.000000
-58,12,30,1625449482.0,32.000000
-58,12,29,1625449482.0,32.000000
-58,11,29,1625449482.0,32.000000
-58,12,30,1625449482.0,32.000000
-58,13,31,1625449482.0,32.000000
-58,12,30,1625449482.0,32.000000
-58,12,30,1625449482.0,32.000000
-58,12,30,1625449482.0,32.000000
-58,12,30,1625449482.0,32.000000
-58,12,30,1625449482.0,32.000000
-58,12,30,1625449482.0,32.000000
-58,12,30,1625449482.0,32.000000
-58,12,30,1625449482.0,32.000000
-58,12,30,1625449482.0,32.000000
-58,12,30,1625449482.0,32.000000
-58,12,30,1625449482.0,32.000000
-58,12,30,1625449482.0,32.000000
-58,12,30,1625449482.0,32.000000
-58,12,30,1625449482.0,32.000000
-58,12,30,1625449482.0,32.000000
-58,12,30,1625449482.0,32.000000
-58,12,30,1625449482.0,32.000000
-58,12,30,1625449482.0,32.000000
-58,12,30,1625449482.0,32.000000
-58,12,30,1625449482.0,32.000000
-58,12,30,1625449482.0,32.000000
-58,12,29,1625449482.0,32.000000
-58,12,29,1625449482.0,32.000000
-58,12,30,1625449482.0,32.000000
-58,12,30,1625449482.0,32.000000
-58,12,30,1625449482.0,32.000000
-58,12,30,1625449482.0,32.000000
-58,12,30,1625449482.0,32.000000
-58,12,30,1625449482.0,32.000000
-58,12,30,1625449482.0,32.000000
-58,12,30,1625449482.0,32.000000
-58,12,30,1625449482.0,32.000000
-58,12,30,1625449482.0,32.000000
-58,12,30,1625449482.0,32.000000
-58,12,30,1625449482.0,32.000000
-58,12,30,1625449482.0,32.000000
-58,12,29,1625449482.0,32.000000
-59,12,30,1625449482.0,32.000000
-58,12,30,1625449482.0,32.000000
-58,12,29,1625449482.0,32.000000
-58,12,30,1625449482.0,32.000000
-58,13,31,1625449482.0,32.000000
-58,12,31,1625449482.0,32.000000
-57,11,30,1625449482.0,32.000000
-58,11,30,1625449482.0,32.000000
-58,12,30,1625449482.0,32.000000
-59,13,30,1625449482.0,32.000000
-61,13,29,1625449482.0,32.000000
-60,13,32,1625449482.0,32.000000
-67,17,28,1625449482.0,32.000000
-68,18,30,1625449482.0,32.000000
-59,16,37,1625449482.0,32.000000
-59,15,36,1625449482.0,32.000000
-67,12,32,1625449482.0,32.000000
-61,7,41,1625449482.0,32.000000
-57,5,44,1625449482.0,32.000000
-59,4,44,1625449482.0,32.000000
-60,4,45,1625449482.0,32.000000
-57,4,52,1625449482.0,32.000000
-45,-5,51,1625449482.0,32.000000
-43,-6,51,1625449482.0,32.000000
-38,-12,49,1625449482.0,32.000000
-36,-13,48,1625449482.0,32.000000
-33,-12,45,1625449482.0,32.000000
-22,-17,42,1625449482.0,32.000000
-28,-16,40,1625449482.0,32.000000
-36,-5,49,1625449482.0,32.000000
-39,-4,46,1625449482.0,32.000000
-34,-4,46,1625449482.0,32.000000
-34,4,49,1625449482.0,32.000000
-42,8,48,1625449482.0,32.000000
-30,5,48,1625449482.0,32.000000
-23,8,51,1625449482.0,32.000000
-19,10,56,1625449482.0,32.000000
-27,21,61,1625449482.0,32.000000
-24,20,65,1625449482.0,32.000000
-21,21,66,1625449482.0,32.000000
-20,22,63,1625449482.0,32.000000
-24,21,61,1625449482.0,32.000000
-34,11,50,1625449482.0,32.000000
-44,11,47,1625449482.0,32.000000
-36,13,53,1625449482.0,32.000000
-32,9,52,1625449482.0,32.000000
-49,11,48,1625449482.0,32.000000
-56,11,47,1625449482.0,32.000000
-43,9,52,1625449482.0,32.000000
-45,5,45,1625449482.0,32.000000
-51,7,46,1625449482.0,32.000000
-49,5,48,1625449482.0,32.000000
-52,6,46,1625449482.0,32.000000
-54,8,41,1625449482.0,32.000000
-50,9,39,1625449482.0,32.000000
-52,10,41,1625449482.0,32.000000
-52,11,41,1625449482.0,32.000000
-50,8,41,1625449482.0,32.000000
-55,8,42,1625449482.0,32.000000
-50,7,40,1625449482.0,32.000000
-51,6,39,1625449482.0,32.000000
-51,9,42,1625449482.0,32.000000
-49,10,42,1625449482.0,32.000000
-51,9,40,1625449482.0,32.000000
-51,9,41,1625449482.0,32.000000
-51,9,42,1625449482.0,32.000000
-51,9,41,1625449482.0,32.000000
-51,8,41,1625449482.0,32.000000
-53,9,40,1625449482.0,32.000000
-52,8,40,1625449482.0,32.000000
-52,9,40,1625449482.0,32.000000
-55,10,39,1625449482.0,32.000000
-52,10,39,1625449482.0,32.000000
-53,9,39,1625449482.0,32.000000
-52,8,40,1625449482.0,32.000000
-51,9,42,1625449482.0,32.000000
-52,10,41,1625449482.0,32.000000
-51,8,40,1625449482.0,32.000000
-53,8,39,1625449482.0,32.000000
-54,9,39,1625449482.0,32.000000
-56,7,36,1625449482.0,32.000000
-57,7,36,1625449482.0,32.000000
-57,6,36,1625449482.0,32.000000
-55,8,37,1625449482.0,32.000000
-54,9,38,1625449482.0,32.000000
-54,11,38,1625449482.0,32.000000
-54,10,39,1625449482.0,32.000000
-51,11,38,1625449482.0,32.000000
-51,11,41,1625449482.0,32.000000
-53,12,47,1625449482.0,32.000000
-51,11,40,1625449482.0,32.000000
-55,10,46,1625449482.0,32.000000
-56,10,39,1625449482.0,32.000000
-51,5,36,1625449482.0,32.000000
-53,6,37,1625449482.0,32.000000
-54,5,37,1625449482.0,32.000000
-56,8,33,1625449482.0,32.000000
-55,6,34,1625449482.0,32.000000
-52,9,37,1625449482.0,32.000000
-53,7,35,1625449482.0,32.000000
-57,8,33,1625449482.0,32.000000
-56,4,30,1625449482.0,32.000000
-40,9,45,1625449482.0,32.000000
-36,10,43,1625449482.0,32.000000
-58,12,43,1625449482.0,32.000000
-48,16,51,1625449482.0,32.000000
-42,10,39,1625449482.0,32.000000
-50,8,38,1625449482.0,32.000000
-55,10,42,1625449482.0,32.000000
-46,18,51,1625449482.0,32.000000
-47,11,38,1625449482.0,32.000000
-41,14,47,1625449482.0,32.000000
-68,9,38,1625449482.0,32.000000
-75,7,18,1625449482.0,32.000000
-64,6,23,1625449482.0,32.000000
-57,10,50,1625449482.0,32.000000
-65,12,22,1625449482.0,32.000000
-40,-2,29,1625449482.0,32.000000
-60,7,36,1625449482.0,32.000000
-68,18,42,1625449482.0,32.000000
-38,8,45,1625449482.0,32.000000
-46,8,40,1625449482.0,32.000000
-66,10,34,1625449482.0,32.000000
-60,6,27,1625449482.0,32.000000
-59,6,39,1625449482.0,32.000000
-52,10,32,1625449482.0,32.000000
-54,3,32,1625449482.0,32.000000
-59,5,39,1625449482.0,32.000000
-53,8,33,1625449482.0,32.000000
-47,12,40,1625449482.0,32.000000
-40,16,57,1625449482.0,32.000000
-32,19,60,1625449482.0,32.000000
-36,10,49,1625449482.0,32.000000
-58,11,39,1625449482.0,32.000000
-59,13,40,1625449482.0,32.000000
-50,9,39,1625449482.0,32.000000
-51,11,41,1625449482.0,32.000000
-50,12,44,1625449482.0,32.000000
-50,11,41,1625449482.0,32.000000
-52,12,42,1625449482.0,32.000000
-50,12,42,1625449482.0,32.000000
-50,11,41,1625449482.0,32.000000
-53,10,38,1625449482.0,32.000000
-51,10,39,1625449482.0,32.000000
-51,11,40,1625449482.0,32.000000
-51,11,41,1625449482.0,32.000000
-52,11,41,1625449482.0,32.000000
-52,11,40,1625449482.0,32.000000
-53,11,40,1625449482.0,32.000000
-53,10,39,1625449482.0,32.000000
-53,10,41,1625449482.0,32.000000
-51,10,42,1625449482.0,32.000000
-53,10,40,1625449482.0,32.000000
-59,11,37,1625449482.0,32.000000
-57,8,34,1625449482.0,32.000000
-54,9,35,1625449482.0,32.000000
-45,11,43,1625449482.0,32.000000
-49,12,44,1625449482.0,32.000000
-47,8,41,1625449482.0,32.000000
-48,11,40,1625449482.0,32.000000
-42,9,40,1625449482.0,32.000000
-45,11,40,1625449482.0,32.000000
-47,13,43,1625449482.0,32.000000
-50,13,44,1625449482.0,32.000000
-49,14,48,1625449482.0,32.000000
-43,10,48,1625449482.0,32.000000
-48,13,48,1625449482.0,32.000000
-58,9,32,1625449482.0,32.000000
-57,7,30,1625449482.0,32.000000
-60,8,39,1625449482.0,32.000000
-60,8,30,1625449482.0,32.000000
-61,6,29,1625449482.0,32.000000
-57,8,42,1625449482.0,32.000000
-57,6,35,1625449482.0,32.000000
-50,3,32,1625449482.0,32.000000
-59,6,33,1625449482.0,32.000000
-67,8,35,1625449482.0,32.000000
-52,8,37,1625449482.0,32.000000
-51,8,36,1625449482.0,32.000000
-58,8,32,1625449482.0,32.000000
-58,7,32,1625449482.0,32.000000
-58,8,33,1625449482.0,32.000000
-58,6,31,1625449482.0,32.000000
-57,7,33,1625449482.0,32.000000
-57,7,34,1625449482.0,32.000000
-57,7,31,1625449482.0,32.000000
-58,7,32,1625449482.0,32.000000
-57,8,34,1625449482.0,32.000000
-56,7,35,1625449482.0,32.000000
-58,7,33,1625449482.0,32.000000
-58,7,32,1625449482.0,32.000000
-56,8,35,1625449482.0,32.000000
-56,8,35,1625449482.0,32.000000
-56,8,35,1625449482.0,32.000000
-55,8,36,1625449482.0,32.000000
-55,8,36,1625449482.0,32.000000
-56,8,36,1625449482.0,32.000000
-55,8,35,1625449482.0,32.000000
-56,8,35,1625449482.0,32.000000
-56,8,35,1625449482.0,32.000000
-56,8,35,1625449482.0,32.000000
-56,8,36,1625449482.0,32.000000
-56,8,35,1625449482.0,32.000000
-56,8,35,1625449482.0,32.000000
-56,8,35,1625449482.0,32.000000
-56,8,35,1625449482.0,32.000000
-56,8,35,1625449482.0,32.000000
-56,8,34,1625449482.0,32.000000
-56,8,35,1625449482.0,32.000000
-56,8,35,1625449482.0,32.000000
-56,8,34,1625449482.0,32.000000
-56,8,34,1625449482.0,32.000000
-57,8,35,1625449482.0,32.000000
-56,8,35,1625449482.0,32.000000
-57,8,34,1625449482.0,32.000000
-57,8,34,1625449482.0,32.000000
-56,8,35,1625449482.0,32.000000
-56,8,34,1625449482.0,32.000000
-57,8,34,1625449482.0,32.000000
-56,8,34,1625449482.0,32.000000
-56,8,34,1625449482.0,32.000000
-57,8,34,1625449482.0,32.000000
-57,8,35,1625449482.0,32.000000
-56,7,34,1625449482.0,32.000000
-57,7,34,1625449482.0,32.000000
-57,9,35,1625449482.0,32.000000
-57,8,34,1625449482.0,32.000000
-57,7,34,1625449482.0,32.000000
-56,9,36,1625449482.0,32.000000
-55,8,36,1625449482.0,32.000000
-55,8,35,1625449482.0,32.000000
-57,8,35,1625449482.0,32.000000
-56,7,35,1625449482.0,32.000000
-55,8,36,1625449482.0,32.000000
-56,8,35,1625449482.0,32.000000
-56,8,36,1625449482.0,32.000000
-55,8,36,1625449482.0,32.000000
-56,7,35,1625449482.0,32.000000
-56,8,35,1625449482.0,32.000000
-56,8,36,1625449482.0,32.000000
-55,8,35,1625449482.0,32.000000
-58,8,35,1625449482.0,32.000000
-58,10,36,1625449482.0,32.000000
-56,7,35,1625449482.0,32.000000
-56,7,33,1625449482.0,32.000000
-58,8,34,1625449482.0,32.000000
-56,9,34,1625449482.0,32.000000
-55,6,34,1625449482.0,32.000000
-55,7,33,1625449482.0,32.000000
-59,8,34,1625449482.0,32.000000
-58,7,34,1625449482.0,32.000000
-57,8,34,1625449482.0,32.000000
-58,8,32,1625449482.0,32.000000
-58,7,31,1625449482.0,32.000000
-58,7,32,1625449482.0,32.000000
-56,7,32,1625449482.0,32.000000
-59,6,31,1625449482.0,32.000000
-59,8,30,1625449482.0,32.000000
-58,6,31,1625449482.0,32.000000
-58,7,31,1625449482.0,32.000000
-58,7,30,1625449482.0,32.000000
-59,7,30,1625449482.0,32.000000
-58,7,30,1625449482.0,32.000000
-59,7,29,1625449482.0,32.000000
-58,7,30,1625449482.0,32.000000
-59,7,30,1625449482.0,32.000000
-57,6,32,1625449482.0,32.000000
-58,7,32,1625449482.0,32.000000
-59,7,29,1625449482.0,32.000000
-59,7,29,1625449482.0,32.000000
-59,8,30,1625449482.0,32.000000
-58,7,31,1625449482.0,32.000000
-59,7,30,1625449482.0,32.000000
-58,8,30,1625449482.0,32.000000
-60,9,32,1625449482.0,32.000000
-59,6,30,1625449482.0,32.000000
-58,8,28,1625449482.0,32.000000
-62,8,30,1625449482.0,32.000000
-61,5,28,1625449482.0,32.000000
-60,5,27,1625449482.0,32.000000
-60,7,29,1625449482.0,32.000000
-59,6,28,1625449482.0,32.000000
-60,6,28,1625449482.0,32.000000
-60,7,28,1625449482.0,32.000000
-60,6,29,1625449482.0,32.000000
-60,6,27,1625449482.0,32.000000
-61,8,28,1625449482.0,32.000000
-60,8,29,1625449482.0,32.000000
-58,8,30,1625449482.0,32.000000
-59,8,30,1625449482.0,32.000000
-59,6,29,1625449482.0,32.000000
-60,6,29,1625449482.0,32.000000
-60,6,29,1625449482.0,32.000000
-61,6,26,1625449482.0,32.000000
-59,6,28,1625449482.0,32.000000
-60,7,28,1625449482.0,32.000000
-60,6,27,1625449482.0,32.000000
-60,6,28,1625449482.0,32.000000
-60,6,28,1625449482.0,32.000000
-60,6,27,1625449482.0,32.000000
-60,7,29,1625449482.0,32.000000
-60,8,30,1625449482.0,32.000000
-60,6,27,1625449482.0,32.000000
-60,7,29,1625449482.0,32.000000
-60,7,29,1625449482.0,32.000000
-60,6,28,1625449482.0,32.000000
-60,7,28,1625449482.0,32.000000
-59,7,28,1625449482.0,32.000000
-60,7,28,1625449482.0,32.000000
-60,6,28,1625449482.0,32.000000
-60,6,28,1625449482.0,32.000000
-60,7,28,1625449482.0,32.000000
-60,7,28,1625449482.0,32.000000
-60,7,28,1625449482.0,32.000000
-60,7,28,1625449482.0,32.000000
-60,7,28,1625449482.0,32.000000
-60,7,29,1625449482.0,32.000000
-60,7,28,1625449482.0,32.000000
-60,7,29,1625449482.0,32.000000
-60,7,29,1625449482.0,32.000000
-60,7,28,1625449482.0,32.000000
-60,6,28,1625449482.0,32.000000
-60,7,28,1625449482.0,32.000000
-60,6,28,1625449482.0,32.000000
-60,7,28,1625449482.0,32.000000
-60,6,28,1625449482.0,32.000000
-60,6,28,1625449482.0,32.000000
-60,9,28,1625449482.0,32.000000
-60,7,28,1625449482.0,32.000000
-60,6,28,1625449482.0,32.000000
-60,7,27,1625449482.0,32.000000
-60,6,27,1625449482.0,32.000000
-60,7,27,1625449482.0,32.000000
-60,7,27,1625449482.0,32.000000
-60,6,28,1625449482.0,32.000000
-60,6,28,1625449482.0,32.000000
-60,6,28,1625449482.0,32.000000
-60,6,27,1625449482.0,32.000000
-60,6,27,1625449482.0,32.000000
-60,7,27,1625449482.0,32.000000
-60,6,27,1625449482.0,32.000000
-60,6,27,1625449482.0,32.000000
-60,6,27,1625449482.0,32.000000
-60,6,28,1625449482.0,32.000000
-60,6,28,1625449482.0,32.000000
-60,6,27,1625449482.0,32.000000
-60,6,28,1625449482.0,32.000000
-60,6,27,1625449482.0,32.000000
-60,6,28,1625449482.0,32.000000
-60,6,27,1625449482.0,32.000000
-60,6,27,1625449482.0,32.000000
-60,6,27,1625449482.0,32.000000
-60,6,27,1625449482.0,32.000000
-61,6,27,1625449482.0,32.000000
-60,6,28,1625449482.0,32.000000
-60,6,28,1625449482.0,32.000000
-60,6,27,1625449482.0,32.000000
-60,6,27,1625449482.0,32.000000
-60,7,28,1625449482.0,32.000000
-61,6,27,1625449482.0,32.000000
-60,6,27,1625449482.0,32.000000
-60,7,28,1625449482.0,32.000000
-60,6,27,1625449482.0,32.000000
-60,6,27,1625449482.0,32.000000
-60,6,27,1625449482.0,32.000000
-60,6,27,1625449482.0,32.000000
-61,6,28,1625449482.0,32.000000
-60,7,27,1625449482.0,32.000000
-61,6,27,1625449482.0,32.000000
-60,6,28,1625449482.0,32.000000
-60,6,28,1625449482.0,32.000000
-60,6,26,1625449482.0,32.000000
-61,6,27,1625449482.0,32.000000
-60,6,27,1625449482.0,32.000000
-61,6,27,1625449482.0,32.000000
-60,6,27,1625449482.0,32.000000
-60,6,27,1625449482.0,32.000000
-60,6,28,1625449482.0,32.000000
-60,6,27,1625449482.0,32.000000
-61,6,27,1625449482.0,32.000000
-61,6,27,1625449482.0,32.000000
-60,6,27,1625449482.0,32.000000
-60,6,27,1625449482.0,32.000000
-60,6,27,1625449482.0,32.000000
-60,6,27,1625449482.0,32.000000
-60,6,27,1625449482.0,32.000000
-60,6,27,1625449482.0,32.000000
-60,6,27,1625449482.0,32.000000
-60,6,27,1625449482.0,32.000000
-60,6,27,1625449482.0,32.000000
-60,6,27,1625449482.0,32.000000
-61,6,27,1625449482.0,32.000000
-60,6,27,1625449482.0,32.000000
-60,6,27,1625449482.0,32.000000
-60,6,27,1625449482.0,32.000000
-60,6,27,1625449482.0,32.000000
-60,7,27,1625449482.0,32.000000
-60,6,27,1625449482.0,32.000000
-60,6,27,1625449482.0,32.000000
-60,6,28,1625449482.0,32.000000
-60,6,27,1625449482.0,32.000000
-60,6,27,1625449482.0,32.000000
-60,6,27,1625449482.0,32.000000
-60,6,27,1625449482.0,32.000000
-60,6,27,1625449482.0,32.000000
-60,6,27,1625449482.0,32.000000
-60,6,27,1625449482.0,32.000000
-60,6,27,1625449482.0,32.000000
-60,6,27,1625449482.0,32.000000
-60,6,27,1625449482.0,32.000000
-60,6,27,1625449482.0,32.000000
-60,6,27,1625449482.0,32.000000
-60,6,27,1625449482.0,32.000000
-60,6,27,1625449482.0,32.000000
-60,6,27,1625449482.0,32.000000
-60,6,27,1625449482.0,32.000000
-60,6,27,1625449482.0,32.000000
-60,6,27,1625449482.0,32.000000
-60,6,28,1625449482.0,32.000000
-59,6,27,1625449482.0,32.000000
-60,5,27,1625449482.0,32.000000
-62,7,27,1625449482.0,32.000000
-61,6,26,1625449482.0,32.000000
-61,7,27,1625449482.0,32.000000
-59,6,28,1625449482.0,32.000000
-60,5,27,1625449482.0,32.000000
-61,5,26,1625449482.0,32.000000
-61,5,26,1625449482.0,32.000000
-61,7,27,1625449482.0,32.000000
-61,7,27,1625449482.0,32.000000
-61,7,27,1625449482.0,32.000000
-61,6,28,1625449482.0,32.000000
-60,6,28,1625449482.0,32.000000
-60,7,28,1625449482.0,32.000000
-60,7,28,1625449482.0,32.000000
-59,7,28,1625449482.0,32.000000
-60,6,28,1625449482.0,32.000000
-56,5,27,1625449482.0,32.000000
-62,7,29,1625449482.0,32.000000
-60,8,30,1625449482.0,32.000000
-62,7,27,1625449482.0,32.000000
-60,7,28,1625449482.0,32.000000
-59,7,29,1625449482.0,32.000000
-59,6,28,1625449482.0,32.000000
-61,6,25,1625449482.0,32.000000
-61,7,27,1625449482.0,32.000000
-59,7,27,1625449482.0,32.000000
-61,7,27,1625449482.0,32.000000
-61,6,27,1625449482.0,32.000000
-60,6,28,1625449482.0,32.000000
-60,6,28,1625449482.0,32.000000
-61,6,27,1625449482.0,32.000000
-60,6,27,1625449482.0,32.000000
-60,6,27,1625449482.0,32.000000
-60,6,27,1625449482.0,32.000000
-60,6,27,1625449482.0,32.000000
-61,6,26,1625449482.0,32.000000
-61,6,27,1625449482.0,32.000000
-60,7,27,1625449482.0,32.000000
-60,6,27,1625449482.0,32.000000
-61,6,27,1625449482.0,32.000000
-60,6,28,1625449482.0,32.000000
-60,6,28,1625449482.0,32.000000
-61,6,26,1625449482.0,32.000000
-61,6,27,1625449482.0,32.000000
-60,6,28,1625449482.0,32.000000
-60,6,27,1625449482.0,32.000000
-60,6,27,1625449482.0,32.000000
-60,6,27,1625449482.0,32.000000
-61,7,27,1625449482.0,32.000000
-60,6,27,1625449482.0,32.000000
-60,6,27,1625449482.0,32.000000
-61,6,27,1625449482.0,32.000000
-60,6,27,1625449482.0,32.000000
-60,6,27,1625449482.0,32.000000
-60,6,27,1625449482.0,32.000000
-60,6,27,1625449482.0,32.000000
-60,6,28,1625449482.0,32.000000
-61,6,27,1625449482.0,32.000000
-61,6,27,1625449482.0,32.000000
-60,6,27,1625449482.0,32.000000
-60,6,27,1625449482.0,32.000000
-61,6,27,1625449482.0,32.000000
-60,6,28,1625449482.0,32.000000
-60,6,27,1625449482.0,32.000000
-60,6,27,1625449482.0,32.000000
-60,6,27,1625449482.0,32.000000
-60,6,27,1625449482.0,32.000000
-60,6,27,1625449482.0,32.000000
-61,6,27,1625449482.0,32.000000
-60,6,27,1625449482.0,32.000000
-60,6,27,1625449482.0,32.000000
-61,6,27,1625449482.0,32.000000
-60,6,27,1625449482.0,32.000000
-60,6,28,1625449482.0,32.000000
-60,6,27,1625449482.0,32.000000
-61,6,27,1625449482.0,32.000000
-60,6,27,1625449482.0,32.000000
-60,7,27,1625449482.0,32.000000
-61,6,27,1625449482.0,32.000000
-61,6,28,1625449482.0,32.000000
-60,6,28,1625449482.0,32.000000
-61,6,27,1625449482.0,32.000000
-61,7,27,1625449482.0,32.000000
-60,7,27,1625449482.0,32.000000
-60,6,27,1625449482.0,32.000000
-60,6,27,1625449482.0,32.000000
-60,6,28,1625449482.0,32.000000
-60,7,28,1625449482.0,32.000000
-60,7,27,1625449482.0,32.000000
-60,7,27,1625449482.0,32.000000
-61,6,28,1625449482.0,32.000000
-60,6,27,1625449482.0,32.000000
-60,6,27,1625449482.0,32.000000
-60,6,27,1625449482.0,32.000000
-60,6,28,1625449482.0,32.000000
-61,6,27,1625449482.0,32.000000
-60,5,27,1625449482.0,32.000000
-60,7,28,1625449482.0,32.000000
-59,6,28,1625449482.0,32.000000
-60,7,28,1625449482.0,32.000000
-60,7,27,1625449482.0,32.000000
-60,7,28,1625449482.0,32.000000
-60,6,28,1625449482.0,32.000000
-60,6,27,1625449482.0,32.000000
-60,7,28,1625449482.0,32.000000
-60,7,28,1625449482.0,32.000000
-60,6,27,1625449482.0,32.000000
-61,6,27,1625449482.0,32.000000
-60,6,28,1625449482.0,32.000000
-60,6,28,1625449482.0,32.000000
-60,6,28,1625449482.0,32.000000
-60,6,28,1625449482.0,32.000000
-60,6,28,1625449482.0,32.000000
-60,6,28,1625449482.0,32.000000
-60,6,28,1625449482.0,32.000000
-60,7,28,1625449482.0,32.000000
-60,7,27,1625449482.0,32.000000
-60,6,28,1625449482.0,32.000000
-60,6,28,1625449482.0,32.000000
-60,7,28,1625449482.0,32.000000
-60,6,28,1625449482.0,32.000000
-60,6,28,1625449482.0,32.000000
-60,6,27,1625449482.0,32.000000
-60,7,28,1625449482.0,32.000000
-60,6,27,1625449482.0,32.000000
-61,7,27,1625449482.0,32.000000
-60,6,28,1625449482.0,32.000000
-60,6,28,1625449482.0,32.000000
-60,6,28,1625449482.0,32.000000
-60,7,29,1625449482.0,32.000000
-60,7,28,1625449482.0,32.000000
-60,7,27,1625449482.0,32.000000
-60,6,27,1625449482.0,32.000000
-60,6,28,1625449482.0,32.000000
-60,6,28,1625449482.0,32.000000
-60,7,27,1625449482.0,32.000000
-60,6,28,1625449482.0,32.000000
-60,6,28,1625449482.0,32.000000
-60,6,28,1625449482.0,32.000000
-60,6,28,1625449482.0,32.000000
-60,6,28,1625449482.0,32.000000
-60,6,28,1625449482.0,32.000000
-60,6,28,1625449482.0,32.000000
-61,6,27,1625449482.0,32.000000
-60,6,27,1625449482.0,32.000000
-60,7,28,1625449482.0,32.000000
-60,6,26,1625449482.0,32.000000
-61,6,27,1625449482.0,32.000000
-60,6,28,1625449482.0,32.000000
-60,6,28,1625449482.0,32.000000
-60,6,28,1625449482.0,32.000000
-60,6,28,1625449482.0,32.000000
-60,6,28,1625449482.0,32.000000
-60,6,28,1625449482.0,32.000000
-60,7,28,1625449482.0,32.000000
-60,7,28,1625449482.0,32.000000
-60,6,28,1625449482.0,32.000000
-61,6,27,1625449482.0,32.000000
-60,6,28,1625449482.0,32.000000
-59,7,28,1625449482.0,32.000000
-61,7,27,1625449482.0,32.000000
-60,6,28,1625449482.0,32.000000
-59,6,29,1625449482.0,32.000000
-60,6,27,1625449482.0,32.000000
-60,6,27,1625449482.0,32.000000
-60,7,28,1625449482.0,32.000000
-57,6,27,1625449482.0,32.000000
-65,7,27,1625449482.0,32.000000
-55,2,28,1625449482.0,32.000000
-60,9,30,1625449482.0,32.000000
-61,6,25,1625449482.0,32.000000
-62,6,25,1625449482.0,32.000000
-59,6,29,1625449482.0,32.000000
-60,5,26,1625449482.0,32.000000
-62,6,25,1625449482.0,32.000000
-60,7,28,1625449482.0,32.000000
-59,7,29,1625449482.0,32.000000
-61,6,26,1625449482.0,32.000000
-60,6,28,1625449482.0,32.000000
-60,6,28,1625449482.0,32.000000
-61,6,27,1625449482.0,32.000000
-61,6,27,1625449482.0,32.000000
-60,7,27,1625449482.0,32.000000
-61,6,27,1625449482.0,32.000000
-61,6,27,1625449482.0,32.000000
-61,6,27,1625449482.0,32.000000
-60,6,27,1625449482.0,32.000000
-60,6,27,1625449482.0,32.000000
-60,6,27,1625449482.0,32.000000
-60,6,27,1625449482.0,32.000000
-61,6,27,1625449482.0,32.000000
-61,6,27,1625449482.0,32.000000
-60,6,27,1625449482.0,32.000000
-60,6,27,1625449482.0,32.000000
-61,6,27,1625449482.0,32.000000
-61,6,26,1625449482.0,32.000000
-60,6,26,1625449482.0,32.000000
-61,6,27,1625449482.0,32.000000
-61,6,26,1625449482.0,32.000000
-61,6,26,1625449482.0,32.000000
-61,6,27,1625449482.0,32.000000
-61,6,27,1625449482.0,32.000000
-61,6,27,1625449482.0,32.000000
-61,6,26,1625449482.0,32.000000
-61,6,26,1625449482.0,32.000000
-61,6,27,1625449482.0,32.000000
-61,6,26,1625449482.0,32.000000
-61,6,27,1625449482.0,32.000000
-61,6,27,1625449482.0,32.000000
-61,6,26,1625449482.0,32.000000
-61,6,26,1625449482.0,32.000000
-61,6,27,1625449482.0,32.000000
-61,6,27,1625449482.0,32.000000
-61,6,27,1625449482.0,32.000000
-61,6,26,1625449482.0,32.000000
-61,6,27,1625449482.0,32.000000
-61,6,27,1625449482.0,32.000000
-61,6,26,1625449482.0,32.000000
-61,6,26,1625449482.0,32.000000
-60,6,27,1625449482.0,32.000000
-61,6,26,1625449482.0,32.000000
-61,6,26,1625449482.0,32.000000
-61,6,27,1625449482.0,32.000000
-61,6,27,1625449482.0,32.000000
-61,6,27,1625449482.0,32.000000
-61,6,26,1625449482.0,32.000000
-61,6,27,1625449482.0,32.000000
-60,6,27,1625449482.0,32.000000
-61,6,26,1625449482.0,32.000000
-60,6,26,1625449482.0,32.000000
-61,6,27,1625449482.0,32.000000
-61,6,27,1625449482.0,32.000000
-61,6,27,1625449482.0,32.000000
-61,6,26,1625449482.0,32.000000
-61,6,26,1625449482.0,32.000000
-61,6,26,1625449482.0,32.000000
-61,6,26,1625449482.0,32.000000
-61,6,27,1625449482.0,32.000000
-61,6,26,1625449482.0,32.000000
-61,6,26,1625449482.0,32.000000
-61,6,27,1625449482.0,32.000000
-61,6,26,1625449482.0,32.000000
-61,6,26,1625449482.0,32.000000
-61,6,26,1625449482.0,32.000000
-61,6,27,1625449482.0,32.000000
-61,6,26,1625449482.0,32.000000
-61,6,26,1625449482.0,32.000000
-60,6,26,1625449482.0,32.000000
-60,7,27,1625449482.0,32.000000
-61,6,26,1625449482.0,32.000000
-61,6,26,1625449482.0,32.000000
-61,6,27,1625449482.0,32.000000
-61,6,26,1625449482.0,32.000000
-61,6,26,1625449482.0,32.000000
-61,6,26,1625449482.0,32.000000
-61,6,26,1625449482.0,32.000000
-61,6,26,1625449482.0,32.000000
-60,6,26,1625449482.0,32.000000
-61,6,26,1625449482.0,32.000000
-61,6,26,1625449482.0,32.000000
-61,6,26,1625449482.0,32.000000
-61,6,26,1625449482.0,32.000000
-61,6,26,1625449482.0,32.000000
-61,6,26,1625449482.0,32.000000
-61,6,27,1625449482.0,32.000000
-61,6,26,1625449482.0,32.000000
-61,6,26,1625449482.0,32.000000
-61,6,26,1625449482.0,32.000000
-61,6,26,1625449482.0,32.000000
-61,6,27,1625449482.0,32.000000
-61,6,26,1625449482.0,32.000000
-61,6,26,1625449482.0,32.000000
-61,6,27,1625449482.0,32.000000
-61,6,26,1625449482.0,32.000000
-61,6,27,1625449482.0,32.000000
-61,6,26,1625449482.0,32.000000
-61,6,26,1625449482.0,32.000000
-61,6,26,1625449482.0,32.000000
-61,6,26,1625449482.0,32.000000
-61,6,26,1625449482.0,32.000000
-61,6,27,1625449482.0,32.000000
-61,6,26,1625449482.0,32.000000
-61,5,26,1625449482.0,32.000000
-61,6,26,1625449482.0,32.000000
-61,6,26,1625449482.0,32.000000
-61,6,26,1625449482.0,32.000000
-61,6,26,1625449482.0,32.000000
-61,6,26,1625449482.0,32.000000
-61,6,26,1625449482.0,32.000000
-60,6,26,1625449482.0,32.000000
-61,6,26,1625449482.0,32.000000
-61,6,26,1625449482.0,32.000000
-61,6,26,1625449482.0,32.000000
-61,6,26,1625449482.0,32.000000
-63,7,26,1625449482.0,32.000000
-58,6,27,1625449482.0,32.000000
-61,8,26,1625449482.0,32.000000
-61,5,25,1625449482.0,32.000000
-61,6,26,1625449482.0,32.000000
-61,6,26,1625449482.0,32.000000
-61,6,26,1625449482.0,32.000000
-61,6,26,1625449482.0,32.000000
-61,6,26,1625449482.0,32.000000
-61,6,26,1625449482.0,32.000000
-61,6,26,1625449482.0,32.000000
-61,6,26,1625449482.0,32.000000
-61,6,26,1625449482.0,32.000000
-61,6,26,1625449482.0,32.000000
-61,6,26,1625449482.0,32.000000
-61,6,26,1625449482.0,32.000000
-61,6,26,1625449482.0,32.000000
-61,6,26,1625449482.0,32.000000
-61,6,26,1625449482.0,32.000000
-61,6,26,1625449482.0,32.000000
-61,6,26,1625449482.0,32.000000
-61,6,26,1625449482.0,32.000000
-61,6,26,1625449482.0,32.000000
-61,6,26,1625449482.0,32.000000
-61,6,26,1625449482.0,32.000000
-61,6,26,1625449482.0,32.000000
-61,6,26,1625449482.0,32.000000
-61,6,26,1625449482.0,32.000000
-61,6,26,1625449482.0,32.000000
-61,6,26,1625449482.0,32.000000
-61,6,26,1625449482.0,32.000000
-61,6,26,1625449482.0,32.000000
-61,6,26,1625449482.0,32.000000
-61,6,26,1625449482.0,32.000000
-61,6,26,1625449482.0,32.000000
-61,6,26,1625449482.0,32.000000
-61,6,26,1625449482.0,32.000000
-61,6,26,1625449482.0,32.000000
-61,6,26,1625449482.0,32.000000
-61,6,26,1625449482.0,32.000000
-61,6,26,1625449482.0,32.000000
-61,6,26,1625449482.0,32.000000
-61,6,26,1625449482.0,32.000000
-61,6,26,1625449482.0,32.000000
-61,6,26,1625449482.0,32.000000
-61,6,26,1625449482.0,32.000000
-61,6,26,1625449482.0,32.000000
-61,6,26,1625449482.0,32.000000
-61,6,26,1625449482.0,32.000000
-61,6,26,1625449482.0,32.000000
-61,6,26,1625449482.0,32.000000
-61,6,26,1625449482.0,32.000000
-61,6,26,1625449482.0,32.000000
-61,6,26,1625449482.0,32.000000
-61,6,26,1625449482.0,32.000000
-61,6,26,1625449482.0,32.000000
-61,6,26,1625449482.0,32.000000
-61,6,26,1625449482.0,32.000000
-61,6,26,1625449482.0,32.000000
-61,6,26,1625449482.0,32.000000
-61,6,26,1625449482.0,32.000000
-61,6,26,1625449482.0,32.000000
-61,6,26,1625449482.0,32.000000
-61,6,26,1625449482.0,32.000000
-61,6,26,1625449482.0,32.000000
-61,6,26,1625449482.0,32.000000
-61,6,26,1625449482.0,32.000000
-61,6,26,1625449482.0,32.000000
-61,6,26,1625449482.0,32.000000
-61,6,26,1625449482.0,32.000000
-61,6,26,1625449482.0,32.000000
-61,6,26,1625449482.0,32.000000
-61,6,26,1625449482.0,32.000000
-61,6,26,1625449482.0,32.000000
-61,6,26,1625449482.0,32.000000
-61,6,26,1625449482.0,32.000000
-61,6,26,1625449482.0,32.000000
-61,6,26,1625449482.0,32.000000
-61,6,26,1625449482.0,32.000000
-61,6,26,1625449482.0,32.000000
-61,6,26,1625449482.0,32.000000
-61,6,26,1625449482.0,32.000000
-61,6,26,1625449482.0,32.000000
-61,6,26,1625449482.0,32.000000
-61,6,26,1625449482.0,32.000000
-61,6,26,1625449482.0,32.000000
-61,6,26,1625449482.0,32.000000
-61,6,26,1625449482.0,32.000000
-61,6,26,1625449482.0,32.000000
-61,6,26,1625449482.0,32.000000
-61,6,26,1625449482.0,32.000000
-60,6,26,1625449482.0,32.000000
-61,6,26,1625449482.0,32.000000
-61,6,26,1625449482.0,32.000000
-61,6,27,1625449482.0,32.000000
-61,6,26,1625449482.0,32.000000
-61,6,26,1625449482.0,32.000000
-61,6,26,1625449482.0,32.000000
-61,6,26,1625449482.0,32.000000
-61,6,26,1625449482.0,32.000000
-61,6,26,1625449482.0,32.000000
-61,6,26,1625449482.0,32.000000
-61,6,26,1625449482.0,32.000000
-61,6,26,1625449482.0,32.000000
-61,6,26,1625449482.0,32.000000
-61,6,27,1625449482.0,32.000000
-61,6,26,1625449482.0,32.000000
-61,6,27,1625449482.0,32.000000
-61,6,26,1625449482.0,32.000000
-61,6,27,1625449482.0,32.000000
-61,6,26,1625449482.0,32.000000
-61,6,26,1625449482.0,32.000000
-61,6,26,1625449482.0,32.000000
-61,6,26,1625449482.0,32.000000
-61,6,26,1625449482.0,32.000000
-61,6,27,1625449482.0,32.000000
-61,6,26,1625449482.0,32.000000
-61,6,26,1625449482.0,32.000000
-61,6,26,1625449482.0,32.000000
-61,6,26,1625449482.0,32.000000
-61,6,26,1625449482.0,32.000000
-61,6,26,1625449482.0,32.000000
-61,6,26,1625449482.0,32.000000
-61,6,26,1625449482.0,32.000000
-61,6,26,1625449482.0,32.000000
-61,6,26,1625449482.0,32.000000
-61,6,26,1625449482.0,32.000000
-61,6,26,1625449482.0,32.000000
-61,6,26,1625449482.0,32.000000
-61,6,26,1625449482.0,32.000000
-61,6,26,1625449482.0,32.000000
-61,6,26,1625449482.0,32.000000
-61,6,26,1625449482.0,32.000000
-61,6,26,1625449482.0,32.000000
-61,6,26,1625449482.0,32.000000
-61,6,26,1625449482.0,32.000000
-61,6,26,1625449482.0,32.000000
-61,6,26,1625449482.0,32.000000
-61,6,26,1625449482.0,32.000000
-61,6,26,1625449482.0,32.000000
-61,6,26,1625449482.0,32.000000
-61,6,26,1625449482.0,32.000000
-61,6,26,1625449482.0,32.000000
-61,6,26,1625449482.0,32.000000
-61,6,27,1625449482.0,32.000000
-61,6,26,1625449482.0,32.000000
-61,6,26,1625449482.0,32.000000
-61,6,26,1625449482.0,32.000000
-61,6,26,1625449482.0,32.000000
-61,6,26,1625449482.0,32.000000
-61,6,26,1625449482.0,32.000000
-61,6,26,1625449482.0,32.000000
-61,6,26,1625449482.0,32.000000
-61,6,26,1625449482.0,32.000000
-61,6,26,1625449482.0,32.000000
-61,6,26,1625449482.0,32.000000
-61,6,26,1625449482.0,32.000000
-61,6,26,1625449482.0,32.000000
-61,6,26,1625449482.0,32.000000
-61,6,26,1625449482.0,32.000000
-60,6,26,1625449482.0,32.000000
-61,6,26,1625449482.0,32.000000
-60,5,26,1625449482.0,32.000000
-61,6,27,1625449482.0,32.000000
-61,6,26,1625449482.0,32.000000
-61,6,26,1625449482.0,32.000000
-61,6,27,1625449482.0,32.000000
-61,6,26,1625449482.0,32.000000
-60,6,26,1625449482.0,32.000000
-61,6,26,1625449482.0,32.000000
-60,6,27,1625449482.0,32.000000
-60,6,27,1625449482.0,32.000000
-61,6,27,1625449482.0,32.000000
-61,6,26,1625449482.0,32.000000
-61,6,27,1625449482.0,32.000000
-60,6,27,1625449482.0,32.000000
-60,6,27,1625449482.0,32.000000
-61,6,27,1625449482.0,32.000000
-60,6,27,1625449482.0,32.000000
-60,6,27,1625449482.0,32.000000
-61,6,27,1625449482.0,32.000000
-61,6,26,1625449482.0,32.000000
-60,6,27,1625449482.0,32.000000
-61,6,27,1625449482.0,32.000000
-61,6,26,1625449482.0,32.000000
-59,6,27,1625449482.0,32.000000
-61,6,26,1625449482.0,32.000000
-59,3,26,1625449482.0,32.000000
-61,6,25,1625449482.0,32.000000
-61,6,25,1625449482.0,32.000000
-62,7,27,1625449482.0,32.000000
-60,6,27,1625449482.0,32.000000
-60,5,25,1625449482.0,32.000000
-62,6,25,1625449482.0,32.000000
-61,6,27,1625449482.0,32.000000
-61,6,25,1625449482.0,32.000000
-61,6,25,1625449482.0,32.000000
-61,6,27,1625449482.0,32.000000
-60,6,27,1625449482.0,32.000000
-61,6,26,1625449482.0,32.000000
-61,6,27,1625449482.0,32.000000
-61,6,27,1625449482.0,32.000000
-61,6,26,1625449482.0,32.000000
-61,6,26,1625449482.0,32.000000
-60,6,27,1625449482.0,32.000000
-61,6,26,1625449482.0,32.000000
-61,6,26,1625449482.0,32.000000
-61,6,27,1625449482.0,32.000000
-60,6,27,1625449482.0,32.000000
-61,6,26,1625449482.0,32.000000
-65,3,25,1625449482.0,32.000000
-64,-2,27,1625449482.0,32.000000
-56,1,27,1625449482.0,32.000000
-62,7,25,1625449482.0,32.000000
-60,7,25,1625449482.0,32.000000
-60,6,27,1625449482.0,32.000000
-61,6,27,1625449482.0,32.000000
-61,5,26,1625449482.0,32.000000
-61,5,26,1625449482.0,32.000000
-61,6,26,1625449482.0,32.000000
-60,7,26,1625449482.0,32.000000
-60,5,26,1625449482.0,32.000000
-61,6,26,1625449482.0,32.000000
-61,6,27,1625449482.0,32.000000
-61,6,27,1625449482.0,32.000000
-61,6,27,1625449482.0,32.000000
-61,6,26,1625449482.0,32.000000
-60,6,27,1625449482.0,32.000000
-61,6,26,1625449482.0,32.000000
-61,5,25,1625449482.0,32.000000
-61,7,27,1625449482.0,32.000000
-60,6,26,1625449482.0,32.000000
-62,6,26,1625449482.0,32.000000
-61,5,26,1625449482.0,32.000000
-60,6,27,1625449482.0,32.000000
-61,6,26,1625449482.0,32.000000
-61,6,26,1625449482.0,32.000000
-61,6,27,1625449482.0,32.000000
-61,6,26,1625449482.0,32.000000
-61,6,26,1625449482.0,32.000000
-61,6,26,1625449482.0,32.000000
-61,6,26,1625449482.0,32.000000
-61,6,26,1625449482.0,32.000000
-61,6,26,1625449482.0,32.000000
-61,6,26,1625449482.0,32.000000
-61,6,26,1625449482.0,32.000000
-61,6,26,1625449482.0,32.000000
-61,6,27,1625449482.0,32.000000
-61,6,26,1625449482.0,32.000000
-61,6,26,1625449482.0,32.000000
-60,6,27,1625449482.0,32.000000
-61,6,26,1625449482.0,32.000000
-61,6,27,1625449482.0,32.000000
-61,6,26,1625449482.0,32.000000
-61,6,26,1625449482.0,32.000000
-61,6,26,1625449482.0,32.000000
-61,6,26,1625449482.0,32.000000
-61,6,27,1625449482.0,32.000000
-61,6,26,1625449482.0,32.000000
-61,6,26,1625449482.0,32.000000
-61,6,26,1625449482.0,32.000000
-61,6,27,1625449482.0,32.000000
-61,6,26,1625449482.0,32.000000
-61,6,26,1625449482.0,32.000000
-61,6,26,1625449482.0,32.000000
-61,6,26,1625449482.0,32.000000
-61,6,26,1625449482.0,32.000000
-61,6,26,1625449482.0,32.000000
-60,6,27,1625449482.0,32.000000
-61,6,26,1625449482.0,32.000000
-61,6,26,1625449482.0,32.000000
-61,6,27,1625449482.0,32.000000
-60,6,26,1625449482.0,32.000000
-61,6,26,1625449482.0,32.000000
-60,6,27,1625449482.0,32.000000
-61,6,26,1625449482.0,32.000000
-61,6,26,1625449482.0,32.000000
-61,6,27,1625449482.0,32.000000
-61,6,26,1625449482.0,32.000000
-61,6,26,1625449482.0,32.000000
-61,6,26,1625449482.0,32.000000
-60,6,26,1625449482.0,32.000000
-61,6,27,1625449482.0,32.000000
-61,6,26,1625449482.0,32.000000
-61,6,27,1625449482.0,32.000000
-61,6,26,1625449482.0,32.000000
-61,6,26,1625449482.0,32.000000
-60,6,27,1625449482.0,32.000000
-61,6,26,1625449482.0,32.000000
-61,6,26,1625449482.0,32.000000
-61,6,26,1625449482.0,32.000000
-61,6,26,1625449482.0,32.000000
-61,6,26,1625449482.0,32.000000
-61,6,26,1625449482.0,32.000000
-61,6,26,1625449482.0,32.000000
-61,6,26,1625449482.0,32.000000
-61,6,26,1625449482.0,32.000000
-61,6,26,1625449482.0,32.000000
-61,6,26,1625449482.0,32.000000
-61,6,26,1625449482.0,32.000000
-61,6,26,1625449482.0,32.000000
-61,6,26,1625449482.0,32.000000
-61,6,26,1625449482.0,32.000000
-61,6,26,1625449482.0,32.000000
-61,6,26,1625449482.0,32.000000
-61,6,27,1625449482.0,32.000000
-60,6,26,1625449482.0,32.000000
-62,6,26,1625449482.0,32.000000
-60,6,27,1625449482.0,32.000000
-60,7,27,1625449482.0,32.000000
-61,5,25,1625449482.0,32.000000
-61,6,26,1625449482.0,32.000000
-61,6,27,1625449482.0,32.000000
-60,6,26,1625449482.0,32.000000
-61,6,26,1625449482.0,32.000000
-61,5,27,1625449482.0,32.000000
-60,6,26,1625449482.0,32.000000
-60,5,25,1625449482.0,32.000000
-61,6,26,1625449482.0,32.000000
-60,6,27,1625449482.0,32.000000
-61,6,26,1625449482.0,32.000000
-61,5,26,1625449482.0,32.000000
-61,5,27,1625449482.0,32.000000
-61,6,27,1625449482.0,32.000000
-61,6,26,1625449482.0,32.000000
-60,6,26,1625449482.0,32.000000
-61,6,27,1625449482.0,32.000000
-61,6,26,1625449482.0,32.000000
-61,6,26,1625449482.0,32.000000
-61,6,27,1625449482.0,32.000000
-61,6,26,1625449482.0,32.000000
-61,6,26,1625449482.0,32.000000
-61,6,26,1625449482.0,32.000000
-61,6,27,1625449482.0,32.000000
-61,6,27,1625449482.0,32.000000
-61,6,26,1625449482.0,32.000000
-61,6,26,1625449482.0,32.000000
-61,6,26,1625449482.0,32.000000
-61,6,27,1625449482.0,32.000000
-61,6,26,1625449482.0,32.000000
-61,6,26,1625449482.0,32.000000
-60,6,26,1625449482.0,32.000000
-61,6,26,1625449482.0,32.000000
-61,6,26,1625449482.0,32.000000
-61,6,26,1625449482.0,32.000000
-60,6,27,1625449482.0,32.000000
-61,6,26,1625449482.0,32.000000
-61,6,26,1625449482.0,32.000000
-61,6,26,1625449482.0,32.000000
-61,6,26,1625449482.0,32.000000
-61,6,27,1625449482.0,32.000000
-60,6,27,1625449482.0,32.000000
-61,6,26,1625449482.0,32.000000
-61,6,27,1625449482.0,32.000000
-61,6,27,1625449482.0,32.000000
-60,6,27,1625449482.0,32.000000
-61,6,26,1625449482.0,32.000000
-61,6,26,1625449482.0,32.000000
-61,6,27,1625449482.0,32.000000
-60,6,27,1625449482.0,32.000000
-61,6,27,1625449482.0,32.000000
-60,6,27,1625449482.0,32.000000
-61,6,27,1625449482.0,32.000000
-61,6,27,1625449482.0,32.000000
-61,6,26,1625449482.0,32.000000
-61,6,26,1625449482.0,32.000000
-61,6,26,1625449482.0,32.000000
-61,6,26,1625449482.0,32.000000
-61,6,26,1625449482.0,32.000000
-61,6,26,1625449482.0,32.000000
-61,6,26,1625449482.0,32.000000
-61,6,26,1625449482.0,32.000000
-61,6,27,1625449482.0,32.000000
-61,6,26,1625449482.0,32.000000
-61,6,26,1625449482.0,32.000000
-61,6,26,1625449482.0,32.000000
-61,6,26,1625449482.0,32.000000
-60,6,26,1625449482.0,32.000000
-61,6,26,1625449482.0,32.000000
-61,6,26,1625449482.0,32.000000
-61,6,26,1625449482.0,32.000000
-61,6,26,1625449482.0,32.000000
-61,6,26,1625449482.0,32.000000
-61,6,26,1625449482.0,32.000000
-61,6,26,1625449482.0,32.000000
-61,6,27,1625449482.0,32.000000
-61,6,26,1625449482.0,32.000000
-61,6,26,1625449482.0,32.000000
-61,6,26,1625449482.0,32.000000
-61,6,26,1625449482.0,32.000000
-61,6,26,1625449482.0,32.000000
-61,6,26,1625449482.0,32.000000
-61,6,26,1625449482.0,32.000000
-61,6,26,1625449482.0,32.000000
-61,6,26,1625449482.0,32.000000
-61,6,26,1625449482.0,32.000000
-61,6,26,1625449482.0,32.000000
-61,6,26,1625449482.0,32.000000
-61,6,26,1625449482.0,32.000000
-61,6,26,1625449482.0,32.000000
-61,6,26,1625449482.0,32.000000
-61,6,26,1625449482.0,32.000000
-61,6,26,1625449482.0,32.000000
-61,6,26,1625449482.0,32.000000
-61,6,26,1625449482.0,32.000000
-61,6,26,1625449482.0,32.000000
-61,6,26,1625449482.0,32.000000
-61,6,26,1625449482.0,32.000000
-61,6,26,1625449482.0,32.000000
-61,6,26,1625449482.0,32.000000
-61,6,26,1625449482.0,32.000000
-61,6,26,1625449482.0,32.000000
-61,6,26,1625449482.0,32.000000
-61,6,26,1625449482.0,32.000000
-61,6,26,1625449482.0,32.000000
-61,6,26,1625449482.0,32.000000
-61,6,26,1625449482.0,32.000000
-61,6,26,1625449482.0,32.000000
-61,6,26,1625449482.0,32.000000
-61,6,26,1625449482.0,32.000000
-61,6,26,1625449482.0,32.000000
-61,6,26,1625449482.0,32.000000
-61,6,26,1625449482.0,32.000000
-61,6,26,1625449482.0,32.000000
-61,6,26,1625449482.0,32.000000
-61,6,26,1625449482.0,32.000000
-61,6,26,1625449482.0,32.000000
-61,6,26,1625449482.0,32.000000
-61,6,26,1625449482.0,32.000000
-61,6,26,1625449482.0,32.000000
-61,6,26,1625449482.0,32.000000
-61,6,26,1625449482.0,32.000000
-61,6,26,1625449482.0,32.000000
-61,6,26,1625449482.0,32.000000
-61,6,26,1625449482.0,32.000000
-61,6,26,1625449482.0,32.000000
-61,6,26,1625449482.0,32.000000
-61,6,27,1625449482.0,32.000000
-61,6,26,1625449482.0,32.000000
-61,6,26,1625449482.0,32.000000
-61,6,26,1625449482.0,32.000000
-61,6,26,1625449482.0,32.000000
-61,6,26,1625449482.0,32.000000
-61,6,26,1625449482.0,32.000000
-61,6,26,1625449482.0,32.000000
-61,6,26,1625449482.0,32.000000
-61,6,26,1625449482.0,32.000000
-61,6,26,1625449482.0,32.000000
-61,6,27,1625449482.0,32.000000
-61,6,26,1625449482.0,32.000000
-61,6,26,1625449482.0,32.000000
-61,6,26,1625449482.0,32.000000
-61,6,26,1625449482.0,32.000000
-61,6,26,1625449482.0,32.000000
-61,6,26,1625449482.0,32.000000
-61,6,26,1625449482.0,32.000000
-61,6,27,1625449482.0,32.000000
-60,6,26,1625449482.0,32.000000
-61,6,26,1625449482.0,32.000000
-60,6,27,1625449482.0,32.000000
-60,6,27,1625449482.0,32.000000
-61,6,26,1625449482.0,32.000000
-61,5,26,1625449482.0,32.000000
-61,6,27,1625449482.0,32.000000
-61,6,26,1625449482.0,32.000000
-61,6,26,1625449482.0,32.000000
-61,6,26,1625449482.0,32.000000
-61,6,26,1625449482.0,32.000000
-61,6,26,1625449482.0,32.000000
-61,6,26,1625449482.0,32.000000
-61,6,26,1625449482.0,32.000000
-60,6,26,1625449482.0,32.000000
-61,7,27,1625449482.0,32.000000
-60,5,27,1625449482.0,32.000000
-61,6,26,1625449482.0,32.000000
-61,5,26,1625449482.0,32.000000
-61,6,27,1625449482.0,32.000000
-60,6,26,1625449482.0,32.000000
-60,6,26,1625449482.0,32.000000
-61,6,26,1625449482.0,32.000000
-61,6,26,1625449482.0,32.000000
-61,6,26,1625449482.0,32.000000
-61,6,26,1625449482.0,32.000000
-61,6,26,1625449482.0,32.000000
-61,6,26,1625449482.0,32.000000
-61,6,26,1625449482.0,32.000000
-60,6,26,1625449482.0,32.000000
-61,6,26,1625449482.0,32.000000
-61,6,26,1625449482.0,32.000000
-61,6,26,1625449482.0,32.000000
-61,6,26,1625449482.0,32.000000
-61,6,26,1625449482.0,32.000000
-61,6,26,1625449482.0,32.000000
-61,6,26,1625449482.0,32.000000
-61,6,26,1625449482.0,32.000000
-61,6,26,1625449482.0,32.000000
-61,6,26,1625449482.0,32.000000
-61,6,26,1625449482.0,32.000000
-61,6,26,1625449482.0,32.000000
-61,6,26,1625449482.0,32.000000
-61,6,26,1625449482.0,32.000000
-61,6,26,1625449482.0,32.000000
-61,6,26,1625449482.0,32.000000
-61,6,26,1625449482.0,32.000000
-61,6,26,1625449482.0,32.000000
-61,6,26,1625449482.0,32.000000
-61,6,26,1625449482.0,32.000000
-61,6,26,1625449482.0,32.000000
-61,6,26,1625449482.0,32.000000
-61,6,26,1625449482.0,32.000000
-61,6,26,1625449482.0,32.000000
-61,6,26,1625449482.0,32.000000
-61,6,25,1625449482.0,32.000000
-61,6,27,1625449482.0,32.000000
-61,6,27,1625449482.0,32.000000
-61,6,25,1625449482.0,32.000000
-61,6,26,1625449482.0,32.000000
-60,6,27,1625449482.0,32.000000
-61,6,25,1625449482.0,32.000000
-61,6,26,1625449482.0,32.000000
-61,6,26,1625449482.0,32.000000
-61,6,26,1625449482.0,32.000000
-61,6,26,1625449482.0,32.000000
-61,6,26,1625449482.0,32.000000
-60,6,27,1625449482.0,32.000000
-61,6,26,1625449482.0,32.000000
-61,6,26,1625449482.0,32.000000
-61,6,26,1625449482.0,32.000000
-61,6,26,1625449482.0,32.000000
-61,6,25,1625449482.0,32.000000
-61,6,26,1625449482.0,32.000000
-60,7,28,1625449482.0,32.000000
-62,5,24,1625449482.0,32.000000
-61,7,27,1625449482.0,32.000000
-60,7,27,1625449482.0,32.000000
-62,6,25,1625449482.0,32.000000
-61,6,26,1625449482.0,32.000000
-61,6,26,1625449482.0,32.000000
-60,6,27,1625449482.0,32.000000
-60,6,26,1625449482.0,32.000000
-61,5,25,1625449482.0,32.000000
-61,6,26,1625449482.0,32.000000
-60,6,27,1625449482.0,32.000000
-61,6,26,1625449482.0,32.000000
-61,6,25,1625449482.0,32.000000
-60,6,26,1625449482.0,32.000000
-61,6,26,1625449482.0,32.000000
-60,6,27,1625449482.0,32.000000
-62,6,25,1625449482.0,32.000000
-61,5,25,1625449482.0,32.000000
-61,6,26,1625449482.0,32.000000
-61,6,27,1625449482.0,32.000000
-61,6,26,1625449482.0,32.000000
-61,6,26,1625449482.0,32.000000
-61,6,27,1625449482.0,32.000000
-61,6,25,1625449482.0,32.000000
-61,6,26,1625449482.0,32.000000
-60,6,26,1625449482.0,32.000000
-61,6,26,1625449482.0,32.000000
-61,6,26,1625449482.0,32.000000
-61,6,26,1625449482.0,32.000000
-61,6,26,1625449482.0,32.000000
-61,6,26,1625449482.0,32.000000
-61,6,26,1625449482.0,32.000000
-61,6,26,1625449482.0,32.000000
-61,6,26,1625449482.0,32.000000
-61,6,26,1625449482.0,32.000000
-61,6,26,1625449482.0,32.000000
-61,6,26,1625449482.0,32.000000
-61,6,26,1625449482.0,32.000000
-61,6,26,1625449482.0,32.000000
-61,6,26,1625449482.0,32.000000
-60,6,26,1625449482.0,32.000000
-61,6,26,1625449482.0,32.000000
-60,6,27,1625449482.0,32.000000
-61,6,26,1625449482.0,32.000000
-61,6,26,1625449482.0,32.000000
-61,6,25,1625449482.0,32.000000
-61,6,26,1625449482.0,32.000000
-61,6,26,1625449482.0,32.000000
-61,6,26,1625449482.0,32.000000
-61,6,26,1625449482.0,32.000000
-61,6,26,1625449482.0,32.000000
-61,6,26,1625449482.0,32.000000
-61,6,26,1625449482.0,32.000000
-61,6,26,1625449482.0,32.000000
-61,6,26,1625449482.0,32.000000
-61,6,26,1625449482.0,32.000000
-61,6,26,1625449482.0,32.000000
-61,6,26,1625449482.0,32.000000
-61,6,26,1625449482.0,32.000000
-61,6,26,1625449482.0,32.000000
-61,6,26,1625449482.0,32.000000
-61,6,26,1625449482.0,32.000000
-61,6,26,1625449482.0,32.000000
-61,6,26,1625449482.0,32.000000
-61,6,26,1625449482.0,32.000000
-61,6,26,1625449482.0,32.000000
-61,6,26,1625449482.0,32.000000
-61,6,26,1625449482.0,32.000000
-61,6,26,1625449482.0,32.000000
-61,6,26,1625449482.0,32.000000
-61,6,26,1625449482.0,32.000000
-61,6,26,1625449482.0,32.000000
-61,6,26,1625449482.0,32.000000
-61,6,26,1625449482.0,32.000000
-61,6,26,1625449482.0,32.000000
-61,6,26,1625449482.0,32.000000
-61,6,26,1625449482.0,32.000000
-60,6,26,1625449482.0,32.000000
-61,6,26,1625449482.0,32.000000
-61,6,26,1625449482.0,32.000000
-61,6,26,1625449482.0,32.000000
-61,6,25,1625449482.0,32.000000
-61,6,26,1625449482.0,32.000000
-61,6,26,1625449482.0,32.000000
-61,6,25,1625449482.0,32.000000
-61,6,25,1625449482.0,32.000000
-61,6,26,1625449482.0,32.000000
-61,6,26,1625449482.0,32.000000
-61,6,25,1625449482.0,32.000000
-61,6,27,1625449482.0,32.000000
-61,6,26,1625449482.0,32.000000
-61,6,25,1625449482.0,32.000000
-61,6,26,1625449482.0,32.000000
-61,6,26,1625449482.0,32.000000
-61,6,25,1625449482.0,32.000000
-61,6,25,1625449482.0,32.000000
-61,6,26,1625449482.0,32.000000
-60,6,26,1625449482.0,32.000000
-61,6,26,1625449482.0,32.000000
-61,5,26,1625449482.0,32.000000
-61,6,26,1625449482.0,32.000000
-61,5,26,1625449482.0,32.000000
-61,6,26,1625449482.0,32.000000
-61,6,26,1625449482.0,32.000000
-61,6,26,1625449482.0,32.000000
-61,6,26,1625449482.0,32.000000
-61,6,26,1625449482.0,32.000000
-62,6,25,1625449482.0,32.000000
-61,6,26,1625449482.0,32.000000
-61,6,26,1625449482.0,32.000000
-61,6,25,1625449482.0,32.000000
-61,6,26,1625449482.0,32.000000
-61,5,26,1625449482.0,32.000000
-61,6,26,1625449482.0,32.000000
-61,6,26,1625449482.0,32.000000
-61,6,26,1625449482.0,32.000000
-61,6,25,1625449482.0,32.000000
-61,6,26,1625449482.0,32.000000
-61,6,26,1625449482.0,32.000000
-61,6,25,1625449482.0,32.000000
-61,6,26,1625449482.0,32.000000
-61,6,26,1625449482.0,32.000000
-61,6,26,1625449482.0,32.000000
-61,6,26,1625449482.0,32.000000
-61,6,26,1625449482.0,32.000000
-61,6,26,1625449482.0,32.000000
-61,6,26,1625449482.0,32.000000
-61,6,26,1625449482.0,32.000000
-61,6,26,1625449482.0,32.000000
-61,6,26,1625449482.0,32.000000
-61,6,26,1625449482.0,32.000000
-61,6,26,1625449482.0,32.000000
-61,6,26,1625449482.0,32.000000
-61,6,26,1625449482.0,32.000000
-61,6,26,1625449482.0,32.000000
-61,6,26,1625449482.0,32.000000
-61,6,26,1625449482.0,32.000000
-61,6,26,1625449482.0,32.000000
-61,6,26,1625449482.0,32.000000
-61,6,26,1625449482.0,32.000000
-61,6,26,1625449482.0,32.000000
