ACC_X,ACC_Y,ACC_Z,start_time_unix,sampling_rate
-16,-22,62,1625449482.0,32.000000
-15,-23,60,1625449482.0,32.000000
-21,-16,59,1625449482.0,32.000000
-27,-13,58,1625449482.0,32.000000
-25,-12,57,1625449482.0,32.000000
-26,-15,55,1625449482.0,32.000000
-26,-16,55,1625449482.0,32.000000
-24,-17,55,1625449482.0,32.000000
-25,-16,55,1625449482.0,32.000000
-25,-15,56,1625449482.0,32.000000
-24,-16,56,1625449482.0,32.000000
-25,-17,55,1625449482.0,32.000000
-25,-17,55,1625449482.0,32.000000
-25,-16,55,1625449482.0,32.000000
-25,-16,55,1625449482.0,32.000000
-25,-17,55,1625449482.0,32.000000
-25,-16,55,1625449482.0,32.000000
-25,-16,55,1625449482.0,32.000000
-26,-16,55,1625449482.0,32.000000
-26,-15,55,1625449482.0,32.000000
-25,-15,56,1625449482.0,32.000000
-26,-15,56,1625449482.0,32.000000
-26,-15,55,1625449482.0,32.000000
-26,-14,56,1625449482.0,32.000000
-26,-14,56,1625449482.0,32.000000
-26,-15,56,1625449482.0,32.000000
-25,-16,55,1625449482.0,32.000000
-26,-16,55,1625449482.0,32.000000
-25,-17,55,1625449482.0,32.000000
-25,-16,56,1625449482.0,32.000000
-25,-16,55,1625449482.0,32.000000
-27,-15,55,1625449482.0,32.000000
-25,-15,56,1625449482.0,32.000000
-25,-15,56,1625449482.0,32.000000
-26,-15,56,1625449482.0,32.000000
-26,-15,56,1625449482.0,32.000000
-26,-16,55,1625449482.0,32.000000
-26,-16,55,1625449482.0,32.000000
-25,-15,55,1625449482.0,32.000000
-26,-16,55,1625449482.0,32.000000
-26,-16,55,1625449482.0,32.000000
-25,-15,56,1625449482.0,32.000000
-27,-15,56,1625449482.0,32.000000
-27,-18,54,1625449482.0,32.000000
-21,-15,58,1625449482.0,32.000000
-26,-15,59,1625449482.0,32.000000
-30,-23,60,1625449482.0,32.000000
-29,-19,58,1625449482.0,32.000000
-25,-14,54,1625449482.0,32.000000
-27,-20,58,1625449482.0,32.000000
-35,-26,61,1625449482.0,32.000000
-35,-23,61,1625449482.0,32.000000
-34,-21,57,1625449482.0,32.000000
-34,-22,54,1625449482.0,32.000000
-34,-17,51,1625449482.0,32.000000
-36,-19,50,1625449482.0,32.000000
-30,-15,52,1625449482.0,32.000000
-29,-12,54,1625449482.0,32.000000
-30,-11,55,1625449482.0,32.000000
-24,-7,55,1625449482.0,32.000000
-24,-5,54,1625449482.0,32.000000
-24,-3,55,1625449482.0,32.000000
-23,1,54,1625449482.0,32.000000
-20,3,52,1625449482.0,32.000000
-20,5,49,1625449482.0,32.000000
-31,4,53,1625449482.0,32.000000
-27,5,53,1625449482.0,32.000000
-18,6,51,1625449482.0,32.000000
-16,9,55,1625449482.0,32.000000
-31,6,54,1625449482.0,32.000000
-31,6,48,1625449482.0,32.000000
-26,5,48,1625449482.0,32.000000
-27,1,53,1625449482.0,32.000000
-31,-6,56,1625449482.0,32.000000
-27,-3,60,1625449482.0,32.000000
-28,-7,56,1625449482.0,32.000000
-32,-9,55,1625449482.0,32.000000
-30,-9,53,1625449482.0,32.000000
-32,-16,54,1625449482.0,32.000000
-27,-14,55,1625449482.0,32.000000
-26,-13,51,1625449482.0,32.000000
-32,-12,50,1625449482.0,32.000000
-30,-29,57,1625449482.0,32.000000
-26,-28,58,1625449482.0,32.000000
-23,-20,66,1625449482.0,32.000000
-28,-6,60,1625449482.0,32.000000
-25,-6,59,1625449482.0,32.000000
-30,-11,54,1625449482.0,32.000000
-25,-14,56,1625449482.0,32.000000
-21,-13,57,1625449482.0,32.000000
-27,-11,57,1625449482.0,32.000000
-32,-11,54,1625449482.0,32.000000
-31,-9,53,1625449482.0,32.000000
-26,-10,56,1625449482.0,32.000000
-24,-11,57,1625449482.0,32.000000
-25,-10,58,1625449482.0,32.000000
-29,-8,56,1625449482.0,32.000000
-29,-10,55,1625449482.0,32.000000
-27,-11,56,1625449482.0,32.000000
-26,-10,56,1625449482.0,32.000000
-26,-11,56,1625449482.0,32.000000
-27,-10,56,1625449482.0,32.000000
-28,-10,56,1625449482.0,32.000000
-28,-10,55,1625449482.0,32.000000
-26,-11,56,1625449482.0,32.000000
-26,-12,56,1625449482.0,32.000000
-29,-11,55,1625449482.0,32.000000
-30,-8,56,1625449482.0,32.000000
-23,-11,58,1625449482.0,32.000000
-29,-13,55,1625449482.0,32.000000
-26,-12,55,1625449482.0,32.000000
-22,-13,58,1625449482.0,32.000000
-22,-14,57,1625449482.0,32.000000
-23,-16,57,1625449482.0,32.000000
-27,-11,58,1625449482.0,32.000000
-28,-10,56,1625449482.0,32.000000
-25,-16,56,1625449482.0,32.000000
-26,-14,56,1625449482.0,32.000000
-25,-11,57,1625449482.0,32.000000
-27,-12,55,1625449482.0,32.000000
-27,-12,56,1625449482.0,32.000000
-26,-12,57,1625449482.0,32.000000
-26,-12,56,1625449482.0,32.000000
-26,-12,56,1625449482.0,32.000000
-26,-12,56,1625449482.0,32.000000
-26,-12,56,1625449482.0,32.000000
-27,-12,56,1625449482.0,32.000000
-27,-12,56,1625449482.0,32.000000
-26,-11,57,1625449482.0,32.000000
-26,-11,56,1625449482.0,32.000000
-27,-11,55,1625449482.0,32.000000
-27,-12,56,1625449482.0,32.000000
-26,-13,56,1625449482.0,32.000000
-26,-12,56,1625449482.0,32.000000
-26,-11,56,1625449482.0,32.000000
-25,-10,57,1625449482.0,32.000000
-23,-11,59,1625449482.0,32.000000
-25,-12,56,1625449482.0,32.000000
-25,-11,56,1625449482.0,32.000000
-24,-12,57,1625449482.0,32.000000
-26,-11,56,1625449482.0,32.000000
-23,-11,59,1625449482.0,32.000000
-25,-11,57,1625449482.0,32.000000
-25,-11,56,1625449482.0,32.000000
-23,-13,59,1625449482.0,32.000000
-26,-12,56,1625449482.0,32.000000
-26,-11,57,1625449482.0,32.000000
-26,-11,57,1625449482.0,32.000000
-26,-11,56,1625449482.0,32.000000
-26,-11,56,1625449482.0,32.000000
-23,-11,58,1625449482.0,32.000000
-24,-12,56,1625449482.0,32.000000
-27,-11,57,1625449482.0,32.000000
-26,-10,57,1625449482.0,32.000000
-25,-11,57,1625449482.0,32.000000
-23,-13,59,1625449482.0,32.000000
-24,-10,56,1625449482.0,32.000000
-25,-11,56,1625449482.0,32.000000
-25,-11,56,1625449482.0,32.000000
-27,-14,56,1625449482.0,32.000000
-28,-12,56,1625449482.0,32.000000
-25,-12,56,1625449482.0,32.000000
-24,-11,57,1625449482.0,32.000000
-26,-11,56,1625449482.0,32.000000
-26,-12,56,1625449482.0,32.000000
-26,-11,56,1625449482.0,32.000000
-26,-10,56,1625449482.0,32.000000
-26,-11,57,1625449482.0,32.000000
-25,-11,57,1625449482.0,32.000000
-25,-11,57,1625449482.0,32.000000
-26,-11,56,1625449482.0,32.000000
-26,-11,56,1625449482.0,32.000000
-26,-11,57,1625449482.0,32.000000
-26,-11,57,1625449482.0,32.000000
-26,-11,57,1625449482.0,32.000000
-26,-10,57,1625449482.0,32.000000
-25,-11,56,1625449482.0,32.000000
-25,-11,57,1625449482.0,32.000000
-25,-11,57,1625449482.0,32.000000
-25,-11,56,1625449482.0,32.000000
-25,-11,57,1625449482.0,32.000000
-26,-11,56,1625449482.0,32.000000
-26,-10,56,1625449482.0,32.000000
-26,-11,56,1625449482.0,32.000000
-25,-11,56,1625449482.0,32.000000
-26,-10,57,1625449482.0,32.000000
-26,-10,57,1625449482.0,32.000000
-26,-10,57,1625449482.0,32.000000
-26,-10,57,1625449482.0,32.000000
-26,-10,57,1625449482.0,32.000000
-26,-10,57,1625449482.0,32.000000
-26,-10,57,1625449482.0,32.000000
-26,-10,57,1625449482.0,32.000000
-26,-10,57,1625449482.0,32.000000
-26,-10,57,1625449482.0,32.000000
-26,-10,57,1625449482.0,32.000000
-26,-10,56,1625449482.0,32.000000
-26,-10,57,1625449482.0,32.000000
-26,-10,56,1625449482.0,32.000000
-26,-10,56,1625449482.0,32.000000
-26,-10,56,1625449482.0,32.000000
-26,-10,57,1625449482.0,32.000000
-26,-10,57,1625449482.0,32.000000
-26,-10,56,1625449482.0,32.000000
-26,-10,57,1625449482.0,32.000000
-26,-10,57,1625449482.0,32.000000
-26,-10,57,1625449482.0,32.000000
-26,-10,57,1625449482.0,32.000000
-25,-10,57,1625449482.0,32.000000
-26,-9,56,1625449482.0,32.000000
-26,-10,57,1625449482.0,32.000000
-26,-10,56,1625449482.0,32.000000
-26,-10,57,1625449482.0,32.000000
-26,-10,57,1625449482.0,32.000000
-26,-10,56,1625449482.0,32.000000
-26,-10,57,1625449482.0,32.000000
-26,-10,57,1625449482.0,32.000000
-26,-10,56,1625449482.0,32.000000
-26,-10,57,1625449482.0,32.000000
-26,-10,57,1625449482.0,32.000000
-26,-10,57,1625449482.0,32.000000
-26,-10,56,1625449482.0,32.000000
-26,-9,57,1625449482.0,32.000000
-26,-9,57,1625449482.0,32.000000
-26,-9,56,1625449482.0,32.000000
-26,-9,57,1625449482.0,32.000000
-26,-9,57,1625449482.0,32.000000
-26,-9,56,1625449482.0,32.000000
-26,-10,57,1625449482.0,32.000000
-26,-9,56,1625449482.0,32.000000
-26,-9,56,1625449482.0,32.000000
-26,-9,57,1625449482.0,32.000000
-26,-9,56,1625449482.0,32.000000
-26,-9,57,1625449482.0,32.000000
-26,-9,56,1625449482.0,32.000000
-26,-9,56,1625449482.0,32.000000
-26,-9,57,1625449482.0,32.000000
-26,-9,57,1625449482.0,32.000000
-26,-9,57,1625449482.0,32.000000
-26,-9,56,1625449482.0,32.000000
-26,-9,57,1625449482.0,32.000000
-26,-9,56,1625449482.0,32.000000
-26,-9,57,1625449482.0,32.000000
-26,-9,56,1625449482.0,32.000000
-27,-9,57,1625449482.0,32.000000
-26,-9,56,1625449482.0,32.000000
-27,-9,56,1625449482.0,32.000000
-27,-9,56,1625449482.0,32.000000
-27,-9,56,1625449482.0,32.000000
-26,-9,56,1625449482.0,32.000000
-27,-9,56,1625449482.0,32.000000
-27,-8,56,1625449482.0,32.000000
-27,-9,56,1625449482.0,32.000000
-27,-9,56,1625449482.0,32.000000
-27,-8,56,1625449482.0,32.000000
-27,-8,57,1625449482.0,32.000000
-27,-8,56,1625449482.0,32.000000
-27,-8,56,1625449482.0,32.000000
-27,-9,56,1625449482.0,32.000000
-27,-9,56,1625449482.0,32.000000
-27,-9,56,1625449482.0,32.000000
-27,-9,56,1625449482.0,32.000000
-27,-9,56,1625449482.0,32.000000
-27,-9,56,1625449482.0,32.000000
-27,-9,56,1625449482.0,32.000000
-27,-8,56,1625449482.0,32.000000
-27,-8,56,1625449482.0,32.000000
-27,-9,56,1625449482.0,32.000000
-27,-9,56,1625449482.0,32.000000
-27,-9,56,1625449482.0,32.000000
-27,-9,56,1625449482.0,32.000000
-27,-9,56,1625449482.0,32.000000
-27,-9,56,1625449482.0,32.000000
-27,-9,56,1625449482.0,32.000000
-27,-9,56,1625449482.0,32.000000
-27,-9,56,1625449482.0,32.000000
-27,-9,56,1625449482.0,32.000000
-27,-9,56,1625449482.0,32.000000
-27,-9,56,1625449482.0,32.000000
-27,-9,56,1625449482.0,32.000000
-26,-9,56,1625449482.0,32.000000
-27,-9,56,1625449482.0,32.000000
-27,-9,56,1625449482.0,32.000000
-27,-9,56,1625449482.0,32.000000
-27,-9,56,1625449482.0,32.000000
-27,-9,56,1625449482.0,32.000000
-27,-9,56,1625449482.0,32.000000
-27,-9,56,1625449482.0,32.000000
-27,-9,56,1625449482.0,32.000000
-27,-9,56,1625449482.0,32.000000
-27,-9,56,1625449482.0,32.000000
-27,-9,56,1625449482.0,32.000000
-27,-9,56,1625449482.0,32.000000
-27,-9,56,1625449482.0,32.000000
-27,-9,56,1625449482.0,32.000000
-27,-9,56,1625449482.0,32.000000
-27,-9,56,1625449482.0,32.000000
-27,-9,56,1625449482.0,32.000000
-27,-9,56,1625449482.0,32.000000
-27,-9,56,1625449482.0,32.000000
-27,-9,56,1625449482.0,32.000000
-27,-9,56,1625449482.0,32.000000
-27,-9,56,1625449482.0,32.000000
-27,-9,56,1625449482.0,32.000000
-27,-9,57,1625449482.0,32.000000
-27,-9,56,1625449482.0,32.000000
-27,-9,56,1625449482.0,32.000000
-27,-9,56,1625449482.0,32.000000
-27,-9,56,1625449482.0,32.000000
-27,-9,57,1625449482.0,32.000000
-27,-9,56,1625449482.0,32.000000
-27,-9,56,1625449482.0,32.000000
-27,-9,56,1625449482.0,32.000000
-27,-9,56,1625449482.0,32.000000
-27,-9,56,1625449482.0,32.000000
-27,-9,56,1625449482.0,32.000000
-27,-9,56,1625449482.0,32.000000
-27,-9,56,1625449482.0,32.000000
-27,-9,56,1625449482.0,32.000000
-27,-9,56,1625449482.0,32.000000
-27,-9,56,1625449482.0,32.000000
-27,-8,56,1625449482.0,32.000000
-27,-8,57,1625449482.0,32.000000
-27,-8,56,1625449482.0,32.000000
-27,-8,56,1625449482.0,32.000000
-27,-9,56,1625449482.0,32.000000
-27,-8,56,1625449482.0,32.000000
-27,-8,56,1625449482.0,32.000000
-27,-9,56,1625449482.0,32.000000
-27,-9,56,1625449482.0,32.000000
-27,-8,56,1625449482.0,32.000000
-27,-8,56,1625449482.0,32.000000
-27,-8,56,1625449482.0,32.000000
-27,-9,56,1625449482.0,32.000000
-27,-9,57,1625449482.0,32.000000
-26,-8,56,1625449482.0,32.000000
-27,-9,56,1625449482.0,32.000000
-27,-9,56,1625449482.0,32.000000
-27,-9,56,1625449482.0,32.000000
-27,-9,56,1625449482.0,32.000000
-27,-8,56,1625449482.0,32.000000
-27,-8,56,1625449482.0,32.000000
-27,-8,56,1625449482.0,32.000000
-27,-8,56,1625449482.0,32.000000
-27,-8,56,1625449482.0,32.000000
-27,-8,56,1625449482.0,32.000000
-27,-8,56,1625449482.0,32.000000
-27,-8,56,1625449482.0,32.000000
-27,-8,56,1625449482.0,32.000000
-27,-8,56,1625449482.0,32.000000
-27,-8,56,1625449482.0,32.000000
-27,-8,56,1625449482.0,32.000000
-27,-8,56,1625449482.0,32.000000
-27,-8,56,1625449482.0,32.000000
-27,-8,57,1625449482.0,32.000000
-27,-8,56,1625449482.0,32.000000
-27,-8,56,1625449482.0,32.000000
-27,-8,56,1625449482.0,32.000000
-27,-8,56,1625449482.0,32.000000
-27,-8,56,1625449482.0,32.000000
-27,-8,56,1625449482.0,32.000000
-27,-8,56,1625449482.0,32.000000
-27,-8,56,1625449482.0,32.000000
-27,-8,56,1625449482.0,32.000000
-27,-8,56,1625449482.0,32.000000
-27,-8,56,1625449482.0,32.000000
-27,-8,56,1625449482.0,32.000000
-27,-8,56,1625449482.0,32.000000
-27,-8,56,1625449482.0,32.000000
-27,-8,56,1625449482.0,32.000000
-27,-8,56,1625449482.0,32.000000
-27,-8,56,1625449482.0,32.000000
-27,-8,56,1625449482.0,32.000000
-27,-8,57,1625449482.0,32.000000
-27,-8,56,1625449482.0,32.000000
-27,-8,56,1625449482.0,32.000000
-27,-8,56,1625449482.0,32.000000
-26,-8,57,1625449482.0,32.000000
-27,-8,56,1625449482.0,32.000000
-27,-7,56,1625449482.0,32.000000
-27,-7,56,1625449482.0,32.000000
-27,-7,56,1625449482.0,32.000000
-27,-8,57,1625449482.0,32.000000
-27,-8,56,1625449482.0,32.000000
-27,-8,56,1625449482.0,32.000000
-27,-8,56,1625449482.0,32.000000
-27,-7,56,1625449482.0,32.000000
-27,-8,56,1625449482.0,32.000000
-28,-7,56,1625449482.0,32.000000
-28,-7,56,1625449482.0,32.000000
-27,-7,56,1625449482.0,32.000000
-27,-7,56,1625449482.0,32.000000
-27,-7,56,1625449482.0,32.000000
-27,-7,56,1625449482.0,32.000000
-27,-7,56,1625449482.0,32.000000
-27,-7,56,1625449482.0,32.000000
-27,-7,56,1625449482.0,32.000000
-28,-7,56,1625449482.0,32.000000
-27,-7,56,1625449482.0,32.000000
-27,-7,56,1625449482.0,32.000000
-28,-7,56,1625449482.0,32.000000
-27,-7,56,1625449482.0,32.000000
-27,-7,56,1625449482.0,32.000000
-27,-7,56,1625449482.0,32.000000
-27,-7,56,1625449482.0,32.000000
-27,-7,56,1625449482.0,32.000000
-27,-7,56,1625449482.0,32.000000
-28,-7,56,1625449482.0,32.000000
-28,-7,56,1625449482.0,32.000000
-27,-7,56,1625449482.0,32.000000
-27,-7,56,1625449482.0,32.000000
-28,-8,56,1625449482.0,32.000000
-28,-7,56,1625449482.0,32.000000
-28,-7,56,1625449482.0,32.000000
-27,-7,56,1625449482.0,32.000000
-27,-7,56,1625449482.0,32.000000
-27,-7,57,1625449482.0,32.000000
-27,-7,57,1625449482.0,32.000000
-27,-7,57,1625449482.0,32.000000
-27,-8,56,1625449482.0,32.000000
-28,-9,57,1625449482.0,32.000000
-30,-8,54,1625449482.0,32.000000
-27,-8,56,1625449482.0,32.000000
-28,-8,55,1625449482.0,32.000000
-29,-8,55,1625449482.0,32.000000
-29,-9,56,1625449482.0,32.000000
-28,-8,55,1625449482.0,32.000000
-29,-8,55,1625449482.0,32.000000
-29,-9,56,1625449482.0,32.000000
-31,-8,53,1625449482.0,32.000000
-28,-9,56,1625449482.0,32.000000
-20,-9,62,1625449482.0,32.000000
-35,-9,54,1625449482.0,32.000000
-26,-10,56,1625449482.0,32.000000
-28,-8,56,1625449482.0,32.000000
-30,-9,55,1625449482.0,32.000000
-29,-8,55,1625449482.0,32.000000
-28,-10,55,1625449482.0,32.000000
-31,-11,58,1625449482.0,32.000000
-20,-10,57,1625449482.0,32.000000
-34,-10,54,1625449482.0,32.000000
-29,-6,52,1625449482.0,32.000000
-25,-6,57,1625449482.0,32.000000
-29,-11,56,1625449482.0,32.000000
-30,-9,53,1625449482.0,32.000000
-28,-9,56,1625449482.0,32.000000
-28,-10,55,1625449482.0,32.000000
-31,-7,54,1625449482.0,32.000000
-21,-3,60,1625449482.0,32.000000
-26,-8,57,1625449482.0,32.000000
-30,-6,54,1625449482.0,32.000000
-29,-9,57,1625449482.0,32.000000
-28,-7,54,1625449482.0,32.000000
-29,-10,55,1625449482.0,32.000000
-27,-10,55,1625449482.0,32.000000
-32,-7,53,1625449482.0,32.000000
-21,-8,61,1625449482.0,32.000000
-25,-4,56,1625449482.0,32.000000
-28,-10,56,1625449482.0,32.000000
-25,-8,57,1625449482.0,32.000000
-30,-9,55,1625449482.0,32.000000
-29,-9,56,1625449482.0,32.000000
-28,-9,56,1625449482.0,32.000000
-30,-8,55,1625449482.0,32.000000
-24,-10,61,1625449482.0,32.000000
-23,-3,57,1625449482.0,32.000000
-30,-7,55,1625449482.0,32.000000
-28,-8,55,1625449482.0,32.000000
-27,-7,56,1625449482.0,32.000000
-30,-9,55,1625449482.0,32.000000
-28,-8,55,1625449482.0,32.000000
-29,-8,56,1625449482.0,32.000000
-27,-7,57,1625449482.0,32.000000
-28,-6,56,1625449482.0,32.000000
-30,-7,55,1625449482.0,32.000000
-28,-7,56,1625449482.0,32.000000
-28,-7,56,1625449482.0,32.000000
-28,-8,56,1625449482.0,32.000000
-28,-7,56,1625449482.0,32.000000
-29,-7,56,1625449482.0,32.000000
-29,-7,55,1625449482.0,32.000000
-28,-7,56,1625449482.0,32.000000
-28,-7,56,1625449482.0,32.000000
-28,-7,56,1625449482.0,32.000000
-29,-7,56,1625449482.0,32.000000
-29,-7,56,1625449482.0,32.000000
-29,-7,56,1625449482.0,32.000000
-29,-7,56,1625449482.0,32.000000
-29,-7,56,1625449482.0,32.000000
-28,-7,56,1625449482.0,32.000000
-29,-7,55,1625449482.0,32.000000
-29,-7,56,1625449482.0,32.000000
-28,-7,56,1625449482.0,32.000000
-28,-7,56,1625449482.0,32.000000
-28,-7,56,1625449482.0,32.000000
-29,-7,56,1625449482.0,32.000000
-29,-7,56,1625449482.0,32.000000
-29,-7,56,1625449482.0,32.000000
-29,-7,56,1625449482.0,32.000000
-28,-7,56,1625449482.0,32.000000
-29,-7,56,1625449482.0,32.000000
-29,-7,56,1625449482.0,32.000000
-29,-7,56,1625449482.0,32.000000
-29,-7,56,1625449482.0,32.000000
-28,-7,56,1625449482.0,32.000000
-28,-7,56,1625449482.0,32.000000
-28,-7,56,1625449482.0,32.000000
-29,-7,55,1625449482.0,32.000000
-28,-7,56,1625449482.0,32.000000
-29,-7,56,1625449482.0,32.000000
-29,-7,56,1625449482.0,32.000000
-28,-6,56,1625449482.0,32.000000
-28,-6,56,1625449482.0,32.000000
-28,-7,55,1625449482.0,32.000000
-29,-7,56,1625449482.0,32.000000
-29,-7,56,1625449482.0,32.000000
-28,-7,56,1625449482.0,32.000000
-28,-7,56,1625449482.0,32.000000
-28,-7,56,1625449482.0,32.000000
-28,-7,56,1625449482.0,32.000000
-28,-7,56,1625449482.0,32.000000
-29,-7,56,1625449482.0,32.000000
-29,-7,56,1625449482.0,32.000000
-29,-7,56,1625449482.0,32.000000
-29,-7,56,1625449482.0,32.000000
-29,-7,56,1625449482.0,32.000000
-28,-7,56,1625449482.0,32.000000
-28,-7,56,1625449482.0,32.000000
-29,-7,56,1625449482.0,32.000000
-29,-7,56,1625449482.0,32.000000
-29,-7,56,1625449482.0,32.000000
-29,-7,56,1625449482.0,32.000000
-29,-7,56,1625449482.0,32.000000
-29,-7,56,1625449482.0,32.000000
-29,-7,56,1625449482.0,32.000000
-29,-7,56,1625449482.0,32.000000
-28,-7,55,1625449482.0,32.000000
-28,-7,56,1625449482.0,32.000000
-28,-7,56,1625449482.0,32.000000
-29,-7,56,1625449482.0,32.000000
-29,-7,56,1625449482.0,32.000000
-29,-7,56,1625449482.0,32.000000
-29,-7,56,1625449482.0,32.000000
-29,-7,56,1625449482.0,32.000000
-29,-7,56,1625449482.0,32.000000
-28,-7,56,1625449482.0,32.000000
-29,-7,56,1625449482.0,32.000000
-29,-7,56,1625449482.0,32.000000
-29,-7,56,1625449482.0,32.000000
-28,-7,56,1625449482.0,32.000000
-29,-7,56,1625449482.0,32.000000
-29,-7,56,1625449482.0,32.000000
-28,-7,56,1625449482.0,32.000000
-29,-7,55,1625449482.0,32.000000
-29,-7,56,1625449482.0,32.000000
-28,-6,56,1625449482.0,32.000000
-29,-6,55,1625449482.0,32.000000
-28,-7,56,1625449482.0,32.000000
-28,-7,56,1625449482.0,32.000000
-29,-7,56,1625449482.0,32.000000
-29,-7,56,1625449482.0,32.000000
-29,-6,56,1625449482.0,32.000000
-29,-7,56,1625449482.0,32.000000
-28,-6,56,1625449482.0,32.000000
-28,-6,55,1625449482.0,32.000000
-29,-6,56,1625449482.0,32.000000
-28,-7,56,1625449482.0,32.000000
-29,-7,56,1625449482.0,32.000000
-29,-7,56,1625449482.0,32.000000
-28,-7,56,1625449482.0,32.000000
-29,-7,56,1625449482.0,32.000000
-29,-6,56,1625449482.0,32.000000
-29,-7,56,1625449482.0,32.000000
-29,-7,56,1625449482.0,32.000000
-28,-7,56,1625449482.0,32.000000
-29,-7,56,1625449482.0,32.000000
-29,-6,56,1625449482.0,32.000000
-29,-7,56,1625449482.0,32.000000
-28,-7,56,1625449482.0,32.000000
-29,-7,56,1625449482.0,32.000000
-28,-7,56,1625449482.0,32.000000
-29,-7,56,1625449482.0,32.000000
-29,-7,56,1625449482.0,32.000000
-28,-7,56,1625449482.0,32.000000
-29,-7,56,1625449482.0,32.000000
-29,-7,56,1625449482.0,32.000000
-28,-7,56,1625449482.0,32.000000
-28,-6,56,1625449482.0,32.000000
-29,-7,56,1625449482.0,32.000000
-29,-7,56,1625449482.0,32.000000
-29,-6,55,1625449482.0,32.000000
-29,-7,56,1625449482.0,32.000000
-29,-7,56,1625449482.0,32.000000
-29,-7,56,1625449482.0,32.000000
-28,-7,55,1625449482.0,32.000000
-29,-6,56,1625449482.0,32.000000
-29,-7,56,1625449482.0,32.000000
-28,-7,56,1625449482.0,32.000000
-28,-6,56,1625449482.0,32.000000
-29,-7,56,1625449482.0,32.000000
-29,-7,56,1625449482.0,32.000000
-29,-7,56,1625449482.0,32.000000
-28,-7,56,1625449482.0,32.000000
-28,-7,56,1625449482.0,32.000000
-29,-7,56,1625449482.0,32.000000
-28,-7,56,1625449482.0,32.000000
-28,-7,55,1625449482.0,32.000000
-29,-7,56,1625449482.0,32.000000
-29,-7,56,1625449482.0,32.000000
-29,-7,56,1625449482.0,32.000000
-29,-7,56,1625449482.0,32.000000
-29,-7,56,1625449482.0,32.000000
-29,-7,56,1625449482.0,32.000000
-28,-7,56,1625449482.0,32.000000
-28,-7,56,1625449482.0,32.000000
-28,-7,56,1625449482.0,32.000000
-28,-5,56,1625449482.0,32.000000
-31,-10,55,1625449482.0,32.000000
-26,-6,56,1625449482.0,32.000000
-30,-9,55,1625449482.0,32.000000
-31,-8,54,1625449482.0,32.000000
-29,-9,56,1625449482.0,32.000000
-29,-9,56,1625449482.0,32.000000
-30,-8,55,1625449482.0,32.000000
-32,-7,54,1625449482.0,32.000000
-31,-7,54,1625449482.0,32.000000
-30,-7,55,1625449482.0,32.000000
-30,-8,55,1625449482.0,32.000000
-29,-8,55,1625449482.0,32.000000
-30,-8,55,1625449482.0,32.000000
-29,-9,55,1625449482.0,32.000000
-29,-9,55,1625449482.0,32.000000
-32,-9,53,1625449482.0,32.000000
-33,-8,53,1625449482.0,32.000000
-35,-7,52,1625449482.0,32.000000
-34,-8,53,1625449482.0,32.000000
-31,-9,54,1625449482.0,32.000000
-35,-6,52,1625449482.0,32.000000
-32,-6,54,1625449482.0,32.000000
-27,-9,57,1625449482.0,32.000000
-30,-6,55,1625449482.0,32.000000
-32,-8,54,1625449482.0,32.000000
-31,-7,54,1625449482.0,32.000000
-31,-7,54,1625449482.0,32.000000
-31,-7,54,1625449482.0,32.000000
-32,-7,54,1625449482.0,32.000000
-32,-8,54,1625449482.0,32.000000
-31,-6,54,1625449482.0,32.000000
-32,-7,54,1625449482.0,32.000000
-30,-8,56,1625449482.0,32.000000
-28,-3,55,1625449482.0,32.000000
-34,-8,54,1625449482.0,32.000000
-31,-6,54,1625449482.0,32.000000
-30,-6,55,1625449482.0,32.000000
-31,-6,54,1625449482.0,32.000000
-31,-6,54,1625449482.0,32.000000
-31,-6,55,1625449482.0,32.000000
-31,-6,55,1625449482.0,32.000000
-31,-6,55,1625449482.0,32.000000
-31,-6,55,1625449482.0,32.000000
-31,-6,54,1625449482.0,32.000000
-31,-6,55,1625449482.0,32.000000
-31,-6,55,1625449482.0,32.000000
-31,-6,54,1625449482.0,32.000000
-32,-5,54,1625449482.0,32.000000
-28,-4,57,1625449482.0,32.000000
-33,-7,53,1625449482.0,32.000000
-29,-5,54,1625449482.0,32.000000
-25,-7,58,1625449482.0,32.000000
-28,-6,56,1625449482.0,32.000000
-26,-8,57,1625449482.0,32.000000
-31,-9,54,1625449482.0,32.000000
-30,-5,55,1625449482.0,32.000000
-33,-12,56,1625449482.0,32.000000
-27,-1,54,1625449482.0,32.000000
-32,-6,55,1625449482.0,32.000000
-30,-7,55,1625449482.0,32.000000
-30,-6,55,1625449482.0,32.000000
-31,-6,55,1625449482.0,32.000000
-31,-6,55,1625449482.0,32.000000
-31,-6,55,1625449482.0,32.000000
-31,-6,55,1625449482.0,32.000000
-31,-6,55,1625449482.0,32.000000
-31,-6,55,1625449482.0,32.000000
-31,-6,55,1625449482.0,32.000000
-31,-6,55,1625449482.0,32.000000
-31,-6,55,1625449482.0,32.000000
-30,-6,55,1625449482.0,32.000000
-31,-6,55,1625449482.0,32.000000
-30,-6,55,1625449482.0,32.000000
-31,-6,54,1625449482.0,32.000000
-31,-6,55,1625449482.0,32.000000
-30,-6,55,1625449482.0,32.000000
-31,-5,55,1625449482.0,32.000000
-31,-5,55,1625449482.0,32.000000
-31,-4,56,1625449482.0,32.000000
-29,-7,55,1625449482.0,32.000000
-31,-6,54,1625449482.0,32.000000
-30,-6,55,1625449482.0,32.000000
-28,-7,56,1625449482.0,32.000000
-30,-6,55,1625449482.0,32.000000
-29,-6,55,1625449482.0,32.000000
-30,-6,55,1625449482.0,32.000000
-29,-6,56,1625449482.0,32.000000
-32,-5,55,1625449482.0,32.000000
-33,-4,54,1625449482.0,32.000000
-26,-6,57,1625449482.0,32.000000
-30,-7,55,1625449482.0,32.000000
-30,-7,55,1625449482.0,32.000000
-28,-6,56,1625449482.0,32.000000
-27,-6,56,1625449482.0,32.000000
-27,-6,56,1625449482.0,32.000000
-27,-7,56,1625449482.0,32.000000
-27,-5,56,1625449482.0,32.000000
-26,-6,58,1625449482.0,32.000000
-27,-9,57,1625449482.0,32.000000
-26,-4,56,1625449482.0,32.000000
-29,-6,56,1625449482.0,32.000000
-28,-5,56,1625449482.0,32.000000
-26,-6,58,1625449482.0,32.000000
-27,-6,57,1625449482.0,32.000000
-28,-5,56,1625449482.0,32.000000
-30,-7,55,1625449482.0,32.000000
-31,-7,55,1625449482.0,32.000000
-30,-7,55,1625449482.0,32.000000
-30,-6,55,1625449482.0,32.000000
-31,-5,54,1625449482.0,32.000000
-26,-6,57,1625449482.0,32.000000
-31,-7,55,1625449482.0,32.000000
-30,-4,55,1625449482.0,32.000000
-30,-6,55,1625449482.0,32.000000
-30,-6,55,1625449482.0,32.000000
-30,-6,55,1625449482.0,32.000000
-29,-6,56,1625449482.0,32.000000
-29,-5,56,1625449482.0,32.000000
-30,-6,55,1625449482.0,32.000000
-30,-6,55,1625449482.0,32.000000
-29,-5,56,1625449482.0,32.000000
-29,-5,55,1625449482.0,32.000000
-29,-5,55,1625449482.0,32.000000
-29,-5,55,1625449482.0,32.000000
-29,-5,55,1625449482.0,32.000000
-30,-5,55,1625449482.0,32.000000
-30,-5,55,1625449482.0,32.000000
-29,-5,55,1625449482.0,32.000000
-29,-6,55,1625449482.0,32.000000
-29,-5,55,1625449482.0,32.000000
-29,-5,55,1625449482.0,32.000000
-30,-5,55,1625449482.0,32.000000
-30,-5,55,1625449482.0,32.000000
-30,-5,55,1625449482.0,32.000000
-29,-5,55,1625449482.0,32.000000
-30,-5,55,1625449482.0,32.000000
-30,-5,56,1625449482.0,32.000000
-30,-5,55,1625449482.0,32.000000
-29,-5,55,1625449482.0,32.000000
-29,-5,55,1625449482.0,32.000000
-29,-5,55,1625449482.0,32.000000
-30,-5,55,1625449482.0,32.000000
-29,-5,55,1625449482.0,32.000000
-30,-5,55,1625449482.0,32.000000
-30,-5,55,1625449482.0,32.000000
-30,-5,55,1625449482.0,32.000000
-30,-5,55,1625449482.0,32.000000
-30,-5,55,1625449482.0,32.000000
-29,-5,55,1625449482.0,32.000000
-30,-5,56,1625449482.0,32.000000
-30,-5,55,1625449482.0,32.000000
-30,-5,55,1625449482.0,32.000000
-30,-5,55,1625449482.0,32.000000
-29,-5,55,1625449482.0,32.000000
-30,-5,55,1625449482.0,32.000000
-30,-5,55,1625449482.0,32.000000
-30,-5,55,1625449482.0,32.000000
-30,-5,55,1625449482.0,32.000000
-30,-5,55,1625449482.0,32.000000
-30,-5,56,1625449482.0,32.000000
-29,-5,55,1625449482.0,32.000000
-30,-5,55,1625449482.0,32.000000
-30,-5,55,1625449482.0,32.000000
-30,-5,55,1625449482.0,32.000000
-29,-5,56,1625449482.0,32.000000
-30,-5,55,1625449482.0,32.000000
-30,-6,55,1625449482.0,32.000000
-30,-5,55,1625449482.0,32.000000
-29,-5,55,1625449482.0,32.000000
-30,-5,55,1625449482.0,32.000000
-30,-5,55,1625449482.0,32.000000
-30,-5,55,1625449482.0,32.000000
-29,-5,55,1625449482.0,32.000000
-30,-5,55,1625449482.0,32.000000
-30,-5,55,1625449482.0,32.000000
-29,-5,55,1625449482.0,32.000000
-30,-5,55,1625449482.0,32.000000
-29,-5,55,1625449482.0,32.000000
-30,-4,55,1625449482.0,32.000000
-30,-6,56,1625449482.0,32.000000
-29,-5,55,1625449482.0,32.000000
-29,-5,55,1625449482.0,32.000000
-29,-5,55,1625449482.0,32.000000
-30,-5,56,1625449482.0,32.000000
-30,-5,55,1625449482.0,32.000000
-30,-5,55,1625449482.0,32.000000
-30,-5,55,1625449482.0,32.000000
-30,-6,55,1625449482.0,32.000000
-29,-5,55,1625449482.0,32.000000
-30,-5,55,1625449482.0,32.000000
-30,-5,55,1625449482.0,32.000000
-30,-5,55,1625449482.0,32.000000
-30,-6,55,1625449482.0,32.000000
-29,-6,55,1625449482.0,32.000000
-30,-5,55,1625449482.0,32.000000
-30,-5,55,1625449482.0,32.000000
-30,-6,55,1625449482.0,32.000000
-30,-6,55,1625449482.0,32.000000
-29,-6,55,1625449482.0,32.000000
-30,-6,55,1625449482.0,32.000000
-30,-6,55,1625449482.0,32.000000
-30,-6,55,1625449482.0,32.000000
-30,-6,55,1625449482.0,32.000000
-30,-6,55,1625449482.0,32.000000
-29,-6,55,1625449482.0,32.000000
-30,-6,56,1625449482.0,32.000000
-30,-6,55,1625449482.0,32.000000
-29,-6,55,1625449482.0,32.000000
-30,-6,55,1625449482.0,32.000000
-30,-6,55,1625449482.0,32.000000
-29,-6,55,1625449482.0,32.000000
-30,-6,55,1625449482.0,32.000000
-30,-6,55,1625449482.0,32.000000
-30,-6,55,1625449482.0,32.000000
-30,-6,55,1625449482.0,32.000000
-30,-6,55,1625449482.0,32.000000
-30,-6,55,1625449482.0,32.000000
-30,-6,55,1625449482.0,32.000000
-30,-6,55,1625449482.0,32.000000
-30,-6,55,1625449482.0,32.000000
-30,-6,55,1625449482.0,32.000000
-30,-6,55,1625449482.0,32.000000
-29,-6,56,1625449482.0,32.000000
-30,-6,55,1625449482.0,32.000000
-30,-6,55,1625449482.0,32.000000
-31,-6,55,1625449482.0,32.000000
-30,-5,55,1625449482.0,32.000000
-29,-6,56,1625449482.0,32.000000
-28,-7,56,1625449482.0,32.000000
-29,-6,55,1625449482.0,32.000000
-30,-5,55,1625449482.0,32.000000
-30,-5,55,1625449482.0,32.000000
-27,-4,56,1625449482.0,32.000000
-29,-6,56,1625449482.0,32.000000
-29,-6,56,1625449482.0,32.000000
-29,-6,55,1625449482.0,32.000000
-30,-6,55,1625449482.0,32.000000
-28,-5,56,1625449482.0,32.000000
-27,-7,58,1625449482.0,32.000000
-26,-4,56,1625449482.0,32.000000
-28,-4,56,1625449482.0,32.000000
-28,-5,56,1625449482.0,32.000000
-27,-7,58,1625449482.0,32.000000
-30,-8,55,1625449482.0,32.000000
-29,-5,55,1625449482.0,32.000000
-28,-6,56,1625449482.0,32.000000
-29,-6,56,1625449482.0,32.000000
-29,-6,55,1625449482.0,32.000000
-29,-6,56,1625449482.0,32.000000
-29,-5,56,1625449482.0,32.000000
-30,-6,55,1625449482.0,32.000000
-29,-6,56,1625449482.0,32.000000
-29,-6,56,1625449482.0,32.000000
-30,-6,55,1625449482.0,32.000000
-30,-6,55,1625449482.0,32.000000
-29,-6,55,1625449482.0,32.000000
-29,-5,56,1625449482.0,32.000000
-30,-5,55,1625449482.0,32.000000
-30,-6,56,1625449482.0,32.000000
-29,-6,55,1625449482.0,32.000000
-30,-5,55,1625449482.0,32.000000
-29,-6,55,1625449482.0,32.000000
-30,-6,55,1625449482.0,32.000000
-30,-5,55,1625449482.0,32.000000
-30,-6,55,1625449482.0,32.000000
-29,-5,55,1625449482.0,32.000000
-30,-5,55,1625449482.0,32.000000
-30,-5,55,1625449482.0,32.000000
-30,-6,55,1625449482.0,32.000000
-30,-5,55,1625449482.0,32.000000
-30,-5,55,1625449482.0,32.000000
-30,-6,55,1625449482.0,32.000000
-30,-5,55,1625449482.0,32.000000
-29,-5,56,1625449482.0,32.000000
-30,-5,55,1625449482.0,32.000000
-30,-5,55,1625449482.0,32.000000
-30,-5,55,1625449482.0,32.000000
-30,-5,56,1625449482.0,32.000000
-30,-5,55,1625449482.0,32.000000
-29,-5,55,1625449482.0,32.000000
-29,-6,55,1625449482.0,32.000000
-30,-5,55,1625449482.0,32.000000
-29,-5,55,1625449482.0,32.000000
-30,-5,55,1625449482.0,32.000000
-29,-5,56,1625449482.0,32.000000
-28,-4,56,1625449482.0,32.000000
-30,-5,55,1625449482.0,32.000000
-30,-5,55,1625449482.0,32.000000
-28,-7,57,1625449482.0,32.000000
-30,-6,55,1625449482.0,32.000000
-31,-6,55,1625449482.0,32.000000
-29,-6,56,1625449482.0,32.000000
-30,-5,55,1625449482.0,32.000000
-30,-5,55,1625449482.0,32.000000
-30,-5,55,1625449482.0,32.000000
-30,-5,55,1625449482.0,32.000000
-29,-5,55,1625449482.0,32.000000
-29,-5,56,1625449482.0,32.000000
-29,-5,55,1625449482.0,32.000000
-30,-5,55,1625449482.0,32.000000
-29,-5,55,1625449482.0,32.000000
-30,-5,55,1625449482.0,32.000000
-30,-5,55,1625449482.0,32.000000
-29,-5,55,1625449482.0,32.000000
-29,-5,55,1625449482.0,32.000000
-30,-5,55,1625449482.0,32.000000
-30,-5,55,1625449482.0,32.000000
-30,-5,55,1625449482.0,32.000000
-29,-5,55,1625449482.0,32.000000
-29,-6,55,1625449482.0,32.000000
-30,-5,55,1625449482.0,32.000000
-29,-5,55,1625449482.0,32.000000
-29,-5,55,1625449482.0,32.000000
-30,-5,55,1625449482.0,32.000000
-30,-5,56,1625449482.0,32.000000
-30,-6,56,1625449482.0,32.000000
-29,-5,55,1625449482.0,32.000000
-29,-5,56,1625449482.0,32.000000
-30,-5,55,1625449482.0,32.000000
-30,-5,55,1625449482.0,32.000000
-29,-5,55,1625449482.0,32.000000
-30,-5,55,1625449482.0,32.000000
-30,-5,55,1625449482.0,32.000000
-29,-5,55,1625449482.0,32.000000
-30,-5,55,1625449482.0,32.000000
-29,-5,55,1625449482.0,32.000000
-30,-5,55,1625449482.0,32.000000
-29,-5,55,1625449482.0,32.000000
-29,-5,55,1625449482.0,32.000000
-30,-5,55,1625449482.0,32.000000
-29,-5,55,1625449482.0,32.000000
-30,-6,55,1625449482.0,32.000000
-30,-5,55,1625449482.0,32.000000
-29,-5,55,1625449482.0,32.000000
-30,-5,56,1625449482.0,32.000000
-30,-5,55,1625449482.0,32.000000
-30,-5,55,1625449482.0,32.000000
-30,-5,55,1625449482.0,32.000000
-29,-5,55,1625449482.0,32.000000
-29,-5,55,1625449482.0,32.000000
-29,-5,55,1625449482.0,32.000000
-30,-5,55,1625449482.0,32.000000
-30,-5,55,1625449482.0,32.000000
-29,-5,55,1625449482.0,32.000000
-29,-5,56,1625449482.0,32.000000
-29,-5,55,1625449482.0,32.000000
-30,-5,55,1625449482.0,32.000000
-30,-5,55,1625449482.0,32.000000
-29,-5,55,1625449482.0,32.000000
-30,-6,55,1625449482.0,32.000000
-29,-5,55,1625449482.0,32.000000
-30,-6,55,1625449482.0,32.000000
-30,-6,55,1625449482.0,32.000000
-29,-5,55,1625449482.0,32.000000
-29,-6,55,1625449482.0,32.000000
-29,-5,55,1625449482.0,32.000000
-29,-6,55,1625449482.0,32.000000
-30,-5,56,1625449482.0,32.000000
-28,-6,56,1625449482.0,32.000000
-30,-6,55,1625449482.0,32.000000
-29,-6,55,1625449482.0,32.000000
-28,-5,56,1625449482.0,32.000000
-29,-6,56,1625449482.0,32.000000
-29,-5,56,1625449482.0,32.000000
-30,-7,54,1625449482.0,32.000000
-30,-11,57,1625449482.0,32.000000
-33,-11,55,1625449482.0,32.000000
-29,-7,55,1625449482.0,32.000000
-29,-5,56,1625449482.0,32.000000
-30,-6,55,1625449482.0,32.000000
-29,-6,55,1625449482.0,32.000000
-29,-6,55,1625449482.0,32.000000
-27,-5,57,1625449482.0,32.000000
-29,-6,56,1625449482.0,32.000000
-30,-6,55,1625449482.0,32.000000
-28,-6,56,1625449482.0,32.000000
-28,-5,57,1625449482.0,32.000000
-31,-5,55,1625449482.0,32.000000
-34,-12,52,1625449482.0,32.000000
-34,-10,54,1625449482.0,32.000000
-30,-7,55,1625449482.0,32.000000
-28,-6,56,1625449482.0,32.000000
-30,-6,55,1625449482.0,32.000000
-29,-7,55,1625449482.0,32.000000
-29,-6,55,1625449482.0,32.000000
-29,-6,56,1625449482.0,32.000000
-27,-4,57,1625449482.0,32.000000
-31,-6,54,1625449482.0,32.000000
-28,-6,57,1625449482.0,32.000000
-28,-6,57,1625449482.0,32.000000
-29,-5,56,1625449482.0,32.000000
-30,-5,55,1625449482.0,32.000000
-22,-3,60,1625449482.0,32.000000
-29,-5,55,1625449482.0,32.000000
-30,-7,55,1625449482.0,32.000000
-29,-6,56,1625449482.0,32.000000
-30,-6,55,1625449482.0,32.000000
-29,-6,56,1625449482.0,32.000000
-30,-7,56,1625449482.0,32.000000
-28,-5,56,1625449482.0,32.000000
-29,-6,56,1625449482.0,32.000000
-30,-6,55,1625449482.0,32.000000
-28,-6,56,1625449482.0,32.000000
-29,-4,56,1625449482.0,32.000000
-31,-6,54,1625449482.0,32.000000
-22,1,57,1625449482.0,32.000000
-29,-3,55,1625449482.0,32.000000
-30,-8,55,1625449482.0,32.000000
-30,-6,56,1625449482.0,32.000000
-30,-6,55,1625449482.0,32.000000
-29,-6,55,1625449482.0,32.000000
-30,-6,55,1625449482.0,32.000000
-30,-5,55,1625449482.0,32.000000
-29,-6,55,1625449482.0,32.000000
-30,-6,55,1625449482.0,32.000000
-29,-6,55,1625449482.0,32.000000
-30,-6,55,1625449482.0,32.000000
-30,-6,55,1625449482.0,32.000000
-30,-6,55,1625449482.0,32.000000
-30,-6,56,1625449482.0,32.000000
-29,-6,55,1625449482.0,32.000000
-29,-6,55,1625449482.0,32.000000
-30,-5,55,1625449482.0,32.000000
-29,-5,56,1625449482.0,32.000000
-30,-5,56,1625449482.0,32.000000
-29,-5,55,1625449482.0,32.000000
-29,-5,56,1625449482.0,32.000000
-29,-5,55,1625449482.0,32.000000
-29,-5,55,1625449482.0,32.000000
-30,-5,55,1625449482.0,32.000000
-30,-5,55,1625449482.0,32.000000
-30,-6,55,1625449482.0,32.000000
-30,-5,55,1625449482.0,32.000000
-30,-5,55,1625449482.0,32.000000
-30,-5,55,1625449482.0,32.000000
-30,-5,55,1625449482.0,32.000000
-30,-5,55,1625449482.0,32.000000
-30,-5,55,1625449482.0,32.000000
-30,-5,55,1625449482.0,32.000000
-30,-5,55,1625449482.0,32.000000
-30,-5,55,1625449482.0,32.000000
-30,-5,55,1625449482.0,32.000000
-30,-5,55,1625449482.0,32.000000
-30,-5,55,1625449482.0,32.000000
-30,-5,55,1625449482.0,32.000000
-30,-5,55,1625449482.0,32.000000
-30,-5,55,1625449482.0,32.000000
-30,-5,55,1625449482.0,32.000000
-30,-5,55,1625449482.0,32.000000
-30,-5,55,1625449482.0,32.000000
-29,-5,55,1625449482.0,32.000000
-30,-5,55,1625449482.0,32.000000
-30,-4,55,1625449482.0,32.000000
-30,-4,55,1625449482.0,32.000000
-30,-4,55,1625449482.0,32.000000
-30,-4,55,1625449482.0,32.000000
-30,-5,55,1625449482.0,32.000000
-30,-5,55,1625449482.0,32.000000
-30,-4,55,1625449482.0,32.000000
-30,-4,55,1625449482.0,32.000000
-30,-4,55,1625449482.0,32.000000
-30,-4,55,1625449482.0,32.000000
-30,-4,55,1625449482.0,32.000000
-30,-4,56,1625449482.0,32.000000
-30,-4,55,1625449482.0,32.000000
-30,-4,56,1625449482.0,32.000000
-30,-4,55,1625449482.0,32.000000
-29,-4,55,1625449482.0,32.000000
-30,-4,55,1625449482.0,32.000000
-30,-4,56,1625449482.0,32.000000
-30,-4,55,1625449482.0,32.000000
-30,-4,55,1625449482.0,32.000000
-30,-4,55,1625449482.0,32.000000
-30,-4,55,1625449482.0,32.000000
-30,-4,55,1625449482.0,32.000000
-30,-4,55,1625449482.0,32.000000
-30,-4,55,1625449482.0,32.000000
-30,-4,55,1625449482.0,32.000000
-30,-4,55,1625449482.0,32.000000
-29,-4,55,1625449482.0,32.000000
-29,-4,56,1625449482.0,32.000000
-30,-4,56,1625449482.0,32.000000
-30,-4,55,1625449482.0,32.000000
-29,-4,56,1625449482.0,32.000000
-29,-4,56,1625449482.0,32.000000
-29,-4,55,1625449482.0,32.000000
-30,-4,55,1625449482.0,32.000000
-29,-5,55,1625449482.0,32.000000
-30,-4,55,1625449482.0,32.000000
-30,-4,55,1625449482.0,32.000000
-29,-5,56,1625449482.0,32.000000
-29,-5,55,1625449482.0,32.000000
-29,-5,56,1625449482.0,32.000000
-30,-5,55,1625449482.0,32.000000
-29,-5,56,1625449482.0,32.000000
-29,-5,56,1625449482.0,32.000000
-29,-5,56,1625449482.0,32.000000
-29,-5,56,1625449482.0,32.000000
-29,-5,56,1625449482.0,32.000000
-29,-5,55,1625449482.0,32.000000
-29,-5,56,1625449482.0,32.000000
-29,-5,56,1625449482.0,32.000000
-29,-5,56,1625449482.0,32.000000
-29,-5,56,1625449482.0,32.000000
-29,-5,56,1625449482.0,32.000000
-29,-6,55,1625449482.0,32.000000
-29,-5,56,1625449482.0,32.000000
-29,-6,56,1625449482.0,32.000000
-29,-5,56,1625449482.0,32.000000
-29,-6,55,1625449482.0,32.000000
-29,-6,55,1625449482.0,32.000000
-29,-6,56,1625449482.0,32.000000
-29,-6,56,1625449482.0,32.000000
-28,-6,56,1625449482.0,32.000000
-29,-6,56,1625449482.0,32.000000
-29,-6,55,1625449482.0,32.000000
-29,-6,56,1625449482.0,32.000000
-28,-5,56,1625449482.0,32.000000
-29,-5,56,1625449482.0,32.000000
-29,-5,56,1625449482.0,32.000000
-28,-5,55,1625449482.0,32.000000
-28,-5,56,1625449482.0,32.000000
-28,-5,56,1625449482.0,32.000000
-28,-5,56,1625449482.0,32.000000
-28,-4,56,1625449482.0,32.000000
-29,-4,56,1625449482.0,32.000000
-29,-4,56,1625449482.0,32.000000
-28,-4,56,1625449482.0,32.000000
-30,-3,56,1625449482.0,32.000000
-29,-3,56,1625449482.0,32.000000
-30,-3,56,1625449482.0,32.000000
-28,-2,57,1625449482.0,32.000000
-24,-2,58,1625449482.0,32.000000
-25,-3,58,1625449482.0,32.000000
-25,-3,58,1625449482.0,32.000000
-26,-3,58,1625449482.0,32.000000
-25,-3,57,1625449482.0,32.000000
-24,-3,58,1625449482.0,32.000000
-24,-2,59,1625449482.0,32.000000
-25,-3,58,1625449482.0,32.000000
-25,-2,58,1625449482.0,32.000000
-24,-3,59,1625449482.0,32.000000
-24,-3,58,1625449482.0,32.000000
-24,-4,58,1625449482.0,32.000000
-23,-4,58,1625449482.0,32.000000
-22,-4,59,1625449482.0,32.000000
-25,-4,58,1625449482.0,32.000000
-25,-4,58,1625449482.0,32.000000
-22,-4,59,1625449482.0,32.000000
-22,-5,59,1625449482.0,32.000000
-25,-5,58,1625449482.0,32.000000
-24,-5,58,1625449482.0,32.000000
-23,-6,58,1625449482.0,32.000000
-23,-6,58,1625449482.0,32.000000
-24,-6,58,1625449482.0,32.000000
-25,-7,57,1625449482.0,32.000000
-25,-6,57,1625449482.0,32.000000
-26,-6,58,1625449482.0,32.000000
-27,-4,57,1625449482.0,32.000000
-26,-4,58,1625449482.0,32.000000
-26,-4,57,1625449482.0,32.000000
-25,-3,58,1625449482.0,32.000000
-25,-3,57,1625449482.0,32.000000
-24,-3,58,1625449482.0,32.000000
-25,-3,58,1625449482.0,32.000000
-26,-4,58,1625449482.0,32.000000
-26,-3,58,1625449482.0,32.000000
-25,-3,58,1625449482.0,32.000000
-25,-3,58,1625449482.0,32.000000
-25,-3,58,1625449482.0,32.000000
-25,-3,58,1625449482.0,32.000000
-25,-3,58,1625449482.0,32.000000
-25,-4,58,1625449482.0,32.000000
-24,-5,58,1625449482.0,32.000000
-23,-5,58,1625449482.0,32.000000
-24,-5,59,1625449482.0,32.000000
-24,-5,58,1625449482.0,32.000000
-24,-5,58,1625449482.0,32.000000
-24,-6,58,1625449482.0,32.000000
-24,-6,58,1625449482.0,32.000000
-24,-6,58,1625449482.0,32.000000
-24,-6,58,1625449482.0,32.000000
-25,-6,58,1625449482.0,32.000000
-25,-6,58,1625449482.0,32.000000
-24,-6,58,1625449482.0,32.000000
-25,-6,58,1625449482.0,32.000000
-25,-6,58,1625449482.0,32.000000
-25,-6,58,1625449482.0,32.000000
-24,-6,58,1625449482.0,32.000000
-24,-6,59,1625449482.0,32.000000
-23,-6,58,1625449482.0,32.000000
-22,-7,59,1625449482.0,32.000000
-23,-6,59,1625449482.0,32.000000
-24,-6,58,1625449482.0,32.000000
-26,-7,56,1625449482.0,32.000000
-25,-8,57,1625449482.0,32.000000
-25,-8,57,1625449482.0,32.000000
-25,-7,58,1625449482.0,32.000000
-24,-7,58,1625449482.0,32.000000
-24,-7,58,1625449482.0,32.000000
-24,-8,58,1625449482.0,32.000000
-24,-8,58,1625449482.0,32.000000
-24,-8,58,1625449482.0,32.000000
-23,-8,58,1625449482.0,32.000000
-23,-8,58,1625449482.0,32.000000
-23,-8,58,1625449482.0,32.000000
-23,-8,58,1625449482.0,32.000000
-23,-8,58,1625449482.0,32.000000
-23,-7,58,1625449482.0,32.000000
-23,-8,58,1625449482.0,32.000000
-23,-8,58,1625449482.0,32.000000
-23,-7,58,1625449482.0,32.000000
-23,-8,59,1625449482.0,32.000000
-23,-7,58,1625449482.0,32.000000
-23,-8,58,1625449482.0,32.000000
-23,-7,58,1625449482.0,32.000000
-23,-8,58,1625449482.0,32.000000
-23,-8,59,1625449482.0,32.000000
-22,-7,59,1625449482.0,32.000000
-22,-7,59,1625449482.0,32.000000
-22,-7,59,1625449482.0,32.000000
-22,-7,58,1625449482.0,32.000000
-22,-7,59,1625449482.0,32.000000
-22,-7,59,1625449482.0,32.000000
-22,-7,59,1625449482.0,32.000000
-22,-7,59,1625449482.0,32.000000
-23,-7,59,1625449482.0,32.000000
-23,-6,59,1625449482.0,32.000000
-23,-7,59,1625449482.0,32.000000
-22,-6,59,1625449482.0,32.000000
-23,-7,59,1625449482.0,32.000000
-23,-7,58,1625449482.0,32.000000
-23,-6,59,1625449482.0,32.000000
-23,-6,59,1625449482.0,32.000000
-23,-6,59,1625449482.0,32.000000
-23,-7,58,1625449482.0,32.000000
-23,-6,58,1625449482.0,32.000000
-23,-6,59,1625449482.0,32.000000
-24,-6,58,1625449482.0,32.000000
-24,-7,58,1625449482.0,32.000000
-23,-7,58,1625449482.0,32.000000
-24,-6,58,1625449482.0,32.000000
-24,-7,58,1625449482.0,32.000000
-24,-7,58,1625449482.0,32.000000
-23,-10,54,1625449482.0,32.000000
-26,-3,58,1625449482.0,32.000000
-29,-31,59,1625449482.0,32.000000
-23,-11,59,1625449482.0,32.000000
-25,-7,58,1625449482.0,32.000000
-25,-8,56,1625449482.0,32.000000
-25,-8,57,1625449482.0,32.000000
-25,-8,58,1625449482.0,32.000000
-25,-8,57,1625449482.0,32.000000
-25,-8,58,1625449482.0,32.000000
-26,-15,58,1625449482.0,32.000000
-24,-9,58,1625449482.0,32.000000
-25,-8,58,1625449482.0,32.000000
-25,-8,57,1625449482.0,32.000000
-25,-8,57,1625449482.0,32.000000
-25,-8,57,1625449482.0,32.000000
-25,-8,57,1625449482.0,32.000000
-25,-8,58,1625449482.0,32.000000
-25,-8,58,1625449482.0,32.000000
-25,-8,57,1625449482.0,32.000000
-25,-8,57,1625449482.0,32.000000
-25,-8,58,1625449482.0,32.000000
-25,-8,58,1625449482.0,32.000000
-25,-8,58,1625449482.0,32.000000
-25,-8,58,1625449482.0,32.000000
-25,-8,57,1625449482.0,32.000000
-25,-8,58,1625449482.0,32.000000
-25,-8,58,1625449482.0,32.000000
-25,-8,57,1625449482.0,32.000000
-25,-8,57,1625449482.0,32.000000
-25,-8,58,1625449482.0,32.000000
-25,-8,58,1625449482.0,32.000000
-25,-8,58,1625449482.0,32.000000
-25,-8,58,1625449482.0,32.000000
-24,-8,58,1625449482.0,32.000000
-25,-8,58,1625449482.0,32.000000
-25,-8,57,1625449482.0,32.000000
-25,-8,57,1625449482.0,32.000000
-25,-8,57,1625449482.0,32.000000
-25,-8,58,1625449482.0,32.000000
-25,-8,58,1625449482.0,32.000000
-25,-8,57,1625449482.0,32.000000
-25,-8,57,1625449482.0,32.000000
-25,-8,58,1625449482.0,32.000000
-24,-8,57,1625449482.0,32.000000
-25,-8,58,1625449482.0,32.000000
-25,-8,58,1625449482.0,32.000000
-25,-8,58,1625449482.0,32.000000
-25,-8,58,1625449482.0,32.000000
-24,-8,57,1625449482.0,32.000000
-24,-8,58,1625449482.0,32.000000
-25,-8,58,1625449482.0,32.000000
-25,-8,58,1625449482.0,32.000000
-25,-8,58,1625449482.0,32.000000
-25,-8,57,1625449482.0,32.000000
-25,-8,58,1625449482.0,32.000000
-25,-8,58,1625449482.0,32.000000
-25,-8,58,1625449482.0,32.000000
-25,-8,58,1625449482.0,32.000000
-25,-8,57,1625449482.0,32.000000
-24,-8,57,1625449482.0,32.000000
-25,-8,58,1625449482.0,32.000000
-24,-8,58,1625449482.0,32.000000
-25,-8,58,1625449482.0,32.000000
-25,-8,58,1625449482.0,32.000000
-25,-8,58,1625449482.0,32.000000
-25,-8,57,1625449482.0,32.000000
-24,-8,58,1625449482.0,32.000000
-25,-8,58,1625449482.0,32.000000
-24,-8,57,1625449482.0,32.000000
-25,-8,58,1625449482.0,32.000000
-25,-8,58,1625449482.0,32.000000
-24,-8,58,1625449482.0,32.000000
-24,-8,57,1625449482.0,32.000000
-25,-8,58,1625449482.0,32.000000
-25,-8,58,1625449482.0,32.000000
-25,-8,58,1625449482.0,32.000000
-25,-9,57,1625449482.0,32.000000
-24,-9,58,1625449482.0,32.000000
-24,-8,58,1625449482.0,32.000000
-25,-9,58,1625449482.0,32.000000
-25,-9,57,1625449482.0,32.000000
-24,-9,57,1625449482.0,32.000000
-24,-8,58,1625449482.0,32.000000
-24,-9,58,1625449482.0,32.000000
-25,-9,57,1625449482.0,32.000000
-24,-9,58,1625449482.0,32.000000
-24,-9,58,1625449482.0,32.000000
-24,-9,58,1625449482.0,32.000000
-24,-9,57,1625449482.0,32.000000
-24,-9,58,1625449482.0,32.000000
-24,-9,58,1625449482.0,32.000000
-24,-9,58,1625449482.0,32.000000
-24,-9,58,1625449482.0,32.000000
-24,-9,58,1625449482.0,32.000000
-24,-9,57,1625449482.0,32.000000
-24,-9,57,1625449482.0,32.000000
-24,-9,58,1625449482.0,32.000000
-25,-9,58,1625449482.0,32.000000
-24,-9,58,1625449482.0,32.000000
-24,-9,57,1625449482.0,32.000000
-24,-9,58,1625449482.0,32.000000
-24,-9,57,1625449482.0,32.000000
-24,-9,58,1625449482.0,32.000000
-24,-9,58,1625449482.0,32.000000
-24,-9,57,1625449482.0,32.000000
-24,-9,58,1625449482.0,32.000000
-24,-9,58,1625449482.0,32.000000
-24,-9,58,1625449482.0,32.000000
-24,-9,57,1625449482.0,32.000000
-24,-9,58,1625449482.0,32.000000
-24,-9,58,1625449482.0,32.000000
-25,-9,57,1625449482.0,32.000000
-24,-9,57,1625449482.0,32.000000
-24,-9,58,1625449482.0,32.000000
-25,-9,58,1625449482.0,32.000000
-25,-9,57,1625449482.0,32.000000
-24,-8,58,1625449482.0,32.000000
-24,-8,58,1625449482.0,32.000000
-25,-8,57,1625449482.0,32.000000
-25,-8,58,1625449482.0,32.000000
-24,-8,58,1625449482.0,32.000000
-24,-8,57,1625449482.0,32.000000
-25,-9,57,1625449482.0,32.000000
-24,-9,58,1625449482.0,32.000000
-24,-9,58,1625449482.0,32.000000
-25,-9,57,1625449482.0,32.000000
-24,-9,58,1625449482.0,32.000000
-24,-9,58,1625449482.0,32.000000
-24,-9,58,1625449482.0,32.000000
-25,-9,57,1625449482.0,32.000000
-25,-9,58,1625449482.0,32.000000
-25,-8,58,1625449482.0,32.000000
-25,-9,58,1625449482.0,32.000000
-25,-8,58,1625449482.0,32.000000
-25,-8,57,1625449482.0,32.000000
-25,-8,58,1625449482.0,32.000000
-25,-8,58,1625449482.0,32.000000
-25,-8,58,1625449482.0,32.000000
-25,-8,58,1625449482.0,32.000000
-25,-8,58,1625449482.0,32.000000
-25,-8,58,1625449482.0,32.000000
-24,-8,57,1625449482.0,32.000000
-24,-8,57,1625449482.0,32.000000
-24,-8,58,1625449482.0,32.000000
-24,-8,58,1625449482.0,32.000000
-24,-8,58,1625449482.0,32.000000
-24,-9,58,1625449482.0,32.000000
-25,-8,57,1625449482.0,32.000000
-25,-8,58,1625449482.0,32.000000
-25,-8,58,1625449482.0,32.000000
-25,-8,58,1625449482.0,32.000000
-25,-8,58,1625449482.0,32.000000
-25,-8,58,1625449482.0,32.000000
-25,-8,58,1625449482.0,32.000000
-25,-8,58,1625449482.0,32.000000
-25,-8,58,1625449482.0,32.000000
-24,-8,58,1625449482.0,32.000000
-24,-8,58,1625449482.0,32.000000
-24,-8,58,1625449482.0,32.000000
-24,-8,58,1625449482.0,32.000000
-25,-8,58,1625449482.0,32.000000
-25,-8,57,1625449482.0,32.000000
-25,-8,57,1625449482.0,32.000000
-25,-8,58,1625449482.0,32.000000
-25,-8,58,1625449482.0,32.000000
-25,-8,58,1625449482.0,32.000000
-25,-8,58,1625449482.0,32.000000
-25,-8,58,1625449482.0,32.000000
-25,-8,57,1625449482.0,32.000000
-24,-8,58,1625449482.0,32.000000
-24,-8,58,1625449482.0,32.000000
-25,-8,58,1625449482.0,32.000000
-24,-8,58,1625449482.0,32.000000
-24,-8,57,1625449482.0,32.000000
-24,-8,58,1625449482.0,32.000000
-25,-8,58,1625449482.0,32.000000
-25,-8,57,1625449482.0,32.000000
-25,-8,58,1625449482.0,32.000000
-25,-8,58,1625449482.0,32.000000
-25,-8,58,1625449482.0,32.000000
-25,-8,58,1625449482.0,32.000000
-24,-8,58,1625449482.0,32.000000
-25,-8,58,1625449482.0,32.000000
-25,-8,58,1625449482.0,32.000000
-25,-8,58,1625449482.0,32.000000
-24,-8,58,1625449482.0,32.000000
-25,-8,58,1625449482.0,32.000000
-25,-8,58,1625449482.0,32.000000
-25,-8,57,1625449482.0,32.000000
-25,-8,57,1625449482.0,32.000000
-25,-8,58,1625449482.0,32.000000
-25,-8,58,1625449482.0,32.000000
-24,-8,58,1625449482.0,32.000000
-25,-8,58,1625449482.0,32.000000
-25,-8,58,1625449482.0,32.000000
-25,-8,58,1625449482.0,32.000000
-25,-8,58,1625449482.0,32.000000
-25,-8,58,1625449482.0,32.000000
-25,-8,58,1625449482.0,32.000000
-25,-8,58,1625449482.0,32.000000
-24,-8,57,1625449482.0,32.000000
-25,-8,57,1625449482.0,32.000000
-24,-8,58,1625449482.0,32.000000
-25,-8,58,1625449482.0,32.000000
-25,-8,58,1625449482.0,32.000000
-25,-8,58,1625449482.0,32.000000
-25,-8,58,1625449482.0,32.000000
-25,-8,58,1625449482.0,32.000000
-25,-7,58,1625449482.0,32.000000
-24,-8,58,1625449482.0,32.000000
-25,-8,57,1625449482.0,32.000000
-24,-8,58,1625449482.0,32.000000
-24,-8,58,1625449482.0,32.000000
-25,-8,58,1625449482.0,32.000000
-25,-7,58,1625449482.0,32.000000
-25,-7,58,1625449482.0,32.000000
-25,-8,58,1625449482.0,32.000000
-24,-8,57,1625449482.0,32.000000
-25,-8,58,1625449482.0,32.000000
-24,-8,58,1625449482.0,32.000000
-24,-8,58,1625449482.0,32.000000
-24,-8,58,1625449482.0,32.000000
-25,-8,58,1625449482.0,32.000000
-24,-8,58,1625449482.0,32.000000
-24,-8,58,1625449482.0,32.000000
-24,-8,58,1625449482.0,32.000000
-25,-8,58,1625449482.0,32.000000
-24,-8,58,1625449482.0,32.000000
-24,-8,58,1625449482.0,32.000000
-24,-8,58,1625449482.0,32.000000
-24,-8,58,1625449482.0,32.000000
-24,-8,58,1625449482.0,32.000000
-24,-8,57,1625449482.0,32.000000
-24,-8,58,1625449482.0,32.000000
-24,-8,58,1625449482.0,32.000000
-24,-8,57,1625449482.0,32.000000
-24,-8,58,1625449482.0,32.000000
-25,-8,58,1625449482.0,32.000000
-24,-8,58,1625449482.0,32.000000
-24,-8,58,1625449482.0,32.000000
-24,-8,58,1625449482.0,32.000000
-24,-8,58,1625449482.0,32.000000
-25,-8,57,1625449482.0,32.000000
-24,-8,58,1625449482.0,32.000000
-24,-8,58,1625449482.0,32.000000
-24,-8,58,1625449482.0,32.000000
-24,-8,58,1625449482.0,32.000000
-24,-8,58,1625449482.0,32.000000
-24,-9,58,1625449482.0,32.000000
-24,-9,58,1625449482.0,32.000000
-25,-9,58,1625449482.0,32.000000
-24,-9,58,1625449482.0,32.000000
-24,-9,57,1625449482.0,32.000000
-24,-9,58,1625449482.0,32.000000
-24,-9,58,1625449482.0,32.000000
-24,-9,58,1625449482.0,32.000000
-24,-9,57,1625449482.0,32.000000
-24,-9,58,1625449482.0,32.000000
-24,-9,58,1625449482.0,32.000000
-24,-9,57,1625449482.0,32.000000
-24,-9,58,1625449482.0,32.000000
-24,-9,58,1625449482.0,32.000000
-24,-9,58,1625449482.0,32.000000
-24,-9,58,1625449482.0,32.000000
-24,-9,57,1625449482.0,32.000000
-24,-9,58,1625449482.0,32.000000
-24,-9,58,1625449482.0,32.000000
-24,-9,57,1625449482.0,32.000000
-24,-9,58,1625449482.0,32.000000
-24,-9,58,1625449482.0,32.000000
-24,-9,58,1625449482.0,32.000000
-24,-9,58,1625449482.0,32.000000
-24,-9,58,1625449482.0,32.000000
-24,-9,58,1625449482.0,32.000000
-24,-9,58,1625449482.0,32.000000
-24,-9,58,1625449482.0,32.000000
-24,-9,58,1625449482.0,32.000000
-24,-9,58,1625449482.0,32.000000
-24,-9,58,1625449482.0,32.000000
-24,-9,58,1625449482.0,32.000000
-24,-9,57,1625449482.0,32.000000
-24,-9,58,1625449482.0,32.000000
-24,-9,58,1625449482.0,32.000000
-24,-9,58,1625449482.0,32.000000
-24,-8,58,1625449482.0,32.000000
-24,-9,58,1625449482.0,32.000000
-24,-9,58,1625449482.0,32.000000
-24,-9,58,1625449482.0,32.000000
-24,-9,58,1625449482.0,32.000000
-24,-9,58,1625449482.0,32.000000
-24,-9,57,1625449482.0,32.000000
-24,-9,58,1625449482.0,32.000000
-24,-9,58,1625449482.0,32.000000
-24,-9,58,1625449482.0,32.000000
-25,-9,58,1625449482.0,32.000000
-24,-9,58,1625449482.0,32.000000
-24,-9,58,1625449482.0,32.000000
-24,-9,58,1625449482.0,32.000000
-24,-9,57,1625449482.0,32.000000
-24,-9,58,1625449482.0,32.000000
-24,-8,58,1625449482.0,32.000000
-24,-8,58,1625449482.0,32.000000
-24,-9,57,1625449482.0,32.000000
-24,-8,58,1625449482.0,32.000000
-24,-9,58,1625449482.0,32.000000
-24,-8,58,1625449482.0,32.000000
-24,-9,58,1625449482.0,32.000000
-24,-9,58,1625449482.0,32.000000
-24,-8,58,1625449482.0,32.000000
-25,-8,58,1625449482.0,32.000000
-24,-8,58,1625449482.0,32.000000
-24,-9,58,1625449482.0,32.000000
-24,-8,57,1625449482.0,32.000000
-24,-8,58,1625449482.0,32.000000
-24,-8,58,1625449482.0,32.000000
-24,-9,58,1625449482.0,32.000000
-24,-8,58,1625449482.0,32.000000
-24,-8,58,1625449482.0,32.000000
-25,-8,58,1625449482.0,32.000000
-25,-8,58,1625449482.0,32.000000
-24,-9,57,1625449482.0,32.000000
-24,-8,58,1625449482.0,32.000000
-24,-8,57,1625449482.0,32.000000
-24,-8,58,1625449482.0,32.000000
-24,-8,58,1625449482.0,32.000000
-24,-8,58,1625449482.0,32.000000
-24,-8,58,1625449482.0,32.000000
-24,-8,57,1625449482.0,32.000000
-24,-8,58,1625449482.0,32.000000
-24,-8,58,1625449482.0,32.000000
-24,-8,57,1625449482.0,32.000000
-24,-8,57,1625449482.0,32.000000
-24,-8,58,1625449482.0,32.000000
-24,-9,58,1625449482.0,32.000000
-24,-8,58,1625449482.0,32.000000
-24,-8,58,1625449482.0,32.000000
-24,-8,58,1625449482.0,32.000000
-24,-8,58,1625449482.0,32.000000
-24,-8,58,1625449482.0,32.000000
-24,-8,58,1625449482.0,32.000000
-24,-8,58,1625449482.0,32.000000
-24,-8,58,1625449482.0,32.000000
-24,-8,58,1625449482.0,32.000000
-24,-8,58,1625449482.0,32.000000
-24,-8,58,1625449482.0,32.000000
-25,-8,58,1625449482.0,32.000000
-24,-8,58,1625449482.0,32.000000
-24,-8,58,1625449482.0,32.000000
-24,-8,58,1625449482.0,32.000000
-24,-8,58,1625449482.0,32.000000
-24,-8,58,1625449482.0,32.000000
-24,-8,58,1625449482.0,32.000000
-24,-8,58,1625449482.0,32.000000
-25,-8,58,1625449482.0,32.000000
-24,-8,58,1625449482.0,32.000000
-24,-8,58,1625449482.0,32.000000
-25,-9,58,1625449482.0,32.000000
-24,-8,57,1625449482.0,32.000000
-24,-8,58,1625449482.0,32.000000
-24,-8,58,1625449482.0,32.000000
-24,-8,58,1625449482.0,32.000000
-24,-8,58,1625449482.0,32.000000
-25,-8,57,1625449482.0,32.000000
-24,-8,58,1625449482.0,32.000000
-25,-8,58,1625449482.0,32.000000
-25,-8,57,1625449482.0,32.000000
-25,-8,58,1625449482.0,32.000000
-25,-8,58,1625449482.0,32.000000
-25,-8,58,1625449482.0,32.000000
-25,-8,57,1625449482.0,32.000000
-24,-8,58,1625449482.0,32.000000
-24,-8,58,1625449482.0,32.000000
-24,-8,58,1625449482.0,32.000000
-24,-8,58,1625449482.0,32.000000
-24,-8,58,1625449482.0,32.000000
-24,-8,58,1625449482.0,32.000000
-24,-8,58,1625449482.0,32.000000
-24,-8,58,1625449482.0,32.000000
-24,-8,58,1625449482.0,32.000000
-24,-8,58,1625449482.0,32.000000
-25,-8,57,1625449482.0,32.000000
-25,-8,58,1625449482.0,32.000000
-24,-8,58,1625449482.0,32.000000
-25,-8,58,1625449482.0,32.000000
-25,-8,58,1625449482.0,32.000000
-25,-8,58,1625449482.0,32.000000
-24,-8,58,1625449482.0,32.000000
-24,-8,58,1625449482.0,32.000000
-24,-8,58,1625449482.0,32.000000
-24,-8,58,1625449482.0,32.000000
-24,-9,58,1625449482.0,32.000000
-24,-9,58,1625449482.0,32.000000
-24,-9,58,1625449482.0,32.000000
-24,-9,58,1625449482.0,32.000000
-24,-9,58,1625449482.0,32.000000
-24,-9,57,1625449482.0,32.000000
-25,-9,58,1625449482.0,32.000000
-25,-9,58,1625449482.0,32.000000
-25,-9,58,1625449482.0,32.000000
-25,-9,58,1625449482.0,32.000000
-24,-9,58,1625449482.0,32.000000
-24,-9,58,1625449482.0,32.000000
-24,-9,57,1625449482.0,32.000000
-24,-9,58,1625449482.0,32.000000
-24,-9,58,1625449482.0,32.000000
-24,-9,58,1625449482.0,32.000000
-24,-9,58,1625449482.0,32.000000
-24,-9,57,1625449482.0,32.000000
-24,-9,58,1625449482.0,32.000000
-24,-9,58,1625449482.0,32.000000
-24,-8,58,1625449482.0,32.000000
-24,-9,58,1625449482.0,32.000000
-24,-9,58,1625449482.0,32.000000
-24,-8,58,1625449482.0,32.000000
-25,-9,58,1625449482.0,32.000000
-24,-9,58,1625449482.0,32.000000
-24,-9,58,1625449482.0,32.000000
-24,-8,58,1625449482.0,32.000000
-24,-9,58,1625449482.0,32.000000
-24,-9,58,1625449482.0,32.000000
-24,-9,57,1625449482.0,32.000000
-24,-9,57,1625449482.0,32.000000
-24,-9,58,1625449482.0,32.000000
-24,-9,58,1625449482.0,32.000000
-24,-9,58,1625449482.0,32.000000
-24,-8,58,1625449482.0,32.000000
-24,-8,58,1625449482.0,32.000000
-24,-9,58,1625449482.0,32.000000
-24,-8,58,1625449482.0,32.000000
-24,-9,58,1625449482.0,32.000000
-24,-9,58,1625449482.0,32.000000
-24,-8,58,1625449482.0,32.000000
-24,-8,58,1625449482.0,32.000000
-24,-8,57,1625449482.0,32.000000
-24,-9,58,1625449482.0,32.000000
-24,-8,58,1625449482.0,32.000000
-24,-8,58,1625449482.0,32.000000
-24,-8,58,1625449482.0,32.000000
-24,-8,58,1625449482.0,32.000000
-24,-8,58,1625449482.0,32.000000
-24,-8,58,1625449482.0,32.000000
-24,-8,58,1625449482.0,32.000000
-24,-8,58,1625449482.0,32.000000
-24,-8,58,1625449482.0,32.000000
-24,-8,58,1625449482.0,32.000000
-24,-8,57,1625449482.0,32.000000
-24,-8,58,1625449482.0,32.000000
-24,-8,58,1625449482.0,32.000000
-25,-8,58,1625449482.0,32.000000
-24,-8,58,1625449482.0,32.000000
-25,-8,58,1625449482.0,32.000000
-24,-8,58,1625449482.0,32.000000
-25,-8,58,1625449482.0,32.000000
-24,-8,58,1625449482.0,32.000000
-24,-8,58,1625449482.0,32.000000
-24,-8,58,1625449482.0,32.000000
-24,-8,58,1625449482.0,32.000000
-24,-8,58,1625449482.0,32.000000
-24,-8,58,1625449482.0,32.000000
-24,-8,58,1625449482.0,32.000000
-24,-8,58,1625449482.0,32.000000
-24,-8,58,1625449482.0,32.000000
-24,-8,58,1625449482.0,32.000000
-24,-8,58,1625449482.0,32.000000
-24,-8,58,1625449482.0,32.000000
-24,-8,58,1625449482.0,32.000000
-24,-8,58,1625449482.0,32.000000
-24,-8,58,1625449482.0,32.000000
-25,-8,58,1625449482.0,32.000000
-24,-8,58,1625449482.0,32.000000
-24,-8,58,1625449482.0,32.000000
-24,-8,58,1625449482.0,32.000000
-24,-8,58,1625449482.0,32.000000
-25,-8,58,1625449482.0,32.000000
-25,-8,58,1625449482.0,32.000000
-24,-8,58,1625449482.0,32.000000
-24,-8,58,1625449482.0,32.000000
-24,-8,58,1625449482.0,32.000000
-24,-8,58,1625449482.0,32.000000
-24,-8,58,1625449482.0,32.000000
-24,-8,58,1625449482.0,32.000000
-24,-8,58,1625449482.0,32.000000
-24,-8,58,1625449482.0,32.000000
-24,-8,58,1625449482.0,32.000000
-25,-8,58,1625449482.0,32.000000
-24,-8,58,1625449482.0,32.000000
-24,-8,58,1625449482.0,32.000000
-24,-8,58,1625449482.0,32.000000
-24,-8,58,1625449482.0,32.000000
-24,-8,58,1625449482.0,32.000000
-25,-8,58,1625449482.0,32.000000
-24,-8,58,1625449482.0,32.000000
-24,-8,58,1625449482.0,32.000000
-24,-8,58,1625449482.0,32.000000
-24,-8,58,1625449482.0,32.000000
-24,-8,58,1625449482.0,32.000000
-24,-8,58,1625449482.0,32.000000
-25,-8,57,1625449482.0,32.000000
-24,-8,58,1625449482.0,32.000000
-25,-8,58,1625449482.0,32.000000
-24,-8,58,1625449482.0,32.000000
-24,-8,58,1625449482.0,32.000000
-25,-8,58,1625449482.0,32.000000
-24,-8,58,1625449482.0,32.000000
-24,-8,58,1625449482.0,32.000000
-24,-8,58,1625449482.0,32.000000
-24,-8,58,1625449482.0,32.000000
-25,-8,58,1625449482.0,32.000000
-24,-8,58,1625449482.0,32.000000
-24,-8,58,1625449482.0,32.000000
-24,-8,58,1625449482.0,32.000000
-24,-8,58,1625449482.0,32.000000
-24,-8,58,1625449482.0,32.000000
-24,-8,58,1625449482.0,32.000000
-25,-8,58,1625449482.0,32.000000
-24,-8,58,1625449482.0,32.000000
-24,-8,58,1625449482.0,32.000000
-24,-8,58,1625449482.0,32.000000
-24,-8,58,1625449482.0,32.000000
-24,-8,58,1625449482.0,32.000000
-25,-8,58,1625449482.0,32.000000
-25,-8,58,1625449482.0,32.000000
-24,-8,58,1625449482.0,32.000000
-24,-8,57,1625449482.0,32.000000
-24,-8,58,1625449482.0,32.000000
-24,-8,58,1625449482.0,32.000000
-24,-8,58,1625449482.0,32.000000
-24,-8,57,1625449482.0,32.000000
-24,-8,58,1625449482.0,32.000000
-24,-8,58,1625449482.0,32.000000
-24,-8,58,1625449482.0,32.000000
-25,-8,58,1625449482.0,32.000000
-25,-8,58,1625449482.0,32.000000
-24,-8,58,1625449482.0,32.000000
-25,-8,58,1625449482.0,32.000000
-24,-8,58,1625449482.0,32.000000
-24,-8,58,1625449482.0,32.000000
-25,-8,58,1625449482.0,32.000000
-25,-8,58,1625449482.0,32.000000
-24,-8,58,1625449482.0,32.000000
-25,-8,58,1625449482.0,32.000000
-24,-8,58,1625449482.0,32.000000
-24,-8,58,1625449482.0,32.000000
-24,-8,58,1625449482.0,32.000000
-25,-8,58,1625449482.0,32.000000
-24,-8,58,1625449482.0,32.000000
-24,-8,58,1625449482.0,32.000000
-25,-8,58,1625449482.0,32.000000
-24,-8,58,1625449482.0,32.000000
-24,-8,58,1625449482.0,32.000000
-25,-8,58,1625449482.0,32.000000
-24,-8,58,1625449482.0,32.000000
-25,-8,58,1625449482.0,32.000000
-24,-8,58,1625449482.0,32.000000
-24,-8,58,1625449482.0,32.000000
-24,-8,58,1625449482.0,32.000000
-24,-8,58,1625449482.0,32.000000
-24,-8,58,1625449482.0,32.000000
-24,-8,58,1625449482.0,32.000000
-24,-8,58,1625449482.0,32.000000
-24,-9,58,1625449482.0,32.000000
-24,-9,58,1625449482.0,32.000000
-24,-9,58,1625449482.0,32.000000
-24,-9,58,1625449482.0,32.000000
-24,-9,58,1625449482.0,32.000000
-24,-9,58,1625449482.0,32.000000
-24,-9,58,1625449482.0,32.000000
-24,-9,58,1625449482.0,32.000000
-24,-9,58,1625449482.0,32.000000
-24,-9,58,1625449482.0,32.000000
-24,-9,58,1625449482.0,32.000000
-24,-9,58,1625449482.0,32.000000
-24,-9,58,1625449482.0,32.000000
-24,-9,58,1625449482.0,32.000000
-24,-9,58,1625449482.0,32.000000
-24,-9,58,1625449482.0,32.000000
-24,-9,57,1625449482.0,32.000000
-24,-9,58,1625449482.0,32.000000
-24,-9,58,1625449482.0,32.000000
-24,-9,57,1625449482.0,32.000000
-24,-9,58,1625449482.0,32.000000
-24,-9,58,1625449482.0,32.000000
-24,-9,58,1625449482.0,32.000000
-24,-9,58,1625449482.0,32.000000
-24,-9,58,1625449482.0,32.000000
-24,-9,58,1625449482.0,32.000000
-24,-9,57,1625449482.0,32.000000
-24,-9,58,1625449482.0,32.000000
-24,-9,58,1625449482.0,32.000000
-24,-9,57,1625449482.0,32.000000
-24,-9,58,1625449482.0,32.000000
-24,-9,58,1625449482.0,32.000000
-24,-9,58,1625449482.0,32.000000
-24,-9,58,1625449482.0,32.000000
-24,-9,58,1625449482.0,32.000000
-24,-9,58,1625449482.0,32.000000
-24,-9,58,1625449482.0,32.000000
-24,-9,58,1625449482.0,32.000000
-24,-9,58,1625449482.0,32.000000
-24,-9,58,1625449482.0,32.000000
-24,-9,58,1625449482.0,32.000000
-24,-9,58,1625449482.0,32.000000
-25,-9,58,1625449482.0,32.000000
-24,-8,58,1625449482.0,32.000000
-24,-8,58,1625449482.0,32.000000
-24,-8,58,1625449482.0,32.000000
-24,-9,58,1625449482.0,32.000000
-24,-8,58,1625449482.0,32.000000
-24,-8,58,1625449482.0,32.000000
-24,-8,58,1625449482.0,32.000000
-24,-8,58,1625449482.0,32.000000
-24,-8,58,1625449482.0,32.000000
-24,-8,58,1625449482.0,32.000000
-24,-8,58,1625449482.0,32.000000
-24,-8,58,1625449482.0,32.000000
-24,-8,58,1625449482.0,32.000000
-24,-9,58,1625449482.0,32.000000
-24,-8,58,1625449482.0,32.000000
-24,-8,58,1625449482.0,32.000000
-24,-8,58,1625449482.0,32.000000
-24,-8,58,1625449482.0,32.000000
-24,-9,58,1625449482.0,32.000000
-24,-8,58,1625449482.0,32.000000
-24,-9,58,1625449482.0,32.000000
-24,-8,58,1625449482.0,32.000000
-24,-8,58,1625449482.0,32.000000
-25,-9,58,1625449482.0,32.000000
-25,-9,57,1625449482.0,32.000000
-25,-6,59,1625449482.0,32.000000
-22,-7,60,1625449482.0,32.000000
-23,-9,57,1625449482.0,32.000000
-19,-12,59,1625449482.0,32.000000
-18,-12,59,1625449482.0,32.000000
-15,-12,60,1625449482.0,32.000000
-17,-11,60,1625449482.0,32.000000
-15,-11,60,1625449482.0,32.000000
-16,-9,62,1625449482.0,32.000000
-20,-9,58,1625449482.0,32.000000
-19,-10,60,1625449482.0,32.000000
-18,-9,60,1625449482.0,32.000000
-18,-9,60,1625449482.0,32.000000
-19,-9,60,1625449482.0,32.000000
-19,-9,60,1625449482.0,32.000000
-19,-8,60,1625449482.0,32.000000
-19,-9,59,1625449482.0,32.000000
-17,-10,60,1625449482.0,32.000000
-17,-11,60,1625449482.0,32.000000
-19,-9,59,1625449482.0,32.000000
-22,-8,58,1625449482.0,32.000000
-19,-9,60,1625449482.0,32.000000
-19,-9,59,1625449482.0,32.000000
-19,-9,59,1625449482.0,32.000000
-19,-9,60,1625449482.0,32.000000
-17,-8,62,1625449482.0,32.000000
-23,-6,59,1625449482.0,32.000000
-22,-8,54,1625449482.0,32.000000
-10,0,62,1625449482.0,32.000000
-25,-9,57,1625449482.0,32.000000
-21,-9,57,1625449482.0,32.000000
-20,-9,60,1625449482.0,32.000000
-21,-9,59,1625449482.0,32.000000
-21,-9,58,1625449482.0,32.000000
-20,-10,60,1625449482.0,32.000000
-20,-9,59,1625449482.0,32.000000
-21,-9,58,1625449482.0,32.000000
-21,-9,59,1625449482.0,32.000000
-21,-9,59,1625449482.0,32.000000
-21,-9,59,1625449482.0,32.000000
-21,-9,59,1625449482.0,32.000000
-21,-9,59,1625449482.0,32.000000
-22,-9,59,1625449482.0,32.000000
-21,-9,59,1625449482.0,32.000000
-22,-9,59,1625449482.0,32.000000
-21,-9,59,1625449482.0,32.000000
-21,-9,59,1625449482.0,32.000000
-21,-9,59,1625449482.0,32.000000
-22,-9,59,1625449482.0,32.000000
-22,-8,59,1625449482.0,32.000000
-21,-8,60,1625449482.0,32.000000
-21,-8,59,1625449482.0,32.000000
-22,-9,58,1625449482.0,32.000000
-22,-9,58,1625449482.0,32.000000
-22,-9,58,1625449482.0,32.000000
-22,-10,58,1625449482.0,32.000000
-22,-10,58,1625449482.0,32.000000
-21,-10,58,1625449482.0,32.000000
-21,-9,59,1625449482.0,32.000000
-21,-9,59,1625449482.0,32.000000
-22,-9,59,1625449482.0,32.000000
-21,-9,59,1625449482.0,32.000000
-21,-9,58,1625449482.0,32.000000
-21,-9,59,1625449482.0,32.000000
-22,-9,59,1625449482.0,32.000000
-22,-9,58,1625449482.0,32.000000
-23,-9,58,1625449482.0,32.000000
-22,-9,59,1625449482.0,32.000000
-22,-8,59,1625449482.0,32.000000
-22,-8,59,1625449482.0,32.000000
-22,-8,58,1625449482.0,32.000000
-22,-8,59,1625449482.0,32.000000
-22,-8,59,1625449482.0,32.000000
-22,-8,59,1625449482.0,32.000000
-22,-8,59,1625449482.0,32.000000
-22,-8,59,1625449482.0,32.000000
-22,-9,59,1625449482.0,32.000000
-22,-9,58,1625449482.0,32.000000
-22,-8,58,1625449482.0,32.000000
-22,-8,59,1625449482.0,32.000000
-22,-8,59,1625449482.0,32.000000
-22,-8,59,1625449482.0,32.000000
-22,-8,58,1625449482.0,32.000000
-22,-8,59,1625449482.0,32.000000
-22,-8,58,1625449482.0,32.000000
-22,-8,58,1625449482.0,32.000000
-22,-8,59,1625449482.0,32.000000
-22,-8,59,1625449482.0,32.000000
-22,-8,58,1625449482.0,32.000000
-22,-8,59,1625449482.0,32.000000
-22,-8,59,1625449482.0,32.000000
-22,-8,59,1625449482.0,32.000000
-22,-8,59,1625449482.0,32.000000
-22,-8,58,1625449482.0,32.000000
-22,-8,58,1625449482.0,32.000000
-22,-8,58,1625449482.0,32.000000
-22,-8,59,1625449482.0,32.000000
-22,-8,58,1625449482.0,32.000000
-22,-8,58,1625449482.0,32.000000
-22,-8,58,1625449482.0,32.000000
-22,-8,58,1625449482.0,32.000000
-22,-8,59,1625449482.0,32.000000
-22,-8,59,1625449482.0,32.000000
-22,-8,58,1625449482.0,32.000000
-22,-8,59,1625449482.0,32.000000
-22,-9,59,1625449482.0,32.000000
-22,-8,59,1625449482.0,32.000000
-22,-8,58,1625449482.0,32.000000
-22,-8,58,1625449482.0,32.000000
-22,-8,58,1625449482.0,32.000000
-22,-8,58,1625449482.0,32.000000
-22,-8,58,1625449482.0,32.000000
-22,-8,58,1625449482.0,32.000000
-22,-8,59,1625449482.0,32.000000
-22,-8,59,1625449482.0,32.000000
-22,-8,59,1625449482.0,32.000000
-23,-9,58,1625449482.0,32.000000
-23,-8,59,1625449482.0,32.000000
-23,-8,59,1625449482.0,32.000000
-23,-8,58,1625449482.0,32.000000
-22,-9,58,1625449482.0,32.000000
-22,-9,58,1625449482.0,32.000000
-23,-9,58,1625449482.0,32.000000
-23,-9,58,1625449482.0,32.000000
-23,-9,59,1625449482.0,32.000000
-23,-9,58,1625449482.0,32.000000
-22,-9,58,1625449482.0,32.000000
-22,-9,58,1625449482.0,32.000000
-22,-9,58,1625449482.0,32.000000
-23,-9,58,1625449482.0,32.000000
-23,-9,58,1625449482.0,32.000000
-22,-9,58,1625449482.0,32.000000
-22,-9,58,1625449482.0,32.000000
-22,-9,58,1625449482.0,32.000000
-22,-9,58,1625449482.0,32.000000
-22,-9,58,1625449482.0,32.000000
-23,-9,58,1625449482.0,32.000000
-23,-9,58,1625449482.0,32.000000
-22,-9,58,1625449482.0,32.000000
-23,-9,58,1625449482.0,32.000000
-22,-9,58,1625449482.0,32.000000
-22,-9,58,1625449482.0,32.000000
-23,-9,58,1625449482.0,32.000000
-22,-9,59,1625449482.0,32.000000
-22,-9,58,1625449482.0,32.000000
-23,-9,58,1625449482.0,32.000000
-22,-9,58,1625449482.0,32.000000
-23,-9,58,1625449482.0,32.000000
-23,-9,58,1625449482.0,32.000000
-22,-9,58,1625449482.0,32.000000
-22,-9,58,1625449482.0,32.000000
-22,-9,58,1625449482.0,32.000000
-22,-9,58,1625449482.0,32.000000
-22,-9,58,1625449482.0,32.000000
-22,-9,58,1625449482.0,32.000000
-22,-9,59,1625449482.0,32.000000
-23,-9,58,1625449482.0,32.000000
-23,-9,58,1625449482.0,32.000000
-22,-9,58,1625449482.0,32.000000
-22,-9,59,1625449482.0,32.000000
-22,-9,59,1625449482.0,32.000000
-22,-9,58,1625449482.0,32.000000
-22,-9,58,1625449482.0,32.000000
-22,-9,58,1625449482.0,32.000000
-22,-9,59,1625449482.0,32.000000
-23,-9,58,1625449482.0,32.000000
-22,-9,58,1625449482.0,32.000000
-23,-9,58,1625449482.0,32.000000
-23,-9,58,1625449482.0,32.000000
-23,-9,58,1625449482.0,32.000000
-23,-9,58,1625449482.0,32.000000
-23,-9,58,1625449482.0,32.000000
-23,-9,58,1625449482.0,32.000000
-22,-9,58,1625449482.0,32.000000
-23,-9,58,1625449482.0,32.000000
-23,-9,58,1625449482.0,32.000000
-22,-9,59,1625449482.0,32.000000
-22,-9,59,1625449482.0,32.000000
-23,-8,58,1625449482.0,32.000000
-23,-9,58,1625449482.0,32.000000
-23,-9,58,1625449482.0,32.000000
-23,-9,58,1625449482.0,32.000000
-22,-9,58,1625449482.0,32.000000
-23,-9,58,1625449482.0,32.000000
-23,-9,59,1625449482.0,32.000000
-23,-9,58,1625449482.0,32.000000
-23,-9,59,1625449482.0,32.000000
-23,-9,58,1625449482.0,32.000000
-23,-9,58,1625449482.0,32.000000
-22,-9,58,1625449482.0,32.000000
-23,-9,58,1625449482.0,32.000000
-22,-9,58,1625449482.0,32.000000
-22,-9,58,1625449482.0,32.000000
-22,-9,58,1625449482.0,32.000000
-23,-8,58,1625449482.0,32.000000
-23,-9,58,1625449482.0,32.000000
-23,-8,59,1625449482.0,32.000000
-23,-8,58,1625449482.0,32.000000
-23,-8,58,1625449482.0,32.000000
-23,-8,58,1625449482.0,32.000000
-22,-8,58,1625449482.0,32.000000
-23,-8,58,1625449482.0,32.000000
-23,-8,58,1625449482.0,32.000000
-23,-8,58,1625449482.0,32.000000
-23,-8,58,1625449482.0,32.000000
-22,-8,58,1625449482.0,32.000000
-23,-8,58,1625449482.0,32.000000
-23,-8,58,1625449482.0,32.000000
-23,-8,58,1625449482.0,32.000000
-23,-8,58,1625449482.0,32.000000
-23,-8,58,1625449482.0,32.000000
-23,-8,58,1625449482.0,32.000000
-23,-8,58,1625449482.0,32.000000
-23,-8,58,1625449482.0,32.000000
-23,-8,58,1625449482.0,32.000000
-23,-8,58,1625449482.0,32.000000
-23,-8,58,1625449482.0,32.000000
-23,-8,58,1625449482.0,32.000000
-23,-8,59,1625449482.0,32.000000
-23,-8,59,1625449482.0,32.000000
-23,-8,58,1625449482.0,32.000000
-23,-8,58,1625449482.0,32.000000
-23,-8,58,1625449482.0,32.000000
-23,-8,58,1625449482.0,32.000000
-23,-8,58,1625449482.0,32.000000
-23,-8,58,1625449482.0,32.000000
-23,-8,58,1625449482.0,32.000000
-23,-8,58,1625449482.0,32.000000
-23,-8,58,1625449482.0,32.000000
-23,-8,58,1625449482.0,32.000000
-22,-8,58,1625449482.0,32.000000
-23,-8,59,1625449482.0,32.000000
-23,-8,58,1625449482.0,32.000000
-23,-8,58,1625449482.0,32.000000
-23,-8,58,1625449482.0,32.000000
-23,-8,58,1625449482.0,32.000000
-23,-8,58,1625449482.0,32.000000
-23,-8,58,1625449482.0,32.000000
-23,-8,58,1625449482.0,32.000000
-23,-8,58,1625449482.0,32.000000
-23,-8,58,1625449482.0,32.000000
-23,-8,58,1625449482.0,32.000000
-23,-8,58,1625449482.0,32.000000
-23,-8,58,1625449482.0,32.000000
-23,-8,58,1625449482.0,32.000000
-23,-8,59,1625449482.0,32.000000
-23,-8,58,1625449482.0,32.000000
-23,-8,58,1625449482.0,32.000000
-23,-8,58,1625449482.0,32.000000
-23,-8,58,1625449482.0,32.000000
-23,-8,58,1625449482.0,32.000000
-23,-8,58,1625449482.0,32.000000
-23,-8,58,1625449482.0,32.000000
-23,-8,59,1625449482.0,32.000000
-23,-8,58,1625449482.0,32.000000
-23,-8,58,1625449482.0,32.000000
-22,-8,59,1625449482.0,32.000000
-23,-8,58,1625449482.0,32.000000
-23,-8,58,1625449482.0,32.000000
-23,-8,58,1625449482.0,32.000000
-23,-8,59,1625449482.0,32.000000
-23,-8,58,1625449482.0,32.000000
-23,-8,58,1625449482.0,32.000000
-23,-8,58,1625449482.0,32.000000
-23,-8,58,1625449482.0,32.000000
-23,-8,58,1625449482.0,32.000000
-23,-8,58,1625449482.0,32.000000
-23,-8,59,1625449482.0,32.000000
-23,-8,59,1625449482.0,32.000000
-23,-8,59,1625449482.0,32.000000
-23,-8,59,1625449482.0,32.000000
-23,-8,58,1625449482.0,32.000000
-23,-8,58,1625449482.0,32.000000
-23,-8,58,1625449482.0,32.000000
-23,-8,59,1625449482.0,32.000000
-23,-8,58,1625449482.0,32.000000
-23,-8,58,1625449482.0,32.000000
-23,-8,59,1625449482.0,32.000000
-23,-8,58,1625449482.0,32.000000
-23,-8,58,1625449482.0,32.000000
-23,-8,58,1625449482.0,32.000000
-23,-8,58,1625449482.0,32.000000
-23,-8,58,1625449482.0,32.000000
-23,-8,58,1625449482.0,32.000000
-23,-8,58,1625449482.0,32.000000
-23,-9,58,1625449482.0,32.000000
-23,-9,58,1625449482.0,32.000000
-23,-9,58,1625449482.0,32.000000
-23,-9,58,1625449482.0,32.000000
-23,-9,58,1625449482.0,32.000000
-23,-8,58,1625449482.0,32.000000
-23,-9,58,1625449482.0,32.000000
-23,-9,58,1625449482.0,32.000000
-23,-9,58,1625449482.0,32.000000
-23,-9,58,1625449482.0,32.000000
-23,-9,59,1625449482.0,32.000000
-23,-9,58,1625449482.0,32.000000
-23,-9,58,1625449482.0,32.000000
-23,-9,58,1625449482.0,32.000000
-23,-9,58,1625449482.0,32.000000
-23,-9,58,1625449482.0,32.000000
-23,-9,58,1625449482.0,32.000000
-23,-9,58,1625449482.0,32.000000
-23,-9,58,1625449482.0,32.000000
-23,-9,59,1625449482.0,32.000000
-21,-9,59,1625449482.0,32.000000
-25,-8,58,1625449482.0,32.000000
-25,-8,58,1625449482.0,32.000000
-20,-10,59,1625449482.0,32.000000
-23,-12,58,1625449482.0,32.000000
-22,-12,57,1625449482.0,32.000000
-21,-12,57,1625449482.0,32.000000
-20,-11,58,1625449482.0,32.000000
-21,-11,59,1625449482.0,32.000000
-21,-11,59,1625449482.0,32.000000
-20,-11,60,1625449482.0,32.000000
-21,-12,59,1625449482.0,32.000000
-20,-12,59,1625449482.0,32.000000
-21,-13,59,1625449482.0,32.000000
-21,-14,58,1625449482.0,32.000000
-21,-12,57,1625449482.0,32.000000
-20,-13,57,1625449482.0,32.000000
-21,-12,60,1625449482.0,32.000000
-21,-13,59,1625449482.0,32.000000
-21,-15,62,1625449482.0,32.000000
-23,-10,64,1625449482.0,32.000000
-20,-16,65,1625449482.0,32.000000
-19,-8,71,1625449482.0,32.000000
-18,-6,66,1625449482.0,32.000000
-17,-6,52,1625449482.0,32.000000
-24,1,48,1625449482.0,32.000000
-32,2,53,1625449482.0,32.000000
-25,-1,55,1625449482.0,32.000000
-17,-2,54,1625449482.0,32.000000
-23,-7,54,1625449482.0,32.000000
-21,-9,57,1625449482.0,32.000000
-21,-12,57,1625449482.0,32.000000
-18,-15,60,1625449482.0,32.000000
-16,-15,61,1625449482.0,32.000000
-13,-11,64,1625449482.0,32.000000
-11,-19,73,1625449482.0,32.000000
-9,-18,72,1625449482.0,32.000000
-8,-11,63,1625449482.0,32.000000
-9,-11,60,1625449482.0,32.000000
-12,-11,55,1625449482.0,32.000000
-8,-11,57,1625449482.0,32.000000
-8,-12,57,1625449482.0,32.000000
-5,-8,55,1625449482.0,32.000000
-12,-7,50,1625449482.0,32.000000
-13,-9,56,1625449482.0,32.000000
-24,-13,60,1625449482.0,32.000000
-25,-13,61,1625449482.0,32.000000
-16,-9,64,1625449482.0,32.000000
-15,-14,67,1625449482.0,32.000000
-11,-10,69,1625449482.0,32.000000
-15,-12,62,1625449482.0,32.000000
-14,-11,62,1625449482.0,32.000000
-16,-11,60,1625449482.0,32.000000
-15,-10,57,1625449482.0,32.000000
-14,-10,59,1625449482.0,32.000000
-16,-10,59,1625449482.0,32.000000
-15,-10,60,1625449482.0,32.000000
-16,-10,59,1625449482.0,32.000000
-15,-11,61,1625449482.0,32.000000
-15,-11,62,1625449482.0,32.000000
-16,-11,62,1625449482.0,32.000000
-16,-11,59,1625449482.0,32.000000
-15,-11,59,1625449482.0,32.000000
-15,-10,60,1625449482.0,32.000000
-16,-11,60,1625449482.0,32.000000
-16,-11,60,1625449482.0,32.000000
-16,-11,60,1625449482.0,32.000000
-16,-11,61,1625449482.0,32.000000
-16,-11,60,1625449482.0,32.000000
-16,-11,60,1625449482.0,32.000000
-15,-12,61,1625449482.0,32.000000
-15,-11,60,1625449482.0,32.000000
-16,-12,60,1625449482.0,32.000000
-17,-11,59,1625449482.0,32.000000
-17,-11,59,1625449482.0,32.000000
-16,-12,61,1625449482.0,32.000000
-16,-11,60,1625449482.0,32.000000
-16,-11,60,1625449482.0,32.000000
-17,-12,61,1625449482.0,32.000000
-16,-11,59,1625449482.0,32.000000
-17,-11,59,1625449482.0,32.000000
-17,-12,60,1625449482.0,32.000000
-16,-12,60,1625449482.0,32.000000
-16,-12,59,1625449482.0,32.000000
-16,-12,60,1625449482.0,32.000000
-16,-12,60,1625449482.0,32.000000
-17,-12,59,1625449482.0,32.000000
-17,-12,60,1625449482.0,32.000000
-16,-11,59,1625449482.0,32.000000
-16,-12,60,1625449482.0,32.000000
-16,-13,60,1625449482.0,32.000000
-17,-12,61,1625449482.0,32.000000
-17,-12,61,1625449482.0,32.000000
-17,-12,61,1625449482.0,32.000000
-16,-12,60,1625449482.0,32.000000
-16,-12,59,1625449482.0,32.000000
-16,-12,59,1625449482.0,32.000000
-16,-13,60,1625449482.0,32.000000
-16,-12,60,1625449482.0,32.000000
-16,-12,60,1625449482.0,32.000000
-16,-12,60,1625449482.0,32.000000
-16,-13,60,1625449482.0,32.000000
-16,-12,59,1625449482.0,32.000000
-16,-12,60,1625449482.0,32.000000
-16,-13,60,1625449482.0,32.000000
-19,-11,60,1625449482.0,32.000000
-18,-14,62,1625449482.0,32.000000
-15,-13,61,1625449482.0,32.000000
-17,-11,58,1625449482.0,32.000000
-16,-16,53,1625449482.0,32.000000
1,-15,65,1625449482.0,32.000000
0,-16,63,1625449482.0,32.000000
-2,-16,57,1625449482.0,32.000000
0,-16,57,1625449482.0,32.000000
8,-20,62,1625449482.0,32.000000
6,-18,58,1625449482.0,32.000000
3,-18,55,1625449482.0,32.000000
3,-19,58,1625449482.0,32.000000
2,-18,60,1625449482.0,32.000000
-1,-17,61,1625449482.0,32.000000
-4,-17,63,1625449482.0,32.000000
-5,-15,64,1625449482.0,32.000000
-4,-15,66,1625449482.0,32.000000
-3,-15,65,1625449482.0,32.000000
-3,-15,63,1625449482.0,32.000000
-2,-14,61,1625449482.0,32.000000
-2,-14,61,1625449482.0,32.000000
-3,-14,63,1625449482.0,32.000000
-1,-10,61,1625449482.0,32.000000
5,-13,64,1625449482.0,32.000000
-13,-8,53,1625449482.0,32.000000
-7,-4,57,1625449482.0,32.000000
-10,-7,66,1625449482.0,32.000000
-13,-8,62,1625449482.0,32.000000
-12,-8,62,1625449482.0,32.000000
-11,-6,64,1625449482.0,32.000000
-9,-7,65,1625449482.0,32.000000
-9,-8,66,1625449482.0,32.000000
-9,-6,64,1625449482.0,32.000000
-9,-5,65,1625449482.0,32.000000
-11,-7,63,1625449482.0,32.000000
-12,-6,59,1625449482.0,32.000000
-9,-6,57,1625449482.0,32.000000
-13,-6,60,1625449482.0,32.000000
-15,-4,62,1625449482.0,32.000000
-16,-5,64,1625449482.0,32.000000
-13,-6,67,1625449482.0,32.000000
-15,1,66,1625449482.0,32.000000
-16,-5,61,1625449482.0,32.000000
-11,-5,61,1625449482.0,32.000000
-14,-7,62,1625449482.0,32.000000
-12,-9,64,1625449482.0,32.000000
-8,-10,63,1625449482.0,32.000000
-7,-2,54,1625449482.0,32.000000
-15,2,55,1625449482.0,32.000000
-16,2,59,1625449482.0,32.000000
-10,2,55,1625449482.0,32.000000
-17,1,53,1625449482.0,32.000000
-21,2,64,1625449482.0,32.000000
-12,8,64,1625449482.0,32.000000
-8,10,61,1625449482.0,32.000000
-10,7,64,1625449482.0,32.000000
-11,6,64,1625449482.0,32.000000
-11,4,62,1625449482.0,32.000000
-17,0,63,1625449482.0,32.000000
-19,-2,62,1625449482.0,32.000000
-19,-5,60,1625449482.0,32.000000
-14,0,61,1625449482.0,32.000000
-13,3,61,1625449482.0,32.000000
-9,3,62,1625449482.0,32.000000
-7,2,65,1625449482.0,32.000000
-8,1,64,1625449482.0,32.000000
-12,1,63,1625449482.0,32.000000
-16,0,59,1625449482.0,32.000000
-14,0,63,1625449482.0,32.000000
-12,1,62,1625449482.0,32.000000
-11,2,62,1625449482.0,32.000000
-9,4,62,1625449482.0,32.000000
-8,4,64,1625449482.0,32.000000
-11,2,61,1625449482.0,32.000000
-11,-1,65,1625449482.0,32.000000
-13,-1,63,1625449482.0,32.000000
-17,0,62,1625449482.0,32.000000
-15,1,62,1625449482.0,32.000000
-11,5,63,1625449482.0,32.000000
-14,2,60,1625449482.0,32.000000
-12,-1,62,1625449482.0,32.000000
-11,-1,62,1625449482.0,32.000000
-17,0,63,1625449482.0,32.000000
-15,1,64,1625449482.0,32.000000
-15,1,64,1625449482.0,32.000000
-12,3,61,1625449482.0,32.000000
-13,5,59,1625449482.0,32.000000
-21,5,59,1625449482.0,32.000000
-12,7,60,1625449482.0,32.000000
-19,6,58,1625449482.0,32.000000
-25,3,55,1625449482.0,32.000000
-10,4,61,1625449482.0,32.000000
-15,2,63,1625449482.0,32.000000
-17,1,63,1625449482.0,32.000000
-18,-1,63,1625449482.0,32.000000
-19,-2,61,1625449482.0,32.000000
-21,0,62,1625449482.0,32.000000
-19,2,61,1625449482.0,32.000000
-19,3,59,1625449482.0,32.000000
-19,3,59,1625449482.0,32.000000
-20,3,58,1625449482.0,32.000000
-20,3,58,1625449482.0,32.000000
-24,2,60,1625449482.0,32.000000
-24,3,61,1625449482.0,32.000000
-24,2,59,1625449482.0,32.000000
-22,2,58,1625449482.0,32.000000
-22,3,59,1625449482.0,32.000000
-21,2,57,1625449482.0,32.000000
-21,6,56,1625449482.0,32.000000
-18,5,63,1625449482.0,32.000000
-22,4,57,1625449482.0,32.000000
-19,4,61,1625449482.0,32.000000
-22,3,58,1625449482.0,32.000000
-23,3,59,1625449482.0,32.000000
-13,5,61,1625449482.0,32.000000
-34,3,55,1625449482.0,32.000000
-40,4,53,1625449482.0,32.000000
-27,6,58,1625449482.0,32.000000
-29,5,57,1625449482.0,32.000000
-41,1,53,1625449482.0,32.000000
-33,2,60,1625449482.0,32.000000
-23,-1,62,1625449482.0,32.000000
-14,-3,54,1625449482.0,32.000000
-25,-2,62,1625449482.0,32.000000
-28,-4,62,1625449482.0,32.000000
-22,-7,57,1625449482.0,32.000000
-23,-7,59,1625449482.0,32.000000
-24,-8,57,1625449482.0,32.000000
-32,-4,59,1625449482.0,32.000000
-27,-5,55,1625449482.0,32.000000
-26,-6,55,1625449482.0,32.000000
-28,-7,57,1625449482.0,32.000000
-27,-7,56,1625449482.0,32.000000
-26,-7,57,1625449482.0,32.000000
-26,-7,57,1625449482.0,32.000000
-27,-7,56,1625449482.0,32.000000
-27,-7,56,1625449482.0,32.000000
-27,-7,56,1625449482.0,32.000000
-27,-7,57,1625449482.0,32.000000
-26,-7,57,1625449482.0,32.000000
-27,-7,56,1625449482.0,32.000000
-28,-7,57,1625449482.0,32.000000
-28,-7,56,1625449482.0,32.000000
-27,-7,56,1625449482.0,32.000000
-27,-7,57,1625449482.0,32.000000
-27,-7,57,1625449482.0,32.000000
-27,-7,57,1625449482.0,32.000000
-27,-7,56,1625449482.0,32.000000
-28,-7,56,1625449482.0,32.000000
-27,-7,57,1625449482.0,32.000000
-26,-7,57,1625449482.0,32.000000
-26,-7,55,1625449482.0,32.000000
-26,-8,56,1625449482.0,32.000000
-28,-6,55,1625449482.0,32.000000
-32,-11,57,1625449482.0,32.000000
-30,-13,60,1625449482.0,32.000000
-21,-7,64,1625449482.0,32.000000
-24,-1,55,1625449482.0,32.000000
-24,3,58,1625449482.0,32.000000
-22,5,60,1625449482.0,32.000000
-29,8,58,1625449482.0,32.000000
-21,7,55,1625449482.0,32.000000
-21,6,52,1625449482.0,32.000000
-22,4,54,1625449482.0,32.000000
-23,2,59,1625449482.0,32.000000
-22,1,63,1625449482.0,32.000000
-24,-7,62,1625449482.0,32.000000
-18,2,61,1625449482.0,32.000000
-16,1,55,1625449482.0,32.000000
-20,0,60,1625449482.0,32.000000
-20,-1,61,1625449482.0,32.000000
-20,0,60,1625449482.0,32.000000
-19,-1,59,1625449482.0,32.000000
-19,0,61,1625449482.0,32.000000
-20,-2,61,1625449482.0,32.000000
-17,-1,59,1625449482.0,32.000000
-18,0,59,1625449482.0,32.000000
-21,0,61,1625449482.0,32.000000
-20,0,61,1625449482.0,32.000000
-20,-1,60,1625449482.0,32.000000
-19,-1,60,1625449482.0,32.000000
-18,0,59,1625449482.0,32.000000
-19,0,59,1625449482.0,32.000000
-20,-1,60,1625449482.0,32.000000
-21,0,59,1625449482.0,32.000000
-20,1,63,1625449482.0,32.000000
-20,1,61,1625449482.0,32.000000
-19,1,61,1625449482.0,32.000000
-18,-1,59,1625449482.0,32.000000
-21,-1,55,1625449482.0,32.000000
-20,0,62,1625449482.0,32.000000
-19,-1,58,1625449482.0,32.000000
-19,0,63,1625449482.0,32.000000
-20,0,60,1625449482.0,32.000000
-19,0,60,1625449482.0,32.000000
-21,-1,59,1625449482.0,32.000000
-22,-3,58,1625449482.0,32.000000
-20,-1,59,1625449482.0,32.000000
-21,0,59,1625449482.0,32.000000
-22,0,60,1625449482.0,32.000000
-20,0,60,1625449482.0,32.000000
-20,0,60,1625449482.0,32.000000
-21,-1,60,1625449482.0,32.000000
-20,-2,60,1625449482.0,32.000000
-20,-1,58,1625449482.0,32.000000
-22,-1,58,1625449482.0,32.000000
-21,-1,59,1625449482.0,32.000000
-22,0,59,1625449482.0,32.000000
-21,0,62,1625449482.0,32.000000
-20,0,60,1625449482.0,32.000000
-20,0,58,1625449482.0,32.000000
-20,0,60,1625449482.0,32.000000
-21,0,59,1625449482.0,32.000000
-22,1,59,1625449482.0,32.000000
-21,0,60,1625449482.0,32.000000
-22,0,60,1625449482.0,32.000000
-21,0,60,1625449482.0,32.000000
-21,0,59,1625449482.0,32.000000
-21,0,61,1625449482.0,32.000000
-21,0,58,1625449482.0,32.000000
-22,-1,57,1625449482.0,32.000000
-22,1,60,1625449482.0,32.000000
-20,1,61,1625449482.0,32.000000
-20,2,61,1625449482.0,32.000000
-21,1,61,1625449482.0,32.000000
-23,0,60,1625449482.0,32.000000
-23,3,64,1625449482.0,32.000000
-19,4,63,1625449482.0,32.000000
-14,4,66,1625449482.0,32.000000
-14,3,63,1625449482.0,32.000000
-11,1,65,1625449482.0,32.000000
-13,3,69,1625449482.0,32.000000
-15,3,59,1625449482.0,32.000000
-13,1,59,1625449482.0,32.000000
-12,1,67,1625449482.0,32.000000
-14,2,64,1625449482.0,32.000000
-9,1,56,1625449482.0,32.000000
-12,-6,48,1625449482.0,32.000000
-5,-11,57,1625449482.0,32.000000
-1,-5,55,1625449482.0,32.000000
-3,-4,53,1625449482.0,32.000000
-9,-5,55,1625449482.0,32.000000
-10,-5,54,1625449482.0,32.000000
-10,-4,53,1625449482.0,32.000000
-18,4,58,1625449482.0,32.000000
-17,14,80,1625449482.0,32.000000
-14,14,79,1625449482.0,32.000000
-12,8,66,1625449482.0,32.000000
-7,8,62,1625449482.0,32.000000
-13,4,56,1625449482.0,32.000000
-4,5,62,1625449482.0,32.000000
-9,3,62,1625449482.0,32.000000
-19,0,66,1625449482.0,32.000000
-16,1,66,1625449482.0,32.000000
-13,4,62,1625449482.0,32.000000
-15,2,61,1625449482.0,32.000000
-16,2,62,1625449482.0,32.000000
-13,2,63,1625449482.0,32.000000
-14,1,63,1625449482.0,32.000000
-15,1,63,1625449482.0,32.000000
-15,2,61,1625449482.0,32.000000
-16,2,60,1625449482.0,32.000000
-14,2,64,1625449482.0,32.000000
-15,2,62,1625449482.0,32.000000
-15,3,61,1625449482.0,32.000000
-14,3,61,1625449482.0,32.000000
-14,2,60,1625449482.0,32.000000
-15,3,60,1625449482.0,32.000000
-13,2,61,1625449482.0,32.000000
-14,2,60,1625449482.0,32.000000
-15,2,62,1625449482.0,32.000000
-15,2,61,1625449482.0,32.000000
-16,3,61,1625449482.0,32.000000
-15,2,61,1625449482.0,32.000000
-14,2,62,1625449482.0,32.000000
-14,2,63,1625449482.0,32.000000
-15,1,62,1625449482.0,32.000000
-14,2,62,1625449482.0,32.000000
-14,2,62,1625449482.0,32.000000
-15,2,62,1625449482.0,32.000000
-15,2,61,1625449482.0,32.000000
-16,2,61,1625449482.0,32.000000
-15,2,61,1625449482.0,32.000000
-14,1,63,1625449482.0,32.000000
-14,3,61,1625449482.0,32.000000
-15,3,61,1625449482.0,32.000000
-15,2,61,1625449482.0,32.000000
-15,2,61,1625449482.0,32.000000
-14,2,62,1625449482.0,32.000000
-14,2,60,1625449482.0,32.000000
-14,2,61,1625449482.0,32.000000
-15,2,63,1625449482.0,32.000000
-13,2,61,1625449482.0,32.000000
-15,3,61,1625449482.0,32.000000
-14,2,63,1625449482.0,32.000000
-14,3,62,1625449482.0,32.000000
-15,3,58,1625449482.0,32.000000
-16,3,61,1625449482.0,32.000000
-15,3,63,1625449482.0,32.000000
-14,3,61,1625449482.0,32.000000
-15,2,62,1625449482.0,32.000000
-15,3,62,1625449482.0,32.000000
-15,3,60,1625449482.0,32.000000
-15,3,61,1625449482.0,32.000000
-14,3,61,1625449482.0,32.000000
-14,3,61,1625449482.0,32.000000
-15,3,62,1625449482.0,32.000000
-15,2,62,1625449482.0,32.000000
-15,2,62,1625449482.0,32.000000
-15,2,61,1625449482.0,32.000000
-15,3,61,1625449482.0,32.000000
-15,2,62,1625449482.0,32.000000
-15,2,61,1625449482.0,32.000000
-15,2,61,1625449482.0,32.000000
-15,2,61,1625449482.0,32.000000
-16,2,62,1625449482.0,32.000000
-15,2,61,1625449482.0,32.000000
-15,2,61,1625449482.0,32.000000
-16,2,62,1625449482.0,32.000000
-16,2,61,1625449482.0,32.000000
-16,2,61,1625449482.0,32.000000
-16,2,61,1625449482.0,32.000000
-15,1,61,1625449482.0,32.000000
-16,3,62,1625449482.0,32.000000
-16,3,63,1625449482.0,32.000000
-17,2,61,1625449482.0,32.000000
-17,3,60,1625449482.0,32.000000
-17,2,60,1625449482.0,32.000000
-15,2,61,1625449482.0,32.000000
-15,2,60,1625449482.0,32.000000
-16,3,62,1625449482.0,32.000000
-17,3,63,1625449482.0,32.000000
-16,2,61,1625449482.0,32.000000
-17,2,61,1625449482.0,32.000000
-17,3,61,1625449482.0,32.000000
-16,3,60,1625449482.0,32.000000
-16,3,60,1625449482.0,32.000000
-16,2,61,1625449482.0,32.000000
-16,2,61,1625449482.0,32.000000
-15,2,62,1625449482.0,32.000000
-14,2,61,1625449482.0,32.000000
-16,3,62,1625449482.0,32.000000
-16,2,61,1625449482.0,32.000000
-15,4,58,1625449482.0,32.000000
-20,2,63,1625449482.0,32.000000
-11,2,68,1625449482.0,32.000000
-14,6,59,1625449482.0,32.000000
-24,6,50,1625449482.0,32.000000
-20,6,57,1625449482.0,32.000000
-11,6,65,1625449482.0,32.000000
-28,-2,63,1625449482.0,32.000000
-25,-6,60,1625449482.0,32.000000
-25,-4,58,1625449482.0,32.000000
-25,-2,58,1625449482.0,32.000000
-25,-1,57,1625449482.0,32.000000
-26,-1,53,1625449482.0,32.000000
-22,-3,54,1625449482.0,32.000000
-22,-4,58,1625449482.0,32.000000
-34,-14,58,1625449482.0,32.000000
-23,-11,58,1625449482.0,32.000000
-18,-6,57,1625449482.0,32.000000
-26,-9,57,1625449482.0,32.000000
-26,-9,58,1625449482.0,32.000000
-26,-10,56,1625449482.0,32.000000
-26,-9,57,1625449482.0,32.000000
-27,-9,57,1625449482.0,32.000000
-27,-9,56,1625449482.0,32.000000
-25,-9,55,1625449482.0,32.000000
-26,-10,57,1625449482.0,32.000000
-26,-9,57,1625449482.0,32.000000
-26,-10,57,1625449482.0,32.000000
-26,-10,55,1625449482.0,32.000000
-26,-10,57,1625449482.0,32.000000
-27,-9,58,1625449482.0,32.000000
-26,-9,56,1625449482.0,32.000000
-26,-10,56,1625449482.0,32.000000
-26,-9,57,1625449482.0,32.000000
-26,-10,57,1625449482.0,32.000000
-26,-9,57,1625449482.0,32.000000
-26,-10,56,1625449482.0,32.000000
-26,-10,56,1625449482.0,32.000000
-26,-10,57,1625449482.0,32.000000
-26,-9,57,1625449482.0,32.000000
-26,-9,56,1625449482.0,32.000000
-26,-10,57,1625449482.0,32.000000
-26,-9,57,1625449482.0,32.000000
-25,-10,57,1625449482.0,32.000000
-25,-9,57,1625449482.0,32.000000
-25,-9,57,1625449482.0,32.000000
-26,-9,57,1625449482.0,32.000000
-27,-10,56,1625449482.0,32.000000
-27,-9,56,1625449482.0,32.000000
-26,-9,56,1625449482.0,32.000000
-26,-10,57,1625449482.0,32.000000
-27,-10,56,1625449482.0,32.000000
-26,-10,56,1625449482.0,32.000000
-26,-10,56,1625449482.0,32.000000
-26,-10,56,1625449482.0,32.000000
-26,-9,56,1625449482.0,32.000000
-26,-9,57,1625449482.0,32.000000
-26,-10,56,1625449482.0,32.000000
-26,-9,57,1625449482.0,32.000000
-26,-9,56,1625449482.0,32.000000
-26,-9,56,1625449482.0,32.000000
-26,-10,56,1625449482.0,32.000000
-26,-9,56,1625449482.0,32.000000
-26,-9,57,1625449482.0,32.000000
-26,-10,56,1625449482.0,32.000000
-26,-9,56,1625449482.0,32.000000
-27,-10,56,1625449482.0,32.000000
-26,-9,57,1625449482.0,32.000000
-26,-9,56,1625449482.0,32.000000
-26,-10,56,1625449482.0,32.000000
-26,-10,56,1625449482.0,32.000000
-26,-10,56,1625449482.0,32.000000
-24,-9,57,1625449482.0,32.000000
-19,-10,63,1625449482.0,32.000000
-20,-11,64,1625449482.0,32.000000
-43,-15,62,1625449482.0,32.000000
-55,-20,66,1625449482.0,32.000000
-49,-15,69,1625449482.0,32.000000
-46,-2,59,1625449482.0,32.000000
-59,4,45,1625449482.0,32.000000
-60,12,38,1625449482.0,32.000000
-53,17,37,1625449482.0,32.000000
-39,29,27,1625449482.0,32.000000
-54,29,18,1625449482.0,32.000000
-42,36,22,1625449482.0,32.000000
-25,35,15,1625449482.0,32.000000
-20,37,24,1625449482.0,32.000000
-22,36,23,1625449482.0,32.000000
-21,42,17,1625449482.0,32.000000
-21,41,19,1625449482.0,32.000000
-18,44,19,1625449482.0,32.000000
-14,39,45,1625449482.0,32.000000
-29,34,39,1625449482.0,32.000000
-36,49,22,1625449482.0,32.000000
-35,52,18,1625449482.0,32.000000
-28,53,17,1625449482.0,32.000000
-30,52,15,1625449482.0,32.000000
-43,52,17,1625449482.0,32.000000
-34,49,29,1625449482.0,32.000000
-34,49,22,1625449482.0,32.000000
-34,52,19,1625449482.0,32.000000
-31,46,31,1625449482.0,32.000000
-35,49,27,1625449482.0,32.000000
-32,52,16,1625449482.0,32.000000
-31,52,17,1625449482.0,32.000000
-29,52,19,1625449482.0,32.000000
-32,50,24,1625449482.0,32.000000
-31,50,30,1625449482.0,32.000000
-35,54,21,1625449482.0,32.000000
-18,45,32,1625449482.0,32.000000
-30,45,32,1625449482.0,32.000000
-52,45,25,1625449482.0,32.000000
-30,48,25,1625449482.0,32.000000
-30,49,22,1625449482.0,32.000000
-41,50,19,1625449482.0,32.000000
-38,49,17,1625449482.0,32.000000
-36,48,17,1625449482.0,32.000000
-38,49,13,1625449482.0,32.000000
-39,52,16,1625449482.0,32.000000
-34,53,12,1625449482.0,32.000000
-37,55,5,1625449482.0,32.000000
-10,55,29,1625449482.0,32.000000
-22,54,26,1625449482.0,32.000000
-35,53,16,1625449482.0,32.000000
-42,53,13,1625449482.0,32.000000
-28,52,21,1625449482.0,32.000000
-21,52,26,1625449482.0,32.000000
-31,54,20,1625449482.0,32.000000
-29,53,21,1625449482.0,32.000000
-24,54,23,1625449482.0,32.000000
-25,53,21,1625449482.0,32.000000
-25,53,23,1625449482.0,32.000000
-28,53,22,1625449482.0,32.000000
-30,53,22,1625449482.0,32.000000
-28,53,20,1625449482.0,32.000000
-29,53,22,1625449482.0,32.000000
-28,53,24,1625449482.0,32.000000
-29,52,23,1625449482.0,32.000000
-28,53,21,1625449482.0,32.000000
-29,53,21,1625449482.0,32.000000
-28,53,23,1625449482.0,32.000000
-28,53,22,1625449482.0,32.000000
-28,53,21,1625449482.0,32.000000
-28,53,22,1625449482.0,32.000000
-25,52,24,1625449482.0,32.000000
-33,53,18,1625449482.0,32.000000
-36,54,20,1625449482.0,32.000000
-43,55,11,1625449482.0,32.000000
-18,55,20,1625449482.0,32.000000
-6,53,27,1625449482.0,32.000000
4,50,43,1625449482.0,32.000000
-1,49,48,1625449482.0,32.000000
-19,41,41,1625449482.0,32.000000
-18,44,44,1625449482.0,32.000000
-11,46,46,1625449482.0,32.000000
-10,49,40,1625449482.0,32.000000
-7,46,42,1625449482.0,32.000000
4,41,54,1625449482.0,32.000000
5,41,55,1625449482.0,32.000000
-2,42,48,1625449482.0,32.000000
-7,44,44,1625449482.0,32.000000
-8,49,44,1625449482.0,32.000000
-9,48,40,1625449482.0,32.000000
-17,47,35,1625449482.0,32.000000
-19,48,34,1625449482.0,32.000000
-20,49,33,1625449482.0,32.000000
-6,47,44,1625449482.0,32.000000
5,46,53,1625449482.0,32.000000
7,42,56,1625449482.0,32.000000
20,36,68,1625449482.0,32.000000
27,28,70,1625449482.0,32.000000
12,37,52,1625449482.0,32.000000
0,43,39,1625449482.0,32.000000
-20,51,19,1625449482.0,32.000000
-23,55,20,1625449482.0,32.000000
-26,56,20,1625449482.0,32.000000
-41,54,19,1625449482.0,32.000000
-39,52,23,1625449482.0,32.000000
-24,51,36,1625449482.0,32.000000
-18,51,35,1625449482.0,32.000000
-14,49,39,1625449482.0,32.000000
-7,49,41,1625449482.0,32.000000
-7,49,39,1625449482.0,32.000000
-9,50,39,1625449482.0,32.000000
-15,50,36,1625449482.0,32.000000
-17,51,35,1625449482.0,32.000000
-18,51,34,1625449482.0,32.000000
-17,51,35,1625449482.0,32.000000
-16,51,35,1625449482.0,32.000000
-13,51,36,1625449482.0,32.000000
-14,51,35,1625449482.0,32.000000
-15,51,34,1625449482.0,32.000000
-18,51,35,1625449482.0,32.000000
-18,51,35,1625449482.0,32.000000
-27,52,28,1625449482.0,32.000000
-24,51,28,1625449482.0,32.000000
-13,55,30,1625449482.0,32.000000
-9,52,29,1625449482.0,32.000000
-1,48,36,1625449482.0,32.000000
14,46,54,1625449482.0,32.000000
7,43,53,1625449482.0,32.000000
-4,46,42,1625449482.0,32.000000
-18,49,38,1625449482.0,32.000000
-17,51,38,1625449482.0,32.000000
-13,50,38,1625449482.0,32.000000
-2,49,40,1625449482.0,32.000000
0,49,41,1625449482.0,32.000000
11,49,46,1625449482.0,32.000000
9,49,47,1625449482.0,32.000000
-4,50,37,1625449482.0,32.000000
-22,50,27,1625449482.0,32.000000
-22,47,31,1625449482.0,32.000000
-21,51,40,1625449482.0,32.000000
-19,50,39,1625449482.0,32.000000
-15,48,40,1625449482.0,32.000000
-10,48,40,1625449482.0,32.000000
-9,49,39,1625449482.0,32.000000
-9,49,40,1625449482.0,32.000000
-13,49,38,1625449482.0,32.000000
-14,49,37,1625449482.0,32.000000
-16,49,37,1625449482.0,32.000000
-16,49,36,1625449482.0,32.000000
-15,49,40,1625449482.0,32.000000
-14,48,37,1625449482.0,32.000000
-15,48,33,1625449482.0,32.000000
-21,48,28,1625449482.0,32.000000
-21,47,29,1625449482.0,32.000000
-23,46,31,1625449482.0,32.000000
-14,40,51,1625449482.0,32.000000
-17,34,49,1625449482.0,32.000000
-17,32,34,1625449482.0,32.000000
-14,24,54,1625449482.0,32.000000
-13,18,54,1625449482.0,32.000000
-12,22,36,1625449482.0,32.000000
-15,21,47,1625449482.0,32.000000
-21,7,56,1625449482.0,32.000000
-26,5,43,1625449482.0,32.000000
-9,2,56,1625449482.0,32.000000
-12,-1,62,1625449482.0,32.000000
-46,-10,51,1625449482.0,32.000000
-62,-21,66,1625449482.0,32.000000
-57,-74,102,1625449482.0,32.000000
-100,-27,75,1625449482.0,32.000000
-29,7,22,1625449482.0,32.000000
-50,-16,49,1625449482.0,32.000000
-51,-12,53,1625449482.0,32.000000
-36,-7,47,1625449482.0,32.000000
-36,-10,48,1625449482.0,32.000000
-40,-11,50,1625449482.0,32.000000
-42,-8,47,1625449482.0,32.000000
-40,-8,48,1625449482.0,32.000000
-38,-9,49,1625449482.0,32.000000
-39,-9,48,1625449482.0,32.000000
-40,-10,50,1625449482.0,32.000000
-39,-10,48,1625449482.0,32.000000
-39,-9,48,1625449482.0,32.000000
-41,-8,48,1625449482.0,32.000000
-39,-9,48,1625449482.0,32.000000
-39,-9,48,1625449482.0,32.000000
-40,-9,48,1625449482.0,32.000000
-39,-9,48,1625449482.0,32.000000
-40,-9,48,1625449482.0,32.000000
-40,-9,48,1625449482.0,32.000000
-40,-9,48,1625449482.0,32.000000
-39,-9,48,1625449482.0,32.000000
-39,-9,48,1625449482.0,32.000000
-40,-9,48,1625449482.0,32.000000
-40,-9,48,1625449482.0,32.000000
-40,-9,48,1625449482.0,32.000000
-40,-9,48,1625449482.0,32.000000
-40,-9,48,1625449482.0,32.000000
-40,-9,48,1625449482.0,32.000000
-40,-9,48,1625449482.0,32.000000
-40,-9,48,1625449482.0,32.000000
-40,-9,47,1625449482.0,32.000000
-40,-9,48,1625449482.0,32.000000
-40,-9,48,1625449482.0,32.000000
-40,-9,48,1625449482.0,32.000000
-40,-9,48,1625449482.0,32.000000
-40,-9,48,1625449482.0,32.000000
-40,-9,48,1625449482.0,32.000000
-40,-9,48,1625449482.0,32.000000
-40,-9,48,1625449482.0,32.000000
-40,-9,48,1625449482.0,32.000000
-40,-9,48,1625449482.0,32.000000
-40,-9,48,1625449482.0,32.000000
-40,-9,48,1625449482.0,32.000000
-40,-9,48,1625449482.0,32.000000
-40,-9,48,1625449482.0,32.000000
-41,-9,47,1625449482.0,32.000000
-40,-9,48,1625449482.0,32.000000
-40,-9,48,1625449482.0,32.000000
-41,-9,48,1625449482.0,32.000000
-41,-9,48,1625449482.0,32.000000
-41,-9,47,1625449482.0,32.000000
-40,-9,48,1625449482.0,32.000000
-40,-9,48,1625449482.0,32.000000
-40,-9,48,1625449482.0,32.000000
-41,-9,48,1625449482.0,32.000000
-40,-9,47,1625449482.0,32.000000
-40,-9,48,1625449482.0,32.000000
-41,-9,48,1625449482.0,32.000000
-40,-9,48,1625449482.0,32.000000
-40,-9,47,1625449482.0,32.000000
-41,-9,47,1625449482.0,32.000000
-41,-9,48,1625449482.0,32.000000
-40,-9,48,1625449482.0,32.000000
-40,-9,48,1625449482.0,32.000000
-41,-9,48,1625449482.0,32.000000
-40,-9,48,1625449482.0,32.000000
-41,-9,48,1625449482.0,32.000000
-40,-9,48,1625449482.0,32.000000
-40,-9,48,1625449482.0,32.000000
-41,-9,47,1625449482.0,32.000000
-41,-9,48,1625449482.0,32.000000
-40,-9,48,1625449482.0,32.000000
-41,-9,48,1625449482.0,32.000000
-41,-9,48,1625449482.0,32.000000
-41,-9,47,1625449482.0,32.000000
-40,-9,48,1625449482.0,32.000000
-40,-9,47,1625449482.0,32.000000
-40,-9,48,1625449482.0,32.000000
-41,-9,48,1625449482.0,32.000000
-41,-9,47,1625449482.0,32.000000
-41,-9,47,1625449482.0,32.000000
-41,-9,47,1625449482.0,32.000000
-41,-8,49,1625449482.0,32.000000
-40,-9,48,1625449482.0,32.000000
-41,-9,47,1625449482.0,32.000000
-40,-9,48,1625449482.0,32.000000
-40,-9,47,1625449482.0,32.000000
-41,-9,48,1625449482.0,32.000000
-40,-9,47,1625449482.0,32.000000
-41,-9,47,1625449482.0,32.000000
-41,-9,48,1625449482.0,32.000000
-41,-9,47,1625449482.0,32.000000
-41,-9,47,1625449482.0,32.000000
-41,-9,48,1625449482.0,32.000000
-40,-9,47,1625449482.0,32.000000
-41,-9,48,1625449482.0,32.000000
-41,-9,48,1625449482.0,32.000000
-40,-9,48,1625449482.0,32.000000
-41,-9,47,1625449482.0,32.000000
-40,-9,48,1625449482.0,32.000000
-40,-9,48,1625449482.0,32.000000
-41,-9,47,1625449482.0,32.000000
-41,-9,47,1625449482.0,32.000000
-41,-9,48,1625449482.0,32.000000
-40,-9,48,1625449482.0,32.000000
-40,-9,48,1625449482.0,32.000000
-41,-9,48,1625449482.0,32.000000
-41,-9,48,1625449482.0,32.000000
-40,-9,47,1625449482.0,32.000000
-41,-9,48,1625449482.0,32.000000
-40,-9,48,1625449482.0,32.000000
-40,-9,48,1625449482.0,32.000000
-40,-9,48,1625449482.0,32.000000
-41,-9,47,1625449482.0,32.000000
-40,-9,48,1625449482.0,32.000000
-40,-9,47,1625449482.0,32.000000
-40,-9,47,1625449482.0,32.000000
-41,-9,47,1625449482.0,32.000000
-41,-9,48,1625449482.0,32.000000
-40,-9,48,1625449482.0,32.000000
-40,-9,48,1625449482.0,32.000000
-41,-9,47,1625449482.0,32.000000
-41,-9,48,1625449482.0,32.000000
-40,-9,48,1625449482.0,32.000000
-41,-9,48,1625449482.0,32.000000
-40,-9,48,1625449482.0,32.000000
-40,-9,47,1625449482.0,32.000000
-41,-9,48,1625449482.0,32.000000
-40,-9,48,1625449482.0,32.000000
-41,-9,47,1625449482.0,32.000000
-40,-9,47,1625449482.0,32.000000
-41,-9,48,1625449482.0,32.000000
-40,-9,47,1625449482.0,32.000000
-41,-9,47,1625449482.0,32.000000
-41,-9,48,1625449482.0,32.000000
-40,-9,48,1625449482.0,32.000000
-40,-9,48,1625449482.0,32.000000
-40,-9,48,1625449482.0,32.000000
-41,-9,47,1625449482.0,32.000000
-40,-9,48,1625449482.0,32.000000
-40,-9,47,1625449482.0,32.000000
-41,-9,47,1625449482.0,32.000000
-40,-9,48,1625449482.0,32.000000
-40,-9,48,1625449482.0,32.000000
-41,-9,48,1625449482.0,32.000000
-41,-9,48,1625449482.0,32.000000
-41,-9,48,1625449482.0,32.000000
-41,-9,48,1625449482.0,32.000000
-41,-9,48,1625449482.0,32.000000
-41,-9,48,1625449482.0,32.000000
-41,-9,47,1625449482.0,32.000000
-41,-9,47,1625449482.0,32.000000
-40,-9,48,1625449482.0,32.000000
-40,-9,48,1625449482.0,32.000000
-41,-9,47,1625449482.0,32.000000
-40,-9,48,1625449482.0,32.000000
-40,-9,47,1625449482.0,32.000000
-40,-9,47,1625449482.0,32.000000
-41,-9,47,1625449482.0,32.000000
-40,-9,47,1625449482.0,32.000000
-41,-9,48,1625449482.0,32.000000
-41,-9,48,1625449482.0,32.000000
-41,-9,48,1625449482.0,32.000000
-40,-9,48,1625449482.0,32.000000
-41,-9,48,1625449482.0,32.000000
-40,-9,48,1625449482.0,32.000000
-41,-9,48,1625449482.0,32.000000
-41,-9,47,1625449482.0,32.000000
-41,-9,47,1625449482.0,32.000000
-41,-9,47,1625449482.0,32.000000
-40,-9,48,1625449482.0,32.000000
-41,-9,48,1625449482.0,32.000000
-41,-9,48,1625449482.0,32.000000
-41,-9,47,1625449482.0,32.000000
-41,-9,47,1625449482.0,32.000000
-41,-9,48,1625449482.0,32.000000
-41,-9,47,1625449482.0,32.000000
-41,-9,47,1625449482.0,32.000000
-41,-9,47,1625449482.0,32.000000
-41,-9,47,1625449482.0,32.000000
-41,-9,48,1625449482.0,32.000000
-41,-9,47,1625449482.0,32.000000
-41,-9,47,1625449482.0,32.000000
-40,-9,47,1625449482.0,32.000000
-41,-9,47,1625449482.0,32.000000
-41,-9,48,1625449482.0,32.000000
-41,-9,47,1625449482.0,32.000000
-41,-9,47,1625449482.0,32.000000
-41,-9,48,1625449482.0,32.000000
-41,-9,47,1625449482.0,32.000000
-41,-9,47,1625449482.0,32.000000
-40,-9,48,1625449482.0,32.000000
-41,-9,47,1625449482.0,32.000000
-41,-9,48,1625449482.0,32.000000
-41,-9,47,1625449482.0,32.000000
-41,-9,48,1625449482.0,32.000000
-41,-9,48,1625449482.0,32.000000
-41,-9,48,1625449482.0,32.000000
-41,-9,47,1625449482.0,32.000000
-41,-9,47,1625449482.0,32.000000
-41,-9,47,1625449482.0,32.000000
-40,-9,47,1625449482.0,32.000000
-41,-9,47,1625449482.0,32.000000
-41,-9,47,1625449482.0,32.000000
-41,-9,48,1625449482.0,32.000000
-40,-9,48,1625449482.0,32.000000
-40,-9,48,1625449482.0,32.000000
-40,-9,47,1625449482.0,32.000000
-41,-9,48,1625449482.0,32.000000
-40,-9,48,1625449482.0,32.000000
-40,-9,47,1625449482.0,32.000000
-41,-9,47,1625449482.0,32.000000
-41,-9,47,1625449482.0,32.000000
-40,-9,47,1625449482.0,32.000000
-41,-9,48,1625449482.0,32.000000
-41,-9,48,1625449482.0,32.000000
-40,-9,48,1625449482.0,32.000000
-40,-9,47,1625449482.0,32.000000
-40,-9,48,1625449482.0,32.000000
-40,-9,48,1625449482.0,32.000000
-41,-9,48,1625449482.0,32.000000
-40,-9,48,1625449482.0,32.000000
-40,-9,48,1625449482.0,32.000000
-41,-9,48,1625449482.0,32.000000
-41,-9,47,1625449482.0,32.000000
-40,-9,48,1625449482.0,32.000000
-40,-9,48,1625449482.0,32.000000
-41,-9,47,1625449482.0,32.000000
-40,-9,47,1625449482.0,32.000000
-40,-9,47,1625449482.0,32.000000
-41,-9,48,1625449482.0,32.000000
-40,-9,48,1625449482.0,32.000000
-40,-9,48,1625449482.0,32.000000
-40,-9,48,1625449482.0,32.000000
-40,-9,48,1625449482.0,32.000000
-41,-9,48,1625449482.0,32.000000
-40,-9,48,1625449482.0,32.000000
-40,-9,47,1625449482.0,32.000000
-40,-9,48,1625449482.0,32.000000
-40,-9,48,1625449482.0,32.000000
-41,-9,47,1625449482.0,32.000000
-40,-9,48,1625449482.0,32.000000
-40,-9,48,1625449482.0,32.000000
-40,-9,47,1625449482.0,32.000000
-40,-9,48,1625449482.0,32.000000
-40,-9,48,1625449482.0,32.000000
-40,-9,48,1625449482.0,32.000000
-40,-9,48,1625449482.0,32.000000
-40,-9,48,1625449482.0,32.000000
-41,-9,48,1625449482.0,32.000000
-40,-9,48,1625449482.0,32.000000
-40,-9,48,1625449482.0,32.000000
-40,-9,48,1625449482.0,32.000000
-40,-9,48,1625449482.0,32.000000
-40,-9,47,1625449482.0,32.000000
-41,-9,47,1625449482.0,32.000000
-40,-9,48,1625449482.0,32.000000
-40,-9,47,1625449482.0,32.000000
-41,-9,48,1625449482.0,32.000000
-41,-9,48,1625449482.0,32.000000
-40,-9,48,1625449482.0,32.000000
-40,-9,47,1625449482.0,32.000000
-40,-9,47,1625449482.0,32.000000
-40,-9,48,1625449482.0,32.000000
-41,-9,48,1625449482.0,32.000000
-40,-9,48,1625449482.0,32.000000
-40,-9,48,1625449482.0,32.000000
-40,-9,48,1625449482.0,32.000000
-40,-9,48,1625449482.0,32.000000
-41,-9,48,1625449482.0,32.000000
-41,-9,48,1625449482.0,32.000000
-40,-9,48,1625449482.0,32.000000
-41,-9,48,1625449482.0,32.000000
-41,-9,48,1625449482.0,32.000000
-40,-9,48,1625449482.0,32.000000
-40,-9,47,1625449482.0,32.000000
-41,-9,48,1625449482.0,32.000000
-41,-9,47,1625449482.0,32.000000
-41,-9,47,1625449482.0,32.000000
-41,-9,47,1625449482.0,32.000000
-41,-9,47,1625449482.0,32.000000
-40,-9,48,1625449482.0,32.000000
-42,-10,47,1625449482.0,32.000000
-42,-9,47,1625449482.0,32.000000
-40,-10,47,1625449482.0,32.000000
-41,-8,48,1625449482.0,32.000000
-42,-9,48,1625449482.0,32.000000
-43,-10,43,1625449482.0,32.000000
-44,-8,43,1625449482.0,32.000000
-40,-11,56,1625449482.0,32.000000
-34,-10,56,1625449482.0,32.000000
-28,-7,62,1625449482.0,32.000000
-35,-6,51,1625449482.0,32.000000
-37,-3,50,1625449482.0,32.000000
-32,-2,53,1625449482.0,32.000000
-19,-4,65,1625449482.0,32.000000
-22,-2,55,1625449482.0,32.000000
-32,0,50,1625449482.0,32.000000
-29,0,50,1625449482.0,32.000000
-24,-2,61,1625449482.0,32.000000
-27,0,63,1625449482.0,32.000000
-30,-1,60,1625449482.0,32.000000
-25,1,59,1625449482.0,32.000000
-22,0,54,1625449482.0,32.000000
-23,2,56,1625449482.0,32.000000
-26,4,61,1625449482.0,32.000000
-27,2,60,1625449482.0,32.000000
-24,4,61,1625449482.0,32.000000
-25,-2,66,1625449482.0,32.000000
-24,-2,71,1625449482.0,32.000000
-25,-62,62,1625449482.0,32.000000
-30,29,62,1625449482.0,32.000000
-23,4,37,1625449482.0,32.000000
-27,2,47,1625449482.0,32.000000
-27,3,51,1625449482.0,32.000000
-31,-2,55,1625449482.0,32.000000
-31,-6,61,1625449482.0,32.000000
-31,-6,62,1625449482.0,32.000000
-31,-4,54,1625449482.0,32.000000
-31,-2,53,1625449482.0,32.000000
-30,-3,55,1625449482.0,32.000000
-28,-5,60,1625449482.0,32.000000
-26,-5,59,1625449482.0,32.000000
-29,-4,55,1625449482.0,32.000000
-29,-3,55,1625449482.0,32.000000
-27,-4,57,1625449482.0,32.000000
-25,-4,56,1625449482.0,32.000000
-25,-4,55,1625449482.0,32.000000
-24,-3,55,1625449482.0,32.000000
-23,-1,55,1625449482.0,32.000000
-25,-3,55,1625449482.0,32.000000
-23,2,53,1625449482.0,32.000000
-26,1,53,1625449482.0,32.000000
-25,-1,55,1625449482.0,32.000000
-21,-5,63,1625449482.0,32.000000
-16,-7,69,1625449482.0,32.000000
-33,-19,75,1625449482.0,32.000000
-30,-2,64,1625449482.0,32.000000
-24,-2,48,1625449482.0,32.000000
-33,-3,53,1625449482.0,32.000000
-34,-6,58,1625449482.0,32.000000
-27,-5,57,1625449482.0,32.000000
-26,-6,55,1625449482.0,32.000000
-27,-6,57,1625449482.0,32.000000
-24,-7,58,1625449482.0,32.000000
-24,-6,57,1625449482.0,32.000000
-24,-8,63,1625449482.0,32.000000
-24,-6,64,1625449482.0,32.000000
-26,-3,64,1625449482.0,32.000000
-24,-5,66,1625449482.0,32.000000
-26,-2,64,1625449482.0,32.000000
-20,3,56,1625449482.0,32.000000
-26,-17,44,1625449482.0,32.000000
-27,2,53,1625449482.0,32.000000
-33,-2,52,1625449482.0,32.000000
-32,-3,49,1625449482.0,32.000000
-22,-2,54,1625449482.0,32.000000
-14,-4,65,1625449482.0,32.000000
-15,-5,67,1625449482.0,32.000000
-20,-5,65,1625449482.0,32.000000
-24,-2,57,1625449482.0,32.000000
-25,-2,56,1625449482.0,32.000000
-25,-2,58,1625449482.0,32.000000
-23,-3,61,1625449482.0,32.000000
-21,-3,59,1625449482.0,32.000000
-20,-3,60,1625449482.0,32.000000
-21,-3,61,1625449482.0,32.000000
-22,-3,59,1625449482.0,32.000000
-23,-2,58,1625449482.0,32.000000
-23,-3,58,1625449482.0,32.000000
-22,-3,59,1625449482.0,32.000000
-21,-3,60,1625449482.0,32.000000
-21,-3,59,1625449482.0,32.000000
-21,-3,60,1625449482.0,32.000000
-21,-3,59,1625449482.0,32.000000
-21,-3,60,1625449482.0,32.000000
-21,-3,60,1625449482.0,32.000000
-21,-3,60,1625449482.0,32.000000
-21,-3,59,1625449482.0,32.000000
-22,-3,59,1625449482.0,32.000000
-21,-3,59,1625449482.0,32.000000
-22,-3,60,1625449482.0,32.000000
-21,-3,60,1625449482.0,32.000000
-21,-3,59,1625449482.0,32.000000
-20,-3,59,1625449482.0,32.000000
-21,-3,59,1625449482.0,32.000000
-22,-3,59,1625449482.0,32.000000
-21,-3,60,1625449482.0,32.000000
-21,-2,60,1625449482.0,32.000000
-21,-3,59,1625449482.0,32.000000
-22,-4,61,1625449482.0,32.000000
-21,-2,58,1625449482.0,32.000000
-21,-1,57,1625449482.0,32.000000
-21,-2,60,1625449482.0,32.000000
-21,-3,61,1625449482.0,32.000000
-22,-3,59,1625449482.0,32.000000
-21,-3,59,1625449482.0,32.000000
-20,-3,59,1625449482.0,32.000000
-21,-3,60,1625449482.0,32.000000
-20,-3,60,1625449482.0,32.000000
-21,-3,60,1625449482.0,32.000000
-21,-3,59,1625449482.0,32.000000
-21,-3,59,1625449482.0,32.000000
-21,-3,59,1625449482.0,32.000000
-21,-3,60,1625449482.0,32.000000
-21,-3,60,1625449482.0,32.000000
-21,-3,59,1625449482.0,32.000000
-20,-3,60,1625449482.0,32.000000
-20,-3,60,1625449482.0,32.000000
-20,-3,60,1625449482.0,32.000000
-20,-3,60,1625449482.0,32.000000
-21,-3,59,1625449482.0,32.000000
-21,-3,60,1625449482.0,32.000000
-20,-3,60,1625449482.0,32.000000
-20,-3,59,1625449482.0,32.000000
-21,-3,60,1625449482.0,32.000000
-21,-3,60,1625449482.0,32.000000
-21,-3,59,1625449482.0,32.000000
-21,-3,60,1625449482.0,32.000000
-20,-3,60,1625449482.0,32.000000
-20,-3,60,1625449482.0,32.000000
-21,-3,61,1625449482.0,32.000000
-19,-4,60,1625449482.0,32.000000
-20,-2,57,1625449482.0,32.000000
-20,-1,56,1625449482.0,32.000000
-21,-1,55,1625449482.0,32.000000
-31,2,55,1625449482.0,32.000000
-20,-3,64,1625449482.0,32.000000
-18,-2,64,1625449482.0,32.000000
-21,-2,62,1625449482.0,32.000000
-24,-3,56,1625449482.0,32.000000
-41,-20,51,1625449482.0,32.000000
-14,2,70,1625449482.0,32.000000
-10,-12,64,1625449482.0,32.000000
-23,-9,54,1625449482.0,32.000000
-41,-4,57,1625449482.0,32.000000
-27,-7,68,1625449482.0,32.000000
-18,-4,69,1625449482.0,32.000000
-21,-1,64,1625449482.0,32.000000
-23,2,54,1625449482.0,32.000000
-24,4,41,1625449482.0,32.000000
-23,5,40,1625449482.0,32.000000
-24,2,56,1625449482.0,32.000000
-28,5,58,1625449482.0,32.000000
-29,-6,59,1625449482.0,32.000000
-15,-3,62,1625449482.0,32.000000
-13,-3,63,1625449482.0,32.000000
-18,-3,63,1625449482.0,32.000000
-21,-2,61,1625449482.0,32.000000
-22,-2,59,1625449482.0,32.000000
-22,-2,59,1625449482.0,32.000000
-21,-2,59,1625449482.0,32.000000
-19,-2,60,1625449482.0,32.000000
-19,-2,61,1625449482.0,32.000000
-19,-2,61,1625449482.0,32.000000
-20,-2,60,1625449482.0,32.000000
-20,-2,60,1625449482.0,32.000000
-20,-2,61,1625449482.0,32.000000
-20,-2,60,1625449482.0,32.000000
-19,-2,60,1625449482.0,32.000000
-19,-2,60,1625449482.0,32.000000
-20,-2,59,1625449482.0,32.000000
-20,-1,59,1625449482.0,32.000000
-20,-2,59,1625449482.0,32.000000
-20,-2,60,1625449482.0,32.000000
-20,-2,60,1625449482.0,32.000000
-20,-2,60,1625449482.0,32.000000
-19,-2,61,1625449482.0,32.000000
-20,-3,61,1625449482.0,32.000000
-21,-3,60,1625449482.0,32.000000
-18,-2,57,1625449482.0,32.000000
-20,-1,55,1625449482.0,32.000000
-20,1,52,1625449482.0,32.000000
-26,3,54,1625449482.0,32.000000
-30,0,56,1625449482.0,32.000000
-27,1,54,1625449482.0,32.000000
-11,2,54,1625449482.0,32.000000
-15,3,54,1625449482.0,32.000000
-28,-1,53,1625449482.0,32.000000
-23,-5,61,1625449482.0,32.000000
-22,-9,65,1625449482.0,32.000000
-34,-11,64,1625449482.0,32.000000
-32,-10,62,1625449482.0,32.000000
-28,-9,58,1625449482.0,32.000000
-29,-10,56,1625449482.0,32.000000
-29,-8,54,1625449482.0,32.000000
-29,-10,56,1625449482.0,32.000000
-39,-14,55,1625449482.0,32.000000
-40,-14,53,1625449482.0,32.000000
-36,-8,49,1625449482.0,32.000000
-35,-9,49,1625449482.0,32.000000
-37,-10,50,1625449482.0,32.000000
-44,-9,49,1625449482.0,32.000000
-45,-9,48,1625449482.0,32.000000
-41,-9,47,1625449482.0,32.000000
-39,-10,48,1625449482.0,32.000000
-39,-9,49,1625449482.0,32.000000
-38,-9,49,1625449482.0,32.000000
-39,-9,49,1625449482.0,32.000000
-40,-9,48,1625449482.0,32.000000
-39,-9,49,1625449482.0,32.000000
-39,-9,49,1625449482.0,32.000000
-39,-9,48,1625449482.0,32.000000
-39,-9,49,1625449482.0,32.000000
-39,-9,49,1625449482.0,32.000000
-39,-9,49,1625449482.0,32.000000
-39,-9,48,1625449482.0,32.000000
-39,-9,49,1625449482.0,32.000000
-39,-9,48,1625449482.0,32.000000
-39,-9,49,1625449482.0,32.000000
-39,-9,48,1625449482.0,32.000000
-39,-9,49,1625449482.0,32.000000
-39,-9,48,1625449482.0,32.000000
-39,-9,49,1625449482.0,32.000000
-39,-9,48,1625449482.0,32.000000
-39,-9,48,1625449482.0,32.000000
-39,-10,49,1625449482.0,32.000000
-39,-9,49,1625449482.0,32.000000
-40,-9,48,1625449482.0,32.000000
-39,-9,48,1625449482.0,32.000000
-38,-9,49,1625449482.0,32.000000
-39,-10,49,1625449482.0,32.000000
-39,-9,48,1625449482.0,32.000000
-39,-10,48,1625449482.0,32.000000
-39,-9,48,1625449482.0,32.000000
-39,-9,49,1625449482.0,32.000000
-39,-9,49,1625449482.0,32.000000
-39,-9,48,1625449482.0,32.000000
-39,-9,48,1625449482.0,32.000000
-39,-9,49,1625449482.0,32.000000
-39,-10,48,1625449482.0,32.000000
-39,-10,49,1625449482.0,32.000000
-39,-9,48,1625449482.0,32.000000
-39,-9,48,1625449482.0,32.000000
-39,-9,49,1625449482.0,32.000000
-39,-9,49,1625449482.0,32.000000
-39,-9,49,1625449482.0,32.000000
-39,-10,48,1625449482.0,32.000000
-39,-10,48,1625449482.0,32.000000
-39,-9,49,1625449482.0,32.000000
-39,-9,49,1625449482.0,32.000000
-39,-10,48,1625449482.0,32.000000
-39,-9,48,1625449482.0,32.000000
-39,-10,49,1625449482.0,32.000000
-39,-9,49,1625449482.0,32.000000
-39,-10,49,1625449482.0,32.000000
-39,-10,49,1625449482.0,32.000000
-39,-10,49,1625449482.0,32.000000
-39,-10,49,1625449482.0,32.000000
-39,-10,48,1625449482.0,32.000000
-39,-10,49,1625449482.0,32.000000
-39,-9,49,1625449482.0,32.000000
-39,-10,49,1625449482.0,32.000000
-39,-10,49,1625449482.0,32.000000
-39,-10,49,1625449482.0,32.000000
-39,-9,48,1625449482.0,32.000000
-39,-9,49,1625449482.0,32.000000
-39,-10,49,1625449482.0,32.000000
-39,-10,49,1625449482.0,32.000000
-39,-9,49,1625449482.0,32.000000
-39,-10,49,1625449482.0,32.000000
-39,-10,49,1625449482.0,32.000000
-39,-9,48,1625449482.0,32.000000
-39,-10,49,1625449482.0,32.000000
-39,-10,48,1625449482.0,32.000000
-39,-10,48,1625449482.0,32.000000
-40,-10,48,1625449482.0,32.000000
-39,-10,48,1625449482.0,32.000000
-38,-9,49,1625449482.0,32.000000
-40,-10,49,1625449482.0,32.000000
-41,-10,49,1625449482.0,32.000000
-39,-10,49,1625449482.0,32.000000
-39,-9,47,1625449482.0,32.000000
-34,-10,51,1625449482.0,32.000000
-42,-11,52,1625449482.0,32.000000
-44,-5,49,1625449482.0,32.000000
-40,-17,53,1625449482.0,32.000000
-26,-13,59,1625449482.0,32.000000
-22,-11,64,1625449482.0,32.000000
-29,-14,59,1625449482.0,32.000000
-24,-5,48,1625449482.0,32.000000
-18,-1,49,1625449482.0,32.000000
-29,-9,53,1625449482.0,32.000000
-22,-6,61,1625449482.0,32.000000
-19,-8,53,1625449482.0,32.000000
-23,-9,54,1625449482.0,32.000000
-27,-10,55,1625449482.0,32.000000
-29,-11,56,1625449482.0,32.000000
-29,-10,56,1625449482.0,32.000000
-28,-10,56,1625449482.0,32.000000
-26,-9,55,1625449482.0,32.000000
-26,-10,55,1625449482.0,32.000000
-27,-10,54,1625449482.0,32.000000
-32,-7,50,1625449482.0,32.000000
-31,-7,47,1625449482.0,32.000000
-20,1,46,1625449482.0,32.000000
-35,-19,67,1625449482.0,32.000000
-36,-12,61,1625449482.0,32.000000
-31,-10,52,1625449482.0,32.000000
-34,-16,57,1625449482.0,32.000000
-30,-11,55,1625449482.0,32.000000
-29,-14,49,1625449482.0,32.000000
-22,-12,60,1625449482.0,32.000000
-34,-13,50,1625449482.0,32.000000
-33,-10,52,1625449482.0,32.000000
-32,-12,53,1625449482.0,32.000000
-34,-11,53,1625449482.0,32.000000
-34,-11,53,1625449482.0,32.000000
-33,-11,52,1625449482.0,32.000000
-33,-11,52,1625449482.0,32.000000
-33,-11,52,1625449482.0,32.000000
-33,-11,52,1625449482.0,32.000000
-33,-11,52,1625449482.0,32.000000
-34,-11,52,1625449482.0,32.000000
-33,-11,52,1625449482.0,32.000000
-34,-11,52,1625449482.0,32.000000
-34,-11,52,1625449482.0,32.000000
-34,-11,52,1625449482.0,32.000000
-34,-11,52,1625449482.0,32.000000
-34,-11,52,1625449482.0,32.000000
-34,-11,52,1625449482.0,32.000000
-34,-11,52,1625449482.0,32.000000
-34,-11,52,1625449482.0,32.000000
-34,-11,52,1625449482.0,32.000000
-34,-11,52,1625449482.0,32.000000
-34,-11,52,1625449482.0,32.000000
-34,-11,52,1625449482.0,32.000000
-34,-11,52,1625449482.0,32.000000
-34,-11,52,1625449482.0,32.000000
-34,-12,52,1625449482.0,32.000000
-34,-11,53,1625449482.0,32.000000
-34,-11,51,1625449482.0,32.000000
-36,-12,52,1625449482.0,32.000000
-36,-11,51,1625449482.0,32.000000
-33,-11,56,1625449482.0,32.000000
-33,-11,51,1625449482.0,32.000000
-34,-13,55,1625449482.0,32.000000
-30,-12,55,1625449482.0,32.000000
-29,-11,55,1625449482.0,32.000000
-26,-11,54,1625449482.0,32.000000
-34,-17,50,1625449482.0,32.000000
-33,-14,49,1625449482.0,32.000000
-34,-12,53,1625449482.0,32.000000
-33,-12,52,1625449482.0,32.000000
-32,-12,53,1625449482.0,32.000000
-35,-11,50,1625449482.0,32.000000
-37,-10,47,1625449482.0,32.000000
-25,-14,64,1625449482.0,32.000000
-29,-18,58,1625449482.0,32.000000
-34,-10,49,1625449482.0,32.000000
-34,-12,53,1625449482.0,32.000000
-33,-11,55,1625449482.0,32.000000
-32,-13,52,1625449482.0,32.000000
-33,-12,50,1625449482.0,32.000000
-36,-7,52,1625449482.0,32.000000
-31,-12,49,1625449482.0,32.000000
-27,-14,63,1625449482.0,32.000000
-28,-13,54,1625449482.0,32.000000
-36,-12,51,1625449482.0,32.000000
-41,-9,49,1625449482.0,32.000000
-41,-11,44,1625449482.0,32.000000
-26,-16,58,1625449482.0,32.000000
-29,-16,50,1625449482.0,32.000000
-31,-11,49,1625449482.0,32.000000
-37,-13,52,1625449482.0,32.000000
-35,-10,59,1625449482.0,32.000000
-34,-13,55,1625449482.0,32.000000
-33,-12,51,1625449482.0,32.000000
-38,-12,51,1625449482.0,32.000000
-38,-10,49,1625449482.0,32.000000
-23,-14,67,1625449482.0,32.000000
-25,-11,51,1625449482.0,32.000000
-35,-12,49,1625449482.0,32.000000
-36,-11,53,1625449482.0,32.000000
-35,-12,52,1625449482.0,32.000000
-31,-12,57,1625449482.0,32.000000
-39,-12,48,1625449482.0,32.000000
-21,-13,61,1625449482.0,32.000000
-31,-13,48,1625449482.0,32.000000
-32,-11,50,1625449482.0,32.000000
-32,-12,53,1625449482.0,32.000000
-33,-12,54,1625449482.0,32.000000
-33,-12,54,1625449482.0,32.000000
-32,-12,53,1625449482.0,32.000000
-33,-12,53,1625449482.0,32.000000
-33,-12,53,1625449482.0,32.000000
-32,-12,53,1625449482.0,32.000000
-32,-12,53,1625449482.0,32.000000
-33,-12,53,1625449482.0,32.000000
-32,-12,53,1625449482.0,32.000000
-33,-12,53,1625449482.0,32.000000
-32,-12,53,1625449482.0,32.000000
-33,-12,52,1625449482.0,32.000000
-33,-12,52,1625449482.0,32.000000
-36,-11,50,1625449482.0,32.000000
-29,-14,58,1625449482.0,32.000000
-33,-12,49,1625449482.0,32.000000
-32,-12,54,1625449482.0,32.000000
-31,-10,55,1625449482.0,32.000000
-22,-14,64,1625449482.0,32.000000
-34,-10,51,1625449482.0,32.000000
-34,-10,50,1625449482.0,32.000000
-33,-11,52,1625449482.0,32.000000
-33,-12,53,1625449482.0,32.000000
-32,-12,54,1625449482.0,32.000000
-32,-12,53,1625449482.0,32.000000
-33,-12,52,1625449482.0,32.000000
-33,-12,53,1625449482.0,32.000000
-33,-12,53,1625449482.0,32.000000
-32,-12,53,1625449482.0,32.000000
-33,-12,53,1625449482.0,32.000000
-33,-12,53,1625449482.0,32.000000
-33,-12,52,1625449482.0,32.000000
-32,-12,53,1625449482.0,32.000000
-33,-12,53,1625449482.0,32.000000
-33,-12,53,1625449482.0,32.000000
-33,-12,53,1625449482.0,32.000000
-33,-12,53,1625449482.0,32.000000
-33,-12,53,1625449482.0,32.000000
-33,-12,53,1625449482.0,32.000000
-33,-12,53,1625449482.0,32.000000
-33,-12,53,1625449482.0,32.000000
-33,-12,52,1625449482.0,32.000000
-33,-12,53,1625449482.0,32.000000
-33,-12,53,1625449482.0,32.000000
-33,-12,52,1625449482.0,32.000000
-33,-12,52,1625449482.0,32.000000
-34,-12,52,1625449482.0,32.000000
-31,-12,55,1625449482.0,32.000000
-33,-12,52,1625449482.0,32.000000
-32,-12,54,1625449482.0,32.000000
-33,-12,53,1625449482.0,32.000000
-32,-12,56,1625449482.0,32.000000
-30,-9,52,1625449482.0,32.000000
-40,-15,46,1625449482.0,32.000000
-35,-12,49,1625449482.0,32.000000
-32,-13,50,1625449482.0,32.000000
-33,-12,52,1625449482.0,32.000000
-33,-12,53,1625449482.0,32.000000
-33,-12,53,1625449482.0,32.000000
