ACC_X,ACC_Y,ACC_Z,start_time_unix,sampling_rate
-17,-3,62,1625921379.0,32.000000
-17,-3,62,1625921379.0,32.000000
-16,-3,62,1625921379.0,32.000000
-15,-3,61,1625921379.0,32.000000
-16,-3,61,1625921379.0,32.000000
-16,-3,62,1625921379.0,32.000000
-16,-3,62,1625921379.0,32.000000
-8,-3,70,1625921379.0,32.000000
-13,6,62,1625921379.0,32.000000
-8,-11,70,1625921379.0,32.000000
-39,-34,58,1625921379.0,32.000000
-23,0,57,1625921379.0,32.000000
-20,-3,60,1625921379.0,32.000000
-18,3,60,1625921379.0,32.000000
-8,8,62,1625921379.0,32.000000
-16,7,63,1625921379.0,32.000000
-21,-8,69,1625921379.0,32.000000
-31,-8,58,1625921379.0,32.000000
-35,-25,47,1625921379.0,32.000000
-25,-17,67,1625921379.0,32.000000
-2,11,76,1625921379.0,32.000000
5,3,62,1625921379.0,32.000000
11,2,53,1625921379.0,32.000000
-1,5,57,1625921379.0,32.000000
-19,9,69,1625921379.0,32.000000
-23,10,62,1625921379.0,32.000000
-13,2,72,1625921379.0,32.000000
-5,-9,73,1625921379.0,32.000000
-5,2,62,1625921379.0,32.000000
-8,8,57,1625921379.0,32.000000
-9,12,69,1625921379.0,32.000000
-25,11,70,1625921379.0,32.000000
-13,-6,58,1625921379.0,32.000000
-16,-4,59,1625921379.0,32.000000
-1,-1,66,1625921379.0,32.000000
1,-2,65,1625921379.0,32.000000
-2,-2,64,1625921379.0,32.000000
-7,-2,65,1625921379.0,32.000000
0,-3,66,1625921379.0,32.000000
-3,-3,64,1625921379.0,32.000000
-7,-5,62,1625921379.0,32.000000
-5,-6,64,1625921379.0,32.000000
-6,-5,62,1625921379.0,32.000000
-3,-4,65,1625921379.0,32.000000
6,-3,63,1625921379.0,32.000000
-8,-8,65,1625921379.0,32.000000
-12,-15,68,1625921379.0,32.000000
16,10,74,1625921379.0,32.000000
4,-14,68,1625921379.0,32.000000
-11,-8,47,1625921379.0,32.000000
1,4,57,1625921379.0,32.000000
8,-3,56,1625921379.0,32.000000
13,4,65,1625921379.0,32.000000
10,-6,63,1625921379.0,32.000000
14,-11,53,1625921379.0,32.000000
11,2,66,1625921379.0,32.000000
15,4,69,1625921379.0,32.000000
11,-12,55,1625921379.0,32.000000
12,-4,60,1625921379.0,32.000000
11,3,63,1625921379.0,32.000000
14,-7,57,1625921379.0,32.000000
15,-7,68,1625921379.0,32.000000
16,-8,65,1625921379.0,32.000000
10,-10,59,1625921379.0,32.000000
7,-13,56,1625921379.0,32.000000
7,-6,62,1625921379.0,32.000000
11,-4,61,1625921379.0,32.000000
12,3,64,1625921379.0,32.000000
6,-4,66,1625921379.0,32.000000
5,-5,63,1625921379.0,32.000000
3,0,63,1625921379.0,32.000000
3,-1,60,1625921379.0,32.000000
12,-25,65,1625921379.0,32.000000
9,-19,69,1625921379.0,32.000000
15,-2,62,1625921379.0,32.000000
15,2,58,1625921379.0,32.000000
6,-3,62,1625921379.0,32.000000
10,-4,64,1625921379.0,32.000000
1,-2,61,1625921379.0,32.000000
14,3,67,1625921379.0,32.000000
-5,-11,56,1625921379.0,32.000000
16,-9,64,1625921379.0,32.000000
12,-8,59,1625921379.0,32.000000
40,-6,50,1625921379.0,32.000000
-2,-12,59,1625921379.0,32.000000
-10,1,63,1625921379.0,32.000000
11,3,77,1625921379.0,32.000000
11,-12,69,1625921379.0,32.000000
23,-17,66,1625921379.0,32.000000
29,9,66,1625921379.0,32.000000
17,9,61,1625921379.0,32.000000
1,4,59,1625921379.0,32.000000
3,-5,62,1625921379.0,32.000000
18,-26,55,1625921379.0,32.000000
15,-23,55,1625921379.0,32.000000
10,15,74,1625921379.0,32.000000
-3,-9,60,1625921379.0,32.000000
9,-8,64,1625921379.0,32.000000
8,-10,64,1625921379.0,32.000000
4,-9,62,1625921379.0,32.000000
5,-8,61,1625921379.0,32.000000
3,-8,60,1625921379.0,32.000000
4,-8,60,1625921379.0,32.000000
6,-7,60,1625921379.0,32.000000
5,-6,60,1625921379.0,32.000000
4,-4,60,1625921379.0,32.000000
5,-3,60,1625921379.0,32.000000
5,-1,60,1625921379.0,32.000000
4,0,61,1625921379.0,32.000000
3,1,61,1625921379.0,32.000000
0,-2,57,1625921379.0,32.000000
2,-1,59,1625921379.0,32.000000
2,-3,60,1625921379.0,32.000000
3,-3,67,1625921379.0,32.000000
6,-4,66,1625921379.0,32.000000
6,-6,63,1625921379.0,32.000000
3,-4,68,1625921379.0,32.000000
0,-6,70,1625921379.0,32.000000
0,-8,69,1625921379.0,32.000000
3,-6,70,1625921379.0,32.000000
-20,-7,59,1625921379.0,32.000000
-38,-6,51,1625921379.0,32.000000
-43,-6,50,1625921379.0,32.000000
-33,-7,55,1625921379.0,32.000000
-18,-11,58,1625921379.0,32.000000
-16,-9,58,1625921379.0,32.000000
-9,-6,64,1625921379.0,32.000000
1,-4,73,1625921379.0,32.000000
-10,-1,68,1625921379.0,32.000000
-13,-3,61,1625921379.0,32.000000
-6,-5,57,1625921379.0,32.000000
-4,-4,59,1625921379.0,32.000000
-21,0,64,1625921379.0,32.000000
-21,-2,68,1625921379.0,32.000000
-19,-4,60,1625921379.0,32.000000
-24,-3,58,1625921379.0,32.000000
-23,-5,62,1625921379.0,32.000000
-15,-5,60,1625921379.0,32.000000
-13,-2,60,1625921379.0,32.000000
-16,-1,63,1625921379.0,32.000000
-13,-2,64,1625921379.0,32.000000
-18,-3,60,1625921379.0,32.000000
-15,-3,62,1625921379.0,32.000000
-14,-4,63,1625921379.0,32.000000
-12,-4,60,1625921379.0,32.000000
-14,-2,63,1625921379.0,32.000000
-15,-3,64,1625921379.0,32.000000
-13,-3,60,1625921379.0,32.000000
-15,-3,63,1625921379.0,32.000000
-15,-3,62,1625921379.0,32.000000
-12,-3,61,1625921379.0,32.000000
-12,-3,63,1625921379.0,32.000000
-13,-3,63,1625921379.0,32.000000
-11,-4,61,1625921379.0,32.000000
-9,-3,61,1625921379.0,32.000000
-13,-3,62,1625921379.0,32.000000
-15,-3,63,1625921379.0,32.000000
-18,-4,61,1625921379.0,32.000000
-18,-3,61,1625921379.0,32.000000
-14,-3,62,1625921379.0,32.000000
-12,-3,61,1625921379.0,32.000000
-14,-3,62,1625921379.0,32.000000
-18,-2,63,1625921379.0,32.000000
-15,-4,61,1625921379.0,32.000000
-17,-2,61,1625921379.0,32.000000
-22,-2,65,1625921379.0,32.000000
-13,-5,61,1625921379.0,32.000000
-7,-4,59,1625921379.0,32.000000
-7,-3,64,1625921379.0,32.000000
-5,-4,63,1625921379.0,32.000000
0,-5,60,1625921379.0,32.000000
-1,-4,61,1625921379.0,32.000000
-4,-5,62,1625921379.0,32.000000
-2,-5,60,1625921379.0,32.000000
-9,-3,60,1625921379.0,32.000000
-18,-3,64,1625921379.0,32.000000
-30,-5,62,1625921379.0,32.000000
-34,1,57,1625921379.0,32.000000
-36,1,55,1625921379.0,32.000000
-33,1,56,1625921379.0,32.000000
-26,0,59,1625921379.0,32.000000
-24,0,59,1625921379.0,32.000000
-26,-1,58,1625921379.0,32.000000
-28,-1,57,1625921379.0,32.000000
-28,0,58,1625921379.0,32.000000
-28,0,58,1625921379.0,32.000000
-27,-1,57,1625921379.0,32.000000
-27,0,58,1625921379.0,32.000000
-28,0,57,1625921379.0,32.000000
-28,0,58,1625921379.0,32.000000
-27,0,57,1625921379.0,32.000000
-27,0,58,1625921379.0,32.000000
-27,0,58,1625921379.0,32.000000
-27,0,57,1625921379.0,32.000000
-28,0,58,1625921379.0,32.000000
-28,-1,57,1625921379.0,32.000000
-27,0,57,1625921379.0,32.000000
-27,0,57,1625921379.0,32.000000
-28,-1,58,1625921379.0,32.000000
-28,0,57,1625921379.0,32.000000
-28,0,57,1625921379.0,32.000000
-28,0,57,1625921379.0,32.000000
-28,0,58,1625921379.0,32.000000
-28,0,58,1625921379.0,32.000000
-28,0,57,1625921379.0,32.000000
-28,0,58,1625921379.0,32.000000
-27,0,58,1625921379.0,32.000000
-27,0,57,1625921379.0,32.000000
-28,0,57,1625921379.0,32.000000
-28,0,57,1625921379.0,32.000000
-28,0,57,1625921379.0,32.000000
-28,0,57,1625921379.0,32.000000
-28,0,57,1625921379.0,32.000000
-28,0,57,1625921379.0,32.000000
-28,0,57,1625921379.0,32.000000
-28,0,58,1625921379.0,32.000000
-28,0,57,1625921379.0,32.000000
-27,0,58,1625921379.0,32.000000
-28,0,57,1625921379.0,32.000000
-28,0,57,1625921379.0,32.000000
-28,0,57,1625921379.0,32.000000
-28,0,57,1625921379.0,32.000000
-28,0,57,1625921379.0,32.000000
-28,0,57,1625921379.0,32.000000
-28,0,57,1625921379.0,32.000000
-28,0,57,1625921379.0,32.000000
-28,0,57,1625921379.0,32.000000
-28,0,57,1625921379.0,32.000000
-28,0,57,1625921379.0,32.000000
-28,0,57,1625921379.0,32.000000
-28,0,57,1625921379.0,32.000000
-28,0,57,1625921379.0,32.000000
-28,0,57,1625921379.0,32.000000
-28,0,57,1625921379.0,32.000000
-28,0,57,1625921379.0,32.000000
-28,0,57,1625921379.0,32.000000
-28,0,57,1625921379.0,32.000000
-28,0,57,1625921379.0,32.000000
-28,0,57,1625921379.0,32.000000
-28,0,57,1625921379.0,32.000000
-28,0,57,1625921379.0,32.000000
-28,0,57,1625921379.0,32.000000
-28,0,57,1625921379.0,32.000000
-28,0,57,1625921379.0,32.000000
-28,0,57,1625921379.0,32.000000
-28,0,57,1625921379.0,32.000000
-28,0,57,1625921379.0,32.000000
-28,0,57,1625921379.0,32.000000
-28,0,57,1625921379.0,32.000000
-28,0,57,1625921379.0,32.000000
-28,0,57,1625921379.0,32.000000
-28,0,57,1625921379.0,32.000000
-28,0,57,1625921379.0,32.000000
-28,0,57,1625921379.0,32.000000
-28,0,57,1625921379.0,32.000000
-28,0,57,1625921379.0,32.000000
-28,0,57,1625921379.0,32.000000
-28,0,57,1625921379.0,32.000000
-28,0,57,1625921379.0,32.000000
-28,0,57,1625921379.0,32.000000
-28,0,57,1625921379.0,32.000000
-28,0,57,1625921379.0,32.000000
-28,0,57,1625921379.0,32.000000
-28,0,57,1625921379.0,32.000000
-28,0,57,1625921379.0,32.000000
-28,0,57,1625921379.0,32.000000
-28,0,57,1625921379.0,32.000000
-28,0,57,1625921379.0,32.000000
-28,0,57,1625921379.0,32.000000
-28,0,57,1625921379.0,32.000000
-28,0,57,1625921379.0,32.000000
-28,0,57,1625921379.0,32.000000
-28,0,58,1625921379.0,32.000000
-28,0,57,1625921379.0,32.000000
-28,0,57,1625921379.0,32.000000
-28,0,57,1625921379.0,32.000000
-28,0,57,1625921379.0,32.000000
-28,0,57,1625921379.0,32.000000
-28,0,57,1625921379.0,32.000000
-28,0,57,1625921379.0,32.000000
-28,0,57,1625921379.0,32.000000
-28,0,58,1625921379.0,32.000000
-28,0,57,1625921379.0,32.000000
-28,0,57,1625921379.0,32.000000
-28,0,57,1625921379.0,32.000000
-28,0,57,1625921379.0,32.000000
-28,0,57,1625921379.0,32.000000
-28,0,57,1625921379.0,32.000000
-28,0,57,1625921379.0,32.000000
-28,0,57,1625921379.0,32.000000
-28,0,57,1625921379.0,32.000000
-28,0,57,1625921379.0,32.000000
-28,0,57,1625921379.0,32.000000
-28,0,57,1625921379.0,32.000000
-28,0,57,1625921379.0,32.000000
-28,0,57,1625921379.0,32.000000
-28,0,57,1625921379.0,32.000000
-28,0,58,1625921379.0,32.000000
-28,0,57,1625921379.0,32.000000
-28,0,57,1625921379.0,32.000000
-28,0,57,1625921379.0,32.000000
-28,0,58,1625921379.0,32.000000
-28,0,57,1625921379.0,32.000000
-28,0,57,1625921379.0,32.000000
-28,0,57,1625921379.0,32.000000
-28,0,57,1625921379.0,32.000000
-28,0,57,1625921379.0,32.000000
-28,0,57,1625921379.0,32.000000
-28,0,57,1625921379.0,32.000000
-28,0,57,1625921379.0,32.000000
-28,0,57,1625921379.0,32.000000
-28,0,57,1625921379.0,32.000000
-28,0,57,1625921379.0,32.000000
-28,0,57,1625921379.0,32.000000
-28,0,57,1625921379.0,32.000000
-30,0,57,1625921379.0,32.000000
-27,0,58,1625921379.0,32.000000
-26,0,58,1625921379.0,32.000000
-27,-1,57,1625921379.0,32.000000
-28,0,57,1625921379.0,32.000000
-29,0,57,1625921379.0,32.000000
-29,0,57,1625921379.0,32.000000
-29,0,57,1625921379.0,32.000000
-28,0,57,1625921379.0,32.000000
-28,0,57,1625921379.0,32.000000
-28,0,57,1625921379.0,32.000000
-28,0,57,1625921379.0,32.000000
-28,0,57,1625921379.0,32.000000
-28,0,57,1625921379.0,32.000000
-29,0,57,1625921379.0,32.000000
-29,0,57,1625921379.0,32.000000
-28,0,57,1625921379.0,32.000000
-28,0,57,1625921379.0,32.000000
-29,0,57,1625921379.0,32.000000
-28,0,57,1625921379.0,32.000000
-28,0,57,1625921379.0,32.000000
-29,0,57,1625921379.0,32.000000
-29,0,57,1625921379.0,32.000000
-29,0,57,1625921379.0,32.000000
-29,0,57,1625921379.0,32.000000
-28,0,57,1625921379.0,32.000000
-28,0,57,1625921379.0,32.000000
-30,0,57,1625921379.0,32.000000
-29,0,57,1625921379.0,32.000000
-28,0,57,1625921379.0,32.000000
-28,0,57,1625921379.0,32.000000
-29,0,57,1625921379.0,32.000000
-29,0,57,1625921379.0,32.000000
-29,0,57,1625921379.0,32.000000
-28,0,57,1625921379.0,32.000000
-28,0,57,1625921379.0,32.000000
-29,0,57,1625921379.0,32.000000
-28,0,57,1625921379.0,32.000000
-28,0,58,1625921379.0,32.000000
-28,0,57,1625921379.0,32.000000
-29,0,56,1625921379.0,32.000000
-29,-1,57,1625921379.0,32.000000
-29,0,57,1625921379.0,32.000000
-29,0,57,1625921379.0,32.000000
-29,0,56,1625921379.0,32.000000
-29,0,57,1625921379.0,32.000000
-29,0,57,1625921379.0,32.000000
-29,0,57,1625921379.0,32.000000
-29,0,57,1625921379.0,32.000000
-29,0,57,1625921379.0,32.000000
-29,0,57,1625921379.0,32.000000
-29,0,57,1625921379.0,32.000000
-29,0,57,1625921379.0,32.000000
-29,0,57,1625921379.0,32.000000
-29,0,57,1625921379.0,32.000000
-29,0,57,1625921379.0,32.000000
-29,0,57,1625921379.0,32.000000
-29,0,57,1625921379.0,32.000000
-29,0,57,1625921379.0,32.000000
-29,0,57,1625921379.0,32.000000
-29,0,57,1625921379.0,32.000000
-29,0,57,1625921379.0,32.000000
-29,0,57,1625921379.0,32.000000
-29,0,57,1625921379.0,32.000000
-29,0,57,1625921379.0,32.000000
-29,0,57,1625921379.0,32.000000
-29,0,57,1625921379.0,32.000000
-29,0,57,1625921379.0,32.000000
-28,0,57,1625921379.0,32.000000
-29,0,57,1625921379.0,32.000000
-28,0,57,1625921379.0,32.000000
-28,-1,57,1625921379.0,32.000000
-28,0,58,1625921379.0,32.000000
-30,0,57,1625921379.0,32.000000
-30,0,57,1625921379.0,32.000000
-29,0,57,1625921379.0,32.000000
-29,0,57,1625921379.0,32.000000
-29,0,57,1625921379.0,32.000000
-28,0,57,1625921379.0,32.000000
-28,0,57,1625921379.0,32.000000
-29,0,57,1625921379.0,32.000000
-29,0,57,1625921379.0,32.000000
-28,0,57,1625921379.0,32.000000
-28,0,57,1625921379.0,32.000000
-28,0,57,1625921379.0,32.000000
-28,0,57,1625921379.0,32.000000
-28,-1,57,1625921379.0,32.000000
-28,0,57,1625921379.0,32.000000
-28,0,57,1625921379.0,32.000000
-29,0,57,1625921379.0,32.000000
-29,0,57,1625921379.0,32.000000
-29,0,57,1625921379.0,32.000000
-29,0,57,1625921379.0,32.000000
-29,0,57,1625921379.0,32.000000
-29,0,57,1625921379.0,32.000000
-29,0,57,1625921379.0,32.000000
-29,0,57,1625921379.0,32.000000
-29,0,57,1625921379.0,32.000000
-29,0,57,1625921379.0,32.000000
-29,0,57,1625921379.0,32.000000
-29,0,57,1625921379.0,32.000000
-29,0,57,1625921379.0,32.000000
-29,0,57,1625921379.0,32.000000
-29,0,57,1625921379.0,32.000000
-29,0,57,1625921379.0,32.000000
-29,0,57,1625921379.0,32.000000
-29,0,57,1625921379.0,32.000000
-29,0,57,1625921379.0,32.000000
-29,0,57,1625921379.0,32.000000
-29,0,57,1625921379.0,32.000000
-29,0,57,1625921379.0,32.000000
-29,0,57,1625921379.0,32.000000
-29,0,57,1625921379.0,32.000000
-29,0,57,1625921379.0,32.000000
-29,0,57,1625921379.0,32.000000
-29,0,57,1625921379.0,32.000000
-29,0,57,1625921379.0,32.000000
-29,0,57,1625921379.0,32.000000
-29,0,57,1625921379.0,32.000000
-29,0,57,1625921379.0,32.000000
-29,0,57,1625921379.0,32.000000
-29,0,57,1625921379.0,32.000000
-28,0,57,1625921379.0,32.000000
-29,0,57,1625921379.0,32.000000
-29,0,57,1625921379.0,32.000000
-29,0,57,1625921379.0,32.000000
-28,0,57,1625921379.0,32.000000
-29,0,57,1625921379.0,32.000000
-29,0,57,1625921379.0,32.000000
-29,0,57,1625921379.0,32.000000
-29,0,57,1625921379.0,32.000000
-29,0,57,1625921379.0,32.000000
-29,0,57,1625921379.0,32.000000
-29,0,57,1625921379.0,32.000000
-29,0,57,1625921379.0,32.000000
-29,0,57,1625921379.0,32.000000
-29,0,57,1625921379.0,32.000000
-29,0,57,1625921379.0,32.000000
-29,0,57,1625921379.0,32.000000
-29,0,57,1625921379.0,32.000000
-29,0,57,1625921379.0,32.000000
-29,0,57,1625921379.0,32.000000
-29,0,57,1625921379.0,32.000000
-29,0,57,1625921379.0,32.000000
-31,0,56,1625921379.0,32.000000
-28,-2,56,1625921379.0,32.000000
-26,0,58,1625921379.0,32.000000
-27,-1,57,1625921379.0,32.000000
-30,0,57,1625921379.0,32.000000
-30,0,57,1625921379.0,32.000000
-29,0,57,1625921379.0,32.000000
-29,0,57,1625921379.0,32.000000
-30,0,57,1625921379.0,32.000000
-30,0,56,1625921379.0,32.000000
-30,0,57,1625921379.0,32.000000
-29,0,57,1625921379.0,32.000000
-30,0,57,1625921379.0,32.000000
-30,0,56,1625921379.0,32.000000
-29,0,57,1625921379.0,32.000000
-28,0,57,1625921379.0,32.000000
-29,0,57,1625921379.0,32.000000
-28,0,57,1625921379.0,32.000000
-28,0,57,1625921379.0,32.000000
-29,0,57,1625921379.0,32.000000
-29,0,57,1625921379.0,32.000000
-29,0,57,1625921379.0,32.000000
-29,0,57,1625921379.0,32.000000
-29,0,57,1625921379.0,32.000000
-29,0,57,1625921379.0,32.000000
-29,0,57,1625921379.0,32.000000
-29,0,57,1625921379.0,32.000000
-29,0,57,1625921379.0,32.000000
-29,0,57,1625921379.0,32.000000
-29,0,57,1625921379.0,32.000000
-29,0,57,1625921379.0,32.000000
-29,0,57,1625921379.0,32.000000
-29,0,57,1625921379.0,32.000000
-29,0,57,1625921379.0,32.000000
-29,0,57,1625921379.0,32.000000
-29,0,57,1625921379.0,32.000000
-29,0,57,1625921379.0,32.000000
-29,0,57,1625921379.0,32.000000
-29,0,57,1625921379.0,32.000000
-29,0,57,1625921379.0,32.000000
-29,0,57,1625921379.0,32.000000
-29,0,57,1625921379.0,32.000000
-27,0,58,1625921379.0,32.000000
-28,0,58,1625921379.0,32.000000
-31,0,56,1625921379.0,32.000000
-31,0,56,1625921379.0,32.000000
-29,0,57,1625921379.0,32.000000
-29,0,57,1625921379.0,32.000000
-29,0,57,1625921379.0,32.000000
-29,0,57,1625921379.0,32.000000
-29,0,56,1625921379.0,32.000000
-29,0,57,1625921379.0,32.000000
-29,0,57,1625921379.0,32.000000
-29,0,57,1625921379.0,32.000000
-29,0,57,1625921379.0,32.000000
-29,0,57,1625921379.0,32.000000
-29,0,57,1625921379.0,32.000000
-30,0,56,1625921379.0,32.000000
-29,0,57,1625921379.0,32.000000
-28,-1,56,1625921379.0,32.000000
-29,0,57,1625921379.0,32.000000
-29,0,56,1625921379.0,32.000000
-29,0,57,1625921379.0,32.000000
-29,0,57,1625921379.0,32.000000
-29,0,57,1625921379.0,32.000000
-29,0,57,1625921379.0,32.000000
-29,0,57,1625921379.0,32.000000
-29,0,57,1625921379.0,32.000000
-29,0,57,1625921379.0,32.000000
-29,0,57,1625921379.0,32.000000
-29,0,57,1625921379.0,32.000000
-30,1,58,1625921379.0,32.000000
-29,0,57,1625921379.0,32.000000
-29,0,55,1625921379.0,32.000000
-30,0,57,1625921379.0,32.000000
-29,0,56,1625921379.0,32.000000
-29,0,57,1625921379.0,32.000000
-29,0,57,1625921379.0,32.000000
-30,0,57,1625921379.0,32.000000
-29,0,57,1625921379.0,32.000000
-29,0,57,1625921379.0,32.000000
-29,0,57,1625921379.0,32.000000
-29,0,57,1625921379.0,32.000000
-30,0,57,1625921379.0,32.000000
-30,0,57,1625921379.0,32.000000
-29,0,57,1625921379.0,32.000000
-29,0,57,1625921379.0,32.000000
-29,0,57,1625921379.0,32.000000
-29,0,57,1625921379.0,32.000000
-29,0,57,1625921379.0,32.000000
-30,0,57,1625921379.0,32.000000
-29,0,57,1625921379.0,32.000000
-29,0,57,1625921379.0,32.000000
-29,0,57,1625921379.0,32.000000
-29,0,57,1625921379.0,32.000000
-29,0,57,1625921379.0,32.000000
-29,0,57,1625921379.0,32.000000
-29,0,57,1625921379.0,32.000000
-29,0,57,1625921379.0,32.000000
-29,0,57,1625921379.0,32.000000
-29,0,57,1625921379.0,32.000000
-29,0,57,1625921379.0,32.000000
-29,0,57,1625921379.0,32.000000
-29,0,57,1625921379.0,32.000000
-30,0,56,1625921379.0,32.000000
-30,0,56,1625921379.0,32.000000
-27,0,57,1625921379.0,32.000000
-27,0,58,1625921379.0,32.000000
-28,0,57,1625921379.0,32.000000
-30,0,57,1625921379.0,32.000000
-29,0,57,1625921379.0,32.000000
-29,0,57,1625921379.0,32.000000
-29,0,57,1625921379.0,32.000000
-29,0,57,1625921379.0,32.000000
-29,0,57,1625921379.0,32.000000
-30,0,56,1625921379.0,32.000000
-30,0,56,1625921379.0,32.000000
-28,1,57,1625921379.0,32.000000
-28,0,58,1625921379.0,32.000000
-28,-1,57,1625921379.0,32.000000
-30,2,59,1625921379.0,32.000000
-28,0,56,1625921379.0,32.000000
-30,2,59,1625921379.0,32.000000
-29,-1,56,1625921379.0,32.000000
-29,0,57,1625921379.0,32.000000
-29,0,56,1625921379.0,32.000000
-28,-1,56,1625921379.0,32.000000
-29,0,57,1625921379.0,32.000000
-29,0,56,1625921379.0,32.000000
-29,0,57,1625921379.0,32.000000
-29,0,57,1625921379.0,32.000000
-30,0,57,1625921379.0,32.000000
-30,0,56,1625921379.0,32.000000
-28,0,57,1625921379.0,32.000000
-29,0,57,1625921379.0,32.000000
-30,0,57,1625921379.0,32.000000
-30,0,56,1625921379.0,32.000000
-29,0,57,1625921379.0,32.000000
-28,0,57,1625921379.0,32.000000
-29,1,57,1625921379.0,32.000000
-29,0,57,1625921379.0,32.000000
-30,0,57,1625921379.0,32.000000
-29,0,57,1625921379.0,32.000000
-29,0,57,1625921379.0,32.000000
-29,0,57,1625921379.0,32.000000
-29,0,57,1625921379.0,32.000000
-30,0,56,1625921379.0,32.000000
-29,0,57,1625921379.0,32.000000
-29,0,57,1625921379.0,32.000000
-29,0,57,1625921379.0,32.000000
-29,0,57,1625921379.0,32.000000
-29,0,56,1625921379.0,32.000000
-29,0,56,1625921379.0,32.000000
-29,0,56,1625921379.0,32.000000
-29,-1,57,1625921379.0,32.000000
-30,-2,56,1625921379.0,32.000000
-27,0,59,1625921379.0,32.000000
-30,0,55,1625921379.0,32.000000
-28,1,57,1625921379.0,32.000000
-29,0,57,1625921379.0,32.000000
-28,0,57,1625921379.0,32.000000
-28,0,57,1625921379.0,32.000000
-29,-1,57,1625921379.0,32.000000
-30,-1,56,1625921379.0,32.000000
-29,0,57,1625921379.0,32.000000
-29,0,57,1625921379.0,32.000000
-30,0,57,1625921379.0,32.000000
-29,0,57,1625921379.0,32.000000
-29,0,57,1625921379.0,32.000000
-29,0,57,1625921379.0,32.000000
-29,0,57,1625921379.0,32.000000
-29,0,57,1625921379.0,32.000000
-29,0,57,1625921379.0,32.000000
-29,0,57,1625921379.0,32.000000
-29,0,57,1625921379.0,32.000000
-29,0,57,1625921379.0,32.000000
-29,0,57,1625921379.0,32.000000
-29,0,57,1625921379.0,32.000000
-29,0,57,1625921379.0,32.000000
-29,0,57,1625921379.0,32.000000
-29,0,57,1625921379.0,32.000000
-29,0,57,1625921379.0,32.000000
-29,0,57,1625921379.0,32.000000
-29,0,57,1625921379.0,32.000000
-29,0,57,1625921379.0,32.000000
-29,0,57,1625921379.0,32.000000
-30,0,57,1625921379.0,32.000000
-30,0,57,1625921379.0,32.000000
-29,0,57,1625921379.0,32.000000
-29,0,57,1625921379.0,32.000000
-29,0,57,1625921379.0,32.000000
-29,0,57,1625921379.0,32.000000
-29,0,57,1625921379.0,32.000000
-30,-1,57,1625921379.0,32.000000
-31,0,56,1625921379.0,32.000000
-30,0,56,1625921379.0,32.000000
-29,1,57,1625921379.0,32.000000
-30,-1,56,1625921379.0,32.000000
-29,-1,56,1625921379.0,32.000000
-28,-1,57,1625921379.0,32.000000
-29,0,57,1625921379.0,32.000000
-29,0,57,1625921379.0,32.000000
-29,0,57,1625921379.0,32.000000
-29,0,57,1625921379.0,32.000000
-28,0,57,1625921379.0,32.000000
-28,-1,57,1625921379.0,32.000000
-29,-1,56,1625921379.0,32.000000
-30,0,56,1625921379.0,32.000000
-31,-1,55,1625921379.0,32.000000
-30,-1,56,1625921379.0,32.000000
-31,0,56,1625921379.0,32.000000
-31,0,56,1625921379.0,32.000000
-31,0,56,1625921379.0,32.000000
-31,0,56,1625921379.0,32.000000
-31,0,56,1625921379.0,32.000000
-29,0,56,1625921379.0,32.000000
-29,-1,57,1625921379.0,32.000000
-29,0,57,1625921379.0,32.000000
-30,-1,56,1625921379.0,32.000000
-30,0,56,1625921379.0,32.000000
-30,0,57,1625921379.0,32.000000
-30,0,56,1625921379.0,32.000000
-30,0,57,1625921379.0,32.000000
-30,-1,56,1625921379.0,32.000000
-29,-1,57,1625921379.0,32.000000
-31,0,56,1625921379.0,32.000000
-32,0,56,1625921379.0,32.000000
-30,0,57,1625921379.0,32.000000
-29,0,57,1625921379.0,32.000000
-29,0,57,1625921379.0,32.000000
-30,0,56,1625921379.0,32.000000
-29,-1,56,1625921379.0,32.000000
-29,-1,57,1625921379.0,32.000000
-28,-1,57,1625921379.0,32.000000
-29,0,57,1625921379.0,32.000000
-31,0,56,1625921379.0,32.000000
-32,0,55,1625921379.0,32.000000
-32,0,56,1625921379.0,32.000000
-30,0,56,1625921379.0,32.000000
-30,0,56,1625921379.0,32.000000
-30,0,56,1625921379.0,32.000000
-30,0,56,1625921379.0,32.000000
-30,0,57,1625921379.0,32.000000
-30,0,57,1625921379.0,32.000000
-30,0,56,1625921379.0,32.000000
-30,0,56,1625921379.0,32.000000
-30,0,57,1625921379.0,32.000000
-30,0,57,1625921379.0,32.000000
-30,0,56,1625921379.0,32.000000
-30,0,56,1625921379.0,32.000000
-30,0,57,1625921379.0,32.000000
-30,0,57,1625921379.0,32.000000
-30,0,57,1625921379.0,32.000000
-30,0,56,1625921379.0,32.000000
-30,0,56,1625921379.0,32.000000
-29,0,57,1625921379.0,32.000000
-29,-1,57,1625921379.0,32.000000
-30,0,56,1625921379.0,32.000000
-31,0,56,1625921379.0,32.000000
-30,0,57,1625921379.0,32.000000
-29,0,57,1625921379.0,32.000000
-29,0,56,1625921379.0,32.000000
-31,0,56,1625921379.0,32.000000
-30,0,56,1625921379.0,32.000000
-29,0,57,1625921379.0,32.000000
-29,0,57,1625921379.0,32.000000
-29,0,57,1625921379.0,32.000000
-30,-1,56,1625921379.0,32.000000
-30,-1,56,1625921379.0,32.000000
-29,0,57,1625921379.0,32.000000
-29,0,57,1625921379.0,32.000000
-30,-1,56,1625921379.0,32.000000
-31,0,56,1625921379.0,32.000000
-30,0,56,1625921379.0,32.000000
-30,0,57,1625921379.0,32.000000
-30,0,56,1625921379.0,32.000000
-30,0,56,1625921379.0,32.000000
-30,0,57,1625921379.0,32.000000
-30,-1,56,1625921379.0,32.000000
-29,-1,57,1625921379.0,32.000000
-29,0,57,1625921379.0,32.000000
-32,0,56,1625921379.0,32.000000
-31,-1,56,1625921379.0,32.000000
-28,0,57,1625921379.0,32.000000
-28,-1,57,1625921379.0,32.000000
-28,0,58,1625921379.0,32.000000
-28,0,57,1625921379.0,32.000000
-29,0,57,1625921379.0,32.000000
-29,-1,57,1625921379.0,32.000000
-29,0,57,1625921379.0,32.000000
-31,0,57,1625921379.0,32.000000
-35,2,56,1625921379.0,32.000000
-33,1,55,1625921379.0,32.000000
-26,-3,57,1625921379.0,32.000000
-19,-3,59,1625921379.0,32.000000
-19,-2,60,1625921379.0,32.000000
-25,-1,58,1625921379.0,32.000000
-29,-1,58,1625921379.0,32.000000
-30,-1,57,1625921379.0,32.000000
-32,0,57,1625921379.0,32.000000
-35,0,58,1625921379.0,32.000000
-27,-1,57,1625921379.0,32.000000
-16,-2,60,1625921379.0,32.000000
-15,-3,61,1625921379.0,32.000000
-19,-3,60,1625921379.0,32.000000
-22,-2,59,1625921379.0,32.000000
-24,-2,59,1625921379.0,32.000000
-24,-2,59,1625921379.0,32.000000
-23,-2,59,1625921379.0,32.000000
-22,-2,59,1625921379.0,32.000000
-22,-2,60,1625921379.0,32.000000
-23,-2,60,1625921379.0,32.000000
-22,-2,60,1625921379.0,32.000000
-22,-1,60,1625921379.0,32.000000
-23,-1,60,1625921379.0,32.000000
-22,-2,59,1625921379.0,32.000000
-21,-3,59,1625921379.0,32.000000
-22,-3,59,1625921379.0,32.000000
-22,-2,60,1625921379.0,32.000000
-22,-2,59,1625921379.0,32.000000
-22,-2,60,1625921379.0,32.000000
-23,-2,59,1625921379.0,32.000000
-23,-2,59,1625921379.0,32.000000
-22,-2,60,1625921379.0,32.000000
-21,-2,60,1625921379.0,32.000000
-22,-2,60,1625921379.0,32.000000
-22,-2,60,1625921379.0,32.000000
-21,-2,59,1625921379.0,32.000000
-20,-2,60,1625921379.0,32.000000
-21,-2,60,1625921379.0,32.000000
-23,-2,60,1625921379.0,32.000000
-22,-2,59,1625921379.0,32.000000
-21,-2,60,1625921379.0,32.000000
-22,-2,60,1625921379.0,32.000000
-23,-2,60,1625921379.0,32.000000
-22,-2,60,1625921379.0,32.000000
-20,-2,59,1625921379.0,32.000000
-21,-2,60,1625921379.0,32.000000
-23,-2,60,1625921379.0,32.000000
-23,-2,60,1625921379.0,32.000000
-20,-2,60,1625921379.0,32.000000
-20,-2,60,1625921379.0,32.000000
-22,-2,60,1625921379.0,32.000000
-23,-2,60,1625921379.0,32.000000
-20,-2,60,1625921379.0,32.000000
-20,-3,60,1625921379.0,32.000000
-20,-2,60,1625921379.0,32.000000
-21,-2,60,1625921379.0,32.000000
-22,-3,59,1625921379.0,32.000000
-22,-2,60,1625921379.0,32.000000
-22,-2,60,1625921379.0,32.000000
-22,-1,60,1625921379.0,32.000000
-23,-2,60,1625921379.0,32.000000
-22,-2,59,1625921379.0,32.000000
-22,-3,60,1625921379.0,32.000000
-21,-3,60,1625921379.0,32.000000
-20,-2,60,1625921379.0,32.000000
-20,-2,60,1625921379.0,32.000000
-24,-1,60,1625921379.0,32.000000
-24,-2,60,1625921379.0,32.000000
-22,-2,60,1625921379.0,32.000000
-20,-2,60,1625921379.0,32.000000
-19,-2,60,1625921379.0,32.000000
-19,-2,60,1625921379.0,32.000000
-20,-2,60,1625921379.0,32.000000
-20,-2,60,1625921379.0,32.000000
-20,-2,60,1625921379.0,32.000000
-20,-2,60,1625921379.0,32.000000
-20,-2,60,1625921379.0,32.000000
-20,-2,60,1625921379.0,32.000000
-20,-2,60,1625921379.0,32.000000
-20,-2,61,1625921379.0,32.000000
-20,-3,60,1625921379.0,32.000000
-19,-3,60,1625921379.0,32.000000
-19,-3,60,1625921379.0,32.000000
-20,-3,61,1625921379.0,32.000000
-20,-2,60,1625921379.0,32.000000
-19,-2,61,1625921379.0,32.000000
-19,-2,61,1625921379.0,32.000000
-18,-3,60,1625921379.0,32.000000
-18,-3,61,1625921379.0,32.000000
-18,-3,61,1625921379.0,32.000000
-19,-3,61,1625921379.0,32.000000
-18,-3,60,1625921379.0,32.000000
-18,-3,61,1625921379.0,32.000000
-19,-3,60,1625921379.0,32.000000
-19,-3,60,1625921379.0,32.000000
-20,-3,60,1625921379.0,32.000000
-19,-3,60,1625921379.0,32.000000
-19,-3,60,1625921379.0,32.000000
-20,-3,61,1625921379.0,32.000000
-19,-2,60,1625921379.0,32.000000
-20,-1,61,1625921379.0,32.000000
-20,-1,60,1625921379.0,32.000000
-19,-2,60,1625921379.0,32.000000
-19,-3,60,1625921379.0,32.000000
-20,-3,60,1625921379.0,32.000000
-21,-3,60,1625921379.0,32.000000
-21,-2,60,1625921379.0,32.000000
-20,-2,60,1625921379.0,32.000000
-20,-4,60,1625921379.0,32.000000
-23,-4,61,1625921379.0,32.000000
-24,-3,59,1625921379.0,32.000000
-22,-1,59,1625921379.0,32.000000
-19,0,61,1625921379.0,32.000000
-19,0,61,1625921379.0,32.000000
-19,-1,60,1625921379.0,32.000000
-20,-2,60,1625921379.0,32.000000
-22,-3,60,1625921379.0,32.000000
-22,-3,60,1625921379.0,32.000000
-21,-3,59,1625921379.0,32.000000
-22,-3,60,1625921379.0,32.000000
-22,-3,60,1625921379.0,32.000000
-21,-2,60,1625921379.0,32.000000
-21,-1,61,1625921379.0,32.000000
-21,-1,60,1625921379.0,32.000000
-21,-1,60,1625921379.0,32.000000
-21,-2,60,1625921379.0,32.000000
-21,-2,60,1625921379.0,32.000000
-20,-3,59,1625921379.0,32.000000
-21,-3,60,1625921379.0,32.000000
-21,-3,59,1625921379.0,32.000000
-20,-2,61,1625921379.0,32.000000
-21,-3,59,1625921379.0,32.000000
-23,-1,60,1625921379.0,32.000000
-24,-2,60,1625921379.0,32.000000
-22,-3,60,1625921379.0,32.000000
-20,-2,60,1625921379.0,32.000000
-21,-2,60,1625921379.0,32.000000
-21,-2,60,1625921379.0,32.000000
-21,-2,59,1625921379.0,32.000000
-22,-2,60,1625921379.0,32.000000
-22,-2,60,1625921379.0,32.000000
-22,-2,60,1625921379.0,32.000000
-21,-2,60,1625921379.0,32.000000
-21,-2,60,1625921379.0,32.000000
-21,-2,60,1625921379.0,32.000000
-22,-2,60,1625921379.0,32.000000
-22,-2,60,1625921379.0,32.000000
-21,-2,60,1625921379.0,32.000000
-21,-2,60,1625921379.0,32.000000
-21,-2,59,1625921379.0,32.000000
-21,-2,60,1625921379.0,32.000000
-22,-2,60,1625921379.0,32.000000
-20,-2,60,1625921379.0,32.000000
-20,-2,60,1625921379.0,32.000000
-22,-2,60,1625921379.0,32.000000
-22,-2,60,1625921379.0,32.000000
-21,-2,60,1625921379.0,32.000000
-21,-2,60,1625921379.0,32.000000
-21,-2,60,1625921379.0,32.000000
-21,-3,60,1625921379.0,32.000000
-21,-3,60,1625921379.0,32.000000
-21,-2,60,1625921379.0,32.000000
-22,-2,60,1625921379.0,32.000000
-22,-2,60,1625921379.0,32.000000
-21,-2,60,1625921379.0,32.000000
-21,-3,60,1625921379.0,32.000000
-21,-2,60,1625921379.0,32.000000
-21,-2,59,1625921379.0,32.000000
-21,-2,60,1625921379.0,32.000000
-21,-2,60,1625921379.0,32.000000
-21,-2,60,1625921379.0,32.000000
-22,-2,60,1625921379.0,32.000000
-23,-2,60,1625921379.0,32.000000
-20,-2,60,1625921379.0,32.000000
-20,-2,60,1625921379.0,32.000000
-22,-3,60,1625921379.0,32.000000
-22,-2,60,1625921379.0,32.000000
-21,-2,60,1625921379.0,32.000000
-20,-2,60,1625921379.0,32.000000
-21,-2,60,1625921379.0,32.000000
-21,-2,60,1625921379.0,32.000000
-20,-2,60,1625921379.0,32.000000
-20,-2,60,1625921379.0,32.000000
-21,-2,60,1625921379.0,32.000000
-22,-2,60,1625921379.0,32.000000
-21,-2,60,1625921379.0,32.000000
-21,-2,60,1625921379.0,32.000000
-21,-2,60,1625921379.0,32.000000
-21,-2,60,1625921379.0,32.000000
-22,-2,60,1625921379.0,32.000000
-21,-2,60,1625921379.0,32.000000
-21,-2,60,1625921379.0,32.000000
-20,-2,60,1625921379.0,32.000000
-21,-2,61,1625921379.0,32.000000
-21,-2,60,1625921379.0,32.000000
-20,-2,60,1625921379.0,32.000000
-20,-2,60,1625921379.0,32.000000
-20,-2,60,1625921379.0,32.000000
-21,-2,60,1625921379.0,32.000000
-22,-2,60,1625921379.0,32.000000
-20,-2,60,1625921379.0,32.000000
-20,-2,60,1625921379.0,32.000000
-21,-2,60,1625921379.0,32.000000
-21,-2,60,1625921379.0,32.000000
-20,-2,60,1625921379.0,32.000000
-20,-2,60,1625921379.0,32.000000
-20,-2,60,1625921379.0,32.000000
-21,-2,60,1625921379.0,32.000000
-21,-2,60,1625921379.0,32.000000
-20,-2,60,1625921379.0,32.000000
-20,-2,60,1625921379.0,32.000000
-21,-2,60,1625921379.0,32.000000
-21,-2,60,1625921379.0,32.000000
-21,-2,60,1625921379.0,32.000000
-20,-3,60,1625921379.0,32.000000
-20,-2,60,1625921379.0,32.000000
-21,-2,60,1625921379.0,32.000000
-21,-2,60,1625921379.0,32.000000
-20,-2,60,1625921379.0,32.000000
-20,-2,60,1625921379.0,32.000000
-21,-2,60,1625921379.0,32.000000
-21,-2,60,1625921379.0,32.000000
-20,-2,60,1625921379.0,32.000000
-20,-2,60,1625921379.0,32.000000
-21,-2,60,1625921379.0,32.000000
-21,-2,60,1625921379.0,32.000000
-21,-2,60,1625921379.0,32.000000
-20,-2,60,1625921379.0,32.000000
-20,-2,60,1625921379.0,32.000000
-20,-3,60,1625921379.0,32.000000
-21,-2,61,1625921379.0,32.000000
-20,-2,59,1625921379.0,32.000000
-20,-2,60,1625921379.0,32.000000
-20,-3,61,1625921379.0,32.000000
-21,-3,60,1625921379.0,32.000000
-21,-2,60,1625921379.0,32.000000
-20,-2,59,1625921379.0,32.000000
-19,-3,61,1625921379.0,32.000000
-19,-3,60,1625921379.0,32.000000
-20,-2,60,1625921379.0,32.000000
-20,-2,60,1625921379.0,32.000000
-22,-2,60,1625921379.0,32.000000
-22,-2,60,1625921379.0,32.000000
-22,-2,60,1625921379.0,32.000000
-22,-2,60,1625921379.0,32.000000
-22,-2,60,1625921379.0,32.000000
-22,-2,60,1625921379.0,32.000000
-21,-2,60,1625921379.0,32.000000
-20,-2,60,1625921379.0,32.000000
-20,-2,60,1625921379.0,32.000000
-20,-2,61,1625921379.0,32.000000
-20,-3,60,1625921379.0,32.000000
-20,-2,60,1625921379.0,32.000000
-19,-2,60,1625921379.0,32.000000
-18,-3,60,1625921379.0,32.000000
-19,-3,60,1625921379.0,32.000000
-20,-2,60,1625921379.0,32.000000
-20,-2,60,1625921379.0,32.000000
-20,-2,61,1625921379.0,32.000000
-20,-2,61,1625921379.0,32.000000
-18,-3,60,1625921379.0,32.000000
-19,-3,61,1625921379.0,32.000000
-20,-3,60,1625921379.0,32.000000
-20,-2,61,1625921379.0,32.000000
-19,-2,60,1625921379.0,32.000000
-19,-2,60,1625921379.0,32.000000
-19,-3,61,1625921379.0,32.000000
-20,-3,61,1625921379.0,32.000000
-20,-3,60,1625921379.0,32.000000
-20,-2,60,1625921379.0,32.000000
-19,-2,60,1625921379.0,32.000000
-20,-2,60,1625921379.0,32.000000
-20,-3,60,1625921379.0,32.000000
-20,-3,61,1625921379.0,32.000000
-19,-2,61,1625921379.0,32.000000
-20,-3,60,1625921379.0,32.000000
-23,-3,61,1625921379.0,32.000000
-20,-2,58,1625921379.0,32.000000
-19,-1,59,1625921379.0,32.000000
-20,-1,61,1625921379.0,32.000000
-20,-2,61,1625921379.0,32.000000
-21,-3,60,1625921379.0,32.000000
-21,-3,60,1625921379.0,32.000000
-21,-2,60,1625921379.0,32.000000
-20,-2,60,1625921379.0,32.000000
-20,-3,60,1625921379.0,32.000000
-20,-3,60,1625921379.0,32.000000
-22,-2,60,1625921379.0,32.000000
-22,-2,60,1625921379.0,32.000000
-20,-2,60,1625921379.0,32.000000
-19,-3,60,1625921379.0,32.000000
-20,-4,60,1625921379.0,32.000000
-20,-2,60,1625921379.0,32.000000
-20,-2,60,1625921379.0,32.000000
-20,-2,60,1625921379.0,32.000000
-22,-2,61,1625921379.0,32.000000
-22,-2,61,1625921379.0,32.000000
-16,-3,61,1625921379.0,32.000000
-15,-4,60,1625921379.0,32.000000
-16,-4,60,1625921379.0,32.000000
-18,-2,60,1625921379.0,32.000000
-20,-1,60,1625921379.0,32.000000
-19,-2,60,1625921379.0,32.000000
-19,-3,61,1625921379.0,32.000000
-18,-3,61,1625921379.0,32.000000
-17,-3,60,1625921379.0,32.000000
-18,-2,61,1625921379.0,32.000000
-19,-2,61,1625921379.0,32.000000
-21,-2,60,1625921379.0,32.000000
-21,-2,61,1625921379.0,32.000000
-19,-3,61,1625921379.0,32.000000
-18,-3,61,1625921379.0,32.000000
-17,-3,61,1625921379.0,32.000000
-18,-3,61,1625921379.0,32.000000
-20,-2,60,1625921379.0,32.000000
-20,-2,60,1625921379.0,32.000000
-20,-2,61,1625921379.0,32.000000
-20,-3,61,1625921379.0,32.000000
-18,-3,60,1625921379.0,32.000000
-18,-3,60,1625921379.0,32.000000
-18,-2,60,1625921379.0,32.000000
-18,-2,60,1625921379.0,32.000000
-20,-2,60,1625921379.0,32.000000
-20,-3,61,1625921379.0,32.000000
-21,-3,61,1625921379.0,32.000000
-18,-3,60,1625921379.0,32.000000
-18,-3,61,1625921379.0,32.000000
-21,-3,60,1625921379.0,32.000000
-20,-2,60,1625921379.0,32.000000
-19,-2,59,1625921379.0,32.000000
-19,-2,61,1625921379.0,32.000000
-20,-3,61,1625921379.0,32.000000
-18,-3,60,1625921379.0,32.000000
-18,-4,61,1625921379.0,32.000000
-18,-3,61,1625921379.0,32.000000
-21,-1,60,1625921379.0,32.000000
-22,-2,60,1625921379.0,32.000000
-20,-2,60,1625921379.0,32.000000
-19,-2,60,1625921379.0,32.000000
-17,-3,61,1625921379.0,32.000000
-18,-4,61,1625921379.0,32.000000
-19,-3,60,1625921379.0,32.000000
-19,-1,60,1625921379.0,32.000000
-20,-2,61,1625921379.0,32.000000
-19,-3,60,1625921379.0,32.000000
-19,-3,61,1625921379.0,32.000000
-20,-3,61,1625921379.0,32.000000
-19,-3,61,1625921379.0,32.000000
-18,-2,61,1625921379.0,32.000000
-18,-3,61,1625921379.0,32.000000
-18,-2,61,1625921379.0,32.000000
-18,-2,61,1625921379.0,32.000000
-21,-2,61,1625921379.0,32.000000
-20,-2,60,1625921379.0,32.000000
-17,-2,61,1625921379.0,32.000000
-16,-3,61,1625921379.0,32.000000
-18,-3,61,1625921379.0,32.000000
-19,-3,61,1625921379.0,32.000000
-17,-3,61,1625921379.0,32.000000
-16,-3,61,1625921379.0,32.000000
-17,-3,61,1625921379.0,32.000000
-19,-3,61,1625921379.0,32.000000
-18,-3,60,1625921379.0,32.000000
-17,-3,61,1625921379.0,32.000000
-18,-2,61,1625921379.0,32.000000
-18,-3,61,1625921379.0,32.000000
-17,-3,61,1625921379.0,32.000000
-17,-3,61,1625921379.0,32.000000
-18,-3,61,1625921379.0,32.000000
-18,-3,61,1625921379.0,32.000000
-17,-2,61,1625921379.0,32.000000
-16,-3,62,1625921379.0,32.000000
-15,-4,61,1625921379.0,32.000000
-16,-3,61,1625921379.0,32.000000
-17,-2,61,1625921379.0,32.000000
-17,-3,60,1625921379.0,32.000000
-18,-4,59,1625921379.0,32.000000
-21,-2,61,1625921379.0,32.000000
-23,-2,61,1625921379.0,32.000000
-20,-2,60,1625921379.0,32.000000
-21,-2,60,1625921379.0,32.000000
-21,-2,60,1625921379.0,32.000000
-23,-2,60,1625921379.0,32.000000
-22,-2,60,1625921379.0,32.000000
-19,-1,61,1625921379.0,32.000000
-18,-3,61,1625921379.0,32.000000
-21,-4,61,1625921379.0,32.000000
-19,-3,59,1625921379.0,32.000000
-18,-3,60,1625921379.0,32.000000
-20,-1,60,1625921379.0,32.000000
-22,-1,60,1625921379.0,32.000000
-21,-2,60,1625921379.0,32.000000
-20,-2,60,1625921379.0,32.000000
-19,-2,61,1625921379.0,32.000000
-20,-2,60,1625921379.0,32.000000
-20,-3,61,1625921379.0,32.000000
-19,-3,61,1625921379.0,32.000000
-19,-2,60,1625921379.0,32.000000
-20,-2,61,1625921379.0,32.000000
-20,-2,61,1625921379.0,32.000000
-19,-2,61,1625921379.0,32.000000
-18,-3,60,1625921379.0,32.000000
-19,-3,60,1625921379.0,32.000000
-19,-3,61,1625921379.0,32.000000
-17,-3,60,1625921379.0,32.000000
-17,-4,60,1625921379.0,32.000000
-18,-2,61,1625921379.0,32.000000
-19,-2,60,1625921379.0,32.000000
-20,-2,60,1625921379.0,32.000000
-21,-3,61,1625921379.0,32.000000
-19,-2,61,1625921379.0,32.000000
-17,-3,61,1625921379.0,32.000000
-18,-5,61,1625921379.0,32.000000
-19,-3,61,1625921379.0,32.000000
-21,-1,60,1625921379.0,32.000000
-21,-1,60,1625921379.0,32.000000
-20,-2,61,1625921379.0,32.000000
-20,-3,61,1625921379.0,32.000000
-17,-4,62,1625921379.0,32.000000
-20,-4,62,1625921379.0,32.000000
-20,-2,60,1625921379.0,32.000000
-21,-1,59,1625921379.0,32.000000
-20,-1,60,1625921379.0,32.000000
-19,-2,61,1625921379.0,32.000000
-19,-2,61,1625921379.0,32.000000
-17,-4,60,1625921379.0,32.000000
-18,-4,61,1625921379.0,32.000000
-19,-3,61,1625921379.0,32.000000
-20,-1,60,1625921379.0,32.000000
-18,-1,61,1625921379.0,32.000000
-18,-2,61,1625921379.0,32.000000
-16,-3,61,1625921379.0,32.000000
-17,-4,61,1625921379.0,32.000000
-19,-4,61,1625921379.0,32.000000
-19,-3,61,1625921379.0,32.000000
-18,-1,61,1625921379.0,32.000000
-19,-2,61,1625921379.0,32.000000
-19,-3,60,1625921379.0,32.000000
-18,-3,61,1625921379.0,32.000000
-16,-3,62,1625921379.0,32.000000
-19,-4,62,1625921379.0,32.000000
-16,-3,61,1625921379.0,32.000000
-14,-3,60,1625921379.0,32.000000
-13,-3,62,1625921379.0,32.000000
-15,-3,62,1625921379.0,32.000000
-15,-4,62,1625921379.0,32.000000
-13,-4,61,1625921379.0,32.000000
-13,-3,61,1625921379.0,32.000000
-15,-2,62,1625921379.0,32.000000
-17,-2,62,1625921379.0,32.000000
-15,-3,61,1625921379.0,32.000000
-14,-3,61,1625921379.0,32.000000
-12,-4,64,1625921379.0,32.000000
-17,-5,62,1625921379.0,32.000000
-17,-4,61,1625921379.0,32.000000
-15,-2,61,1625921379.0,32.000000
-13,-1,62,1625921379.0,32.000000
-14,-2,61,1625921379.0,32.000000
-15,-4,62,1625921379.0,32.000000
-14,-5,62,1625921379.0,32.000000
-13,-3,63,1625921379.0,32.000000
-11,-3,63,1625921379.0,32.000000
-10,-5,62,1625921379.0,32.000000
-10,-4,63,1625921379.0,32.000000
-10,-4,62,1625921379.0,32.000000
-11,-4,62,1625921379.0,32.000000
-11,-3,63,1625921379.0,32.000000
-11,-4,62,1625921379.0,32.000000
-10,-4,62,1625921379.0,32.000000
-10,-4,63,1625921379.0,32.000000
-12,-4,62,1625921379.0,32.000000
-12,-4,62,1625921379.0,32.000000
-12,-4,62,1625921379.0,32.000000
-12,-4,62,1625921379.0,32.000000
-12,-4,62,1625921379.0,32.000000
-13,-3,62,1625921379.0,32.000000
-13,-3,63,1625921379.0,32.000000
-13,-4,62,1625921379.0,32.000000
-13,-4,62,1625921379.0,32.000000
-12,-4,62,1625921379.0,32.000000
-12,-4,62,1625921379.0,32.000000
-11,-3,62,1625921379.0,32.000000
-11,-4,62,1625921379.0,32.000000
-10,-4,62,1625921379.0,32.000000
-11,-4,62,1625921379.0,32.000000
-12,-4,64,1625921379.0,32.000000
-12,-4,63,1625921379.0,32.000000
-10,-4,61,1625921379.0,32.000000
-12,-4,62,1625921379.0,32.000000
-12,-4,63,1625921379.0,32.000000
-12,-4,62,1625921379.0,32.000000
-12,-3,62,1625921379.0,32.000000
-11,-3,62,1625921379.0,32.000000
-12,-3,63,1625921379.0,32.000000
-12,-4,63,1625921379.0,32.000000
-12,-4,62,1625921379.0,32.000000
-12,-4,63,1625921379.0,32.000000
-12,-4,63,1625921379.0,32.000000
-12,-4,62,1625921379.0,32.000000
-12,-4,63,1625921379.0,32.000000
-13,-4,63,1625921379.0,32.000000
-12,-4,62,1625921379.0,32.000000
-11,-3,62,1625921379.0,32.000000
-10,-4,62,1625921379.0,32.000000
-11,-4,63,1625921379.0,32.000000
-12,-4,62,1625921379.0,32.000000
-12,-4,62,1625921379.0,32.000000
-11,-4,63,1625921379.0,32.000000
-11,-4,62,1625921379.0,32.000000
-11,-4,63,1625921379.0,32.000000
-11,-4,62,1625921379.0,32.000000
-11,-4,62,1625921379.0,32.000000
-12,-4,62,1625921379.0,32.000000
-11,-4,62,1625921379.0,32.000000
-9,-4,62,1625921379.0,32.000000
-10,-4,62,1625921379.0,32.000000
-12,-4,62,1625921379.0,32.000000
-12,-4,62,1625921379.0,32.000000
-10,-4,62,1625921379.0,32.000000
-10,-4,62,1625921379.0,32.000000
-12,-4,63,1625921379.0,32.000000
-12,-4,62,1625921379.0,32.000000
-11,-4,62,1625921379.0,32.000000
-11,-4,62,1625921379.0,32.000000
-12,-4,63,1625921379.0,32.000000
-12,-4,63,1625921379.0,32.000000
-12,-4,63,1625921379.0,32.000000
-11,-4,62,1625921379.0,32.000000
-11,-4,62,1625921379.0,32.000000
-12,-4,63,1625921379.0,32.000000
-12,-4,62,1625921379.0,32.000000
-11,-4,63,1625921379.0,32.000000
-11,-4,63,1625921379.0,32.000000
-12,-4,62,1625921379.0,32.000000
-11,-3,61,1625921379.0,32.000000
-11,-4,63,1625921379.0,32.000000
-11,-4,62,1625921379.0,32.000000
-11,-4,62,1625921379.0,32.000000
-11,-4,62,1625921379.0,32.000000
-11,-4,62,1625921379.0,32.000000
-11,-4,62,1625921379.0,32.000000
-10,-4,61,1625921379.0,32.000000
-8,-4,61,1625921379.0,32.000000
-11,-3,65,1625921379.0,32.000000
-14,-3,64,1625921379.0,32.000000
-16,-3,61,1625921379.0,32.000000
-17,-4,64,1625921379.0,32.000000
-11,-5,61,1625921379.0,32.000000
-8,-3,64,1625921379.0,32.000000
-13,-4,60,1625921379.0,32.000000
-14,-3,61,1625921379.0,32.000000
-13,-4,62,1625921379.0,32.000000
-10,-3,63,1625921379.0,32.000000
-11,-4,64,1625921379.0,32.000000
-12,-5,60,1625921379.0,32.000000
-10,-4,61,1625921379.0,32.000000
-11,-3,63,1625921379.0,32.000000
-9,-3,63,1625921379.0,32.000000
-10,-4,61,1625921379.0,32.000000
-12,-4,62,1625921379.0,32.000000
-12,-4,63,1625921379.0,32.000000
-12,-4,62,1625921379.0,32.000000
-11,-4,63,1625921379.0,32.000000
-11,-4,62,1625921379.0,32.000000
-11,-4,63,1625921379.0,32.000000
-11,-4,62,1625921379.0,32.000000
-11,-4,63,1625921379.0,32.000000
-11,-4,63,1625921379.0,32.000000
-11,-4,62,1625921379.0,32.000000
-12,-4,63,1625921379.0,32.000000
-12,-4,62,1625921379.0,32.000000
-13,-3,62,1625921379.0,32.000000
-13,-4,62,1625921379.0,32.000000
-11,-4,61,1625921379.0,32.000000
-10,-4,62,1625921379.0,32.000000
-11,-4,63,1625921379.0,32.000000
-11,-4,61,1625921379.0,32.000000
-12,-3,62,1625921379.0,32.000000
-10,-3,63,1625921379.0,32.000000
-13,-3,63,1625921379.0,32.000000
-12,-4,62,1625921379.0,32.000000
-9,-4,64,1625921379.0,32.000000
-12,-4,62,1625921379.0,32.000000
-10,-4,61,1625921379.0,32.000000
-11,-3,63,1625921379.0,32.000000
-10,-4,63,1625921379.0,32.000000
-10,-4,62,1625921379.0,32.000000
-11,-4,63,1625921379.0,32.000000
-10,-4,63,1625921379.0,32.000000
-9,-3,63,1625921379.0,32.000000
-10,-3,63,1625921379.0,32.000000
-10,-4,63,1625921379.0,32.000000
-11,-4,62,1625921379.0,32.000000
-11,-4,63,1625921379.0,32.000000
-11,-4,63,1625921379.0,32.000000
-11,-4,62,1625921379.0,32.000000
-11,-3,63,1625921379.0,32.000000
-11,-4,62,1625921379.0,32.000000
-11,-4,63,1625921379.0,32.000000
-10,-4,63,1625921379.0,32.000000
-10,-3,63,1625921379.0,32.000000
-11,-3,63,1625921379.0,32.000000
-9,-4,63,1625921379.0,32.000000
-9,-3,63,1625921379.0,32.000000
-11,-3,63,1625921379.0,32.000000
-12,-4,62,1625921379.0,32.000000
-9,-4,62,1625921379.0,32.000000
-10,-4,63,1625921379.0,32.000000
-11,-3,63,1625921379.0,32.000000
-10,-3,62,1625921379.0,32.000000
-11,-4,62,1625921379.0,32.000000
-11,-4,63,1625921379.0,32.000000
-11,-3,63,1625921379.0,32.000000
-10,-3,62,1625921379.0,32.000000
-9,-4,62,1625921379.0,32.000000
-9,-4,63,1625921379.0,32.000000
-11,-4,63,1625921379.0,32.000000
-11,-4,62,1625921379.0,32.000000
-9,-4,63,1625921379.0,32.000000
-10,-3,63,1625921379.0,32.000000
-11,-4,62,1625921379.0,32.000000
-10,-3,63,1625921379.0,32.000000
-10,-4,62,1625921379.0,32.000000
-11,-4,63,1625921379.0,32.000000
-10,-4,62,1625921379.0,32.000000
-10,-3,63,1625921379.0,32.000000
-11,-3,63,1625921379.0,32.000000
-11,-3,63,1625921379.0,32.000000
-10,-4,62,1625921379.0,32.000000
-10,-4,62,1625921379.0,32.000000
-10,-3,63,1625921379.0,32.000000
-10,-4,63,1625921379.0,32.000000
-10,-4,62,1625921379.0,32.000000
-11,-4,63,1625921379.0,32.000000
-11,-3,63,1625921379.0,32.000000
-10,-3,63,1625921379.0,32.000000
-9,-3,63,1625921379.0,32.000000
-11,-4,62,1625921379.0,32.000000
-11,-4,62,1625921379.0,32.000000
-10,-3,63,1625921379.0,32.000000
-10,-3,62,1625921379.0,32.000000
-10,-3,62,1625921379.0,32.000000
-11,-3,63,1625921379.0,32.000000
-10,-4,62,1625921379.0,32.000000
-9,-4,63,1625921379.0,32.000000
-9,-4,62,1625921379.0,32.000000
-9,-3,62,1625921379.0,32.000000
-10,-4,63,1625921379.0,32.000000
-9,-4,63,1625921379.0,32.000000
-10,-3,63,1625921379.0,32.000000
-9,-3,63,1625921379.0,32.000000
-9,-3,63,1625921379.0,32.000000
-9,-4,63,1625921379.0,32.000000
-9,-4,63,1625921379.0,32.000000
-10,-4,63,1625921379.0,32.000000
-9,-4,63,1625921379.0,32.000000
-9,-4,63,1625921379.0,32.000000
-9,-4,63,1625921379.0,32.000000
-9,-4,63,1625921379.0,32.000000
-9,-4,63,1625921379.0,32.000000
-9,-4,63,1625921379.0,32.000000
-9,-4,63,1625921379.0,32.000000
-9,-4,63,1625921379.0,32.000000
-9,-4,62,1625921379.0,32.000000
-8,-4,63,1625921379.0,32.000000
-9,-3,63,1625921379.0,32.000000
-9,-4,63,1625921379.0,32.000000
-9,-4,63,1625921379.0,32.000000
-9,-4,63,1625921379.0,32.000000
-8,-4,63,1625921379.0,32.000000
-9,-4,63,1625921379.0,32.000000
-9,-4,63,1625921379.0,32.000000
-9,-4,63,1625921379.0,32.000000
-8,-4,63,1625921379.0,32.000000
-8,-4,63,1625921379.0,32.000000
-9,-4,63,1625921379.0,32.000000
-9,-4,63,1625921379.0,32.000000
-9,-4,62,1625921379.0,32.000000
-7,-4,64,1625921379.0,32.000000
-9,-3,62,1625921379.0,32.000000
-8,-4,62,1625921379.0,32.000000
-9,-4,63,1625921379.0,32.000000
-9,-4,63,1625921379.0,32.000000
-8,-4,63,1625921379.0,32.000000
-8,-4,63,1625921379.0,32.000000
-8,-3,63,1625921379.0,32.000000
-8,-4,63,1625921379.0,32.000000
-8,-4,63,1625921379.0,32.000000
-8,-4,63,1625921379.0,32.000000
-8,-4,63,1625921379.0,32.000000
-8,-4,63,1625921379.0,32.000000
-7,-4,63,1625921379.0,32.000000
-7,-4,62,1625921379.0,32.000000
-7,-4,64,1625921379.0,32.000000
-10,-5,63,1625921379.0,32.000000
-7,-4,62,1625921379.0,32.000000
-9,-3,63,1625921379.0,32.000000
-9,-4,64,1625921379.0,32.000000
-7,-5,63,1625921379.0,32.000000
-7,-5,59,1625921379.0,32.000000
-7,-4,60,1625921379.0,32.000000
-10,-2,67,1625921379.0,32.000000
-10,-3,65,1625921379.0,32.000000
-8,-3,62,1625921379.0,32.000000
-7,-5,63,1625921379.0,32.000000
-9,-5,60,1625921379.0,32.000000
-9,-3,63,1625921379.0,32.000000
-10,-2,65,1625921379.0,32.000000
-8,-4,61,1625921379.0,32.000000
-8,-3,62,1625921379.0,32.000000
-8,-4,65,1625921379.0,32.000000
-8,-5,62,1625921379.0,32.000000
-9,-3,62,1625921379.0,32.000000
-10,-3,64,1625921379.0,32.000000
-9,-3,63,1625921379.0,32.000000
-9,-3,63,1625921379.0,32.000000
-9,-4,63,1625921379.0,32.000000
-10,-4,62,1625921379.0,32.000000
-10,-5,63,1625921379.0,32.000000
-10,-5,62,1625921379.0,32.000000
-10,-3,63,1625921379.0,32.000000
-9,-2,63,1625921379.0,32.000000
-9,-2,64,1625921379.0,32.000000
-8,-3,63,1625921379.0,32.000000
-7,-5,62,1625921379.0,32.000000
-10,-6,60,1625921379.0,32.000000
-11,-4,64,1625921379.0,32.000000
-10,-3,64,1625921379.0,32.000000
-9,-3,64,1625921379.0,32.000000
-9,-2,62,1625921379.0,32.000000
-8,-2,63,1625921379.0,32.000000
-9,-5,61,1625921379.0,32.000000
-11,-5,61,1625921379.0,32.000000
-12,-4,64,1625921379.0,32.000000
-10,-4,63,1625921379.0,32.000000
-8,-3,63,1625921379.0,32.000000
-9,-3,63,1625921379.0,32.000000
-9,-4,61,1625921379.0,32.000000
-10,-5,62,1625921379.0,32.000000
-11,-5,64,1625921379.0,32.000000
-10,-4,63,1625921379.0,32.000000
-11,-3,63,1625921379.0,32.000000
-10,-3,62,1625921379.0,32.000000
-11,-4,62,1625921379.0,32.000000
-12,-5,61,1625921379.0,32.000000
-11,-5,62,1625921379.0,32.000000
-11,-5,63,1625921379.0,32.000000
-12,-3,62,1625921379.0,32.000000
-11,-3,61,1625921379.0,32.000000
-11,-4,63,1625921379.0,32.000000
-10,-4,63,1625921379.0,32.000000
-10,-5,62,1625921379.0,32.000000
-11,-5,62,1625921379.0,32.000000
-11,-4,63,1625921379.0,32.000000
-10,-4,63,1625921379.0,32.000000
-10,-3,64,1625921379.0,32.000000
-10,-1,64,1625921379.0,32.000000
-10,-1,64,1625921379.0,32.000000
-11,-1,63,1625921379.0,32.000000
-12,-6,61,1625921379.0,32.000000
-10,-8,60,1625921379.0,32.000000
-10,-8,60,1625921379.0,32.000000
-9,-6,63,1625921379.0,32.000000
-11,-5,62,1625921379.0,32.000000
-12,-3,63,1625921379.0,32.000000
-11,-3,63,1625921379.0,32.000000
-9,-5,62,1625921379.0,32.000000
-10,-5,62,1625921379.0,32.000000
-10,-4,62,1625921379.0,32.000000
-9,-5,62,1625921379.0,32.000000
-9,-4,62,1625921379.0,32.000000
-8,-4,63,1625921379.0,32.000000
-8,-3,64,1625921379.0,32.000000
-10,-4,63,1625921379.0,32.000000
-14,-4,60,1625921379.0,32.000000
-14,-4,61,1625921379.0,32.000000
-11,-5,63,1625921379.0,32.000000
-10,-5,63,1625921379.0,32.000000
-12,-4,62,1625921379.0,32.000000
-11,-4,63,1625921379.0,32.000000
-11,-4,63,1625921379.0,32.000000
-10,-4,62,1625921379.0,32.000000
-10,-4,62,1625921379.0,32.000000
-11,-4,63,1625921379.0,32.000000
-11,-4,63,1625921379.0,32.000000
-11,-4,62,1625921379.0,32.000000
-7,-5,61,1625921379.0,32.000000
-19,-4,63,1625921379.0,32.000000
-14,-4,61,1625921379.0,32.000000
-12,-4,63,1625921379.0,32.000000
-10,-4,63,1625921379.0,32.000000
-10,-4,62,1625921379.0,32.000000
-10,-4,63,1625921379.0,32.000000
-10,-4,63,1625921379.0,32.000000
-9,-4,62,1625921379.0,32.000000
-10,-4,63,1625921379.0,32.000000
-11,-4,63,1625921379.0,32.000000
-10,-4,62,1625921379.0,32.000000
-9,-4,63,1625921379.0,32.000000
-10,-4,63,1625921379.0,32.000000
-9,-4,63,1625921379.0,32.000000
-9,-5,61,1625921379.0,32.000000
-10,-5,61,1625921379.0,32.000000
-12,-6,59,1625921379.0,32.000000
-10,-4,66,1625921379.0,32.000000
-10,-4,66,1625921379.0,32.000000
-4,-2,61,1625921379.0,32.000000
-4,-3,63,1625921379.0,32.000000
-6,-4,64,1625921379.0,32.000000
-7,-4,62,1625921379.0,32.000000
-8,-5,62,1625921379.0,32.000000
-8,-5,62,1625921379.0,32.000000
-9,-4,63,1625921379.0,32.000000
-9,-4,63,1625921379.0,32.000000
-8,-4,63,1625921379.0,32.000000
-7,-4,63,1625921379.0,32.000000
-6,-4,62,1625921379.0,32.000000
-12,-5,63,1625921379.0,32.000000
-13,-4,63,1625921379.0,32.000000
-14,-4,62,1625921379.0,32.000000
-12,-4,62,1625921379.0,32.000000
-11,-5,61,1625921379.0,32.000000
-8,-5,63,1625921379.0,32.000000
-9,-5,63,1625921379.0,32.000000
-10,-4,62,1625921379.0,32.000000
-10,-4,63,1625921379.0,32.000000
-9,-4,63,1625921379.0,32.000000
-9,-4,63,1625921379.0,32.000000
-9,-4,63,1625921379.0,32.000000
-10,-4,63,1625921379.0,32.000000
-10,-4,62,1625921379.0,32.000000
-10,-4,63,1625921379.0,32.000000
-11,-4,63,1625921379.0,32.000000
-12,-4,63,1625921379.0,32.000000
-13,-5,63,1625921379.0,32.000000
-9,-4,62,1625921379.0,32.000000
-9,-4,62,1625921379.0,32.000000
-10,-4,63,1625921379.0,32.000000
-10,-4,63,1625921379.0,32.000000
-10,-4,62,1625921379.0,32.000000
-10,-4,63,1625921379.0,32.000000
-10,-4,62,1625921379.0,32.000000
-10,-4,63,1625921379.0,32.000000
-10,-4,63,1625921379.0,32.000000
-10,-4,63,1625921379.0,32.000000
-10,-4,62,1625921379.0,32.000000
-10,-4,63,1625921379.0,32.000000
-10,-4,63,1625921379.0,32.000000
-10,-4,63,1625921379.0,32.000000
-10,-4,63,1625921379.0,32.000000
-11,-4,62,1625921379.0,32.000000
-10,-4,62,1625921379.0,32.000000
-10,-4,62,1625921379.0,32.000000
-9,-4,63,1625921379.0,32.000000
-10,-4,63,1625921379.0,32.000000
-10,-4,62,1625921379.0,32.000000
-10,-5,63,1625921379.0,32.000000
-10,-4,63,1625921379.0,32.000000
-9,-4,62,1625921379.0,32.000000
-10,-4,63,1625921379.0,32.000000
-11,-4,63,1625921379.0,32.000000
-10,-4,62,1625921379.0,32.000000
-9,-4,63,1625921379.0,32.000000
-9,-4,63,1625921379.0,32.000000
-10,-5,63,1625921379.0,32.000000
-11,-4,62,1625921379.0,32.000000
-9,-4,62,1625921379.0,32.000000
-9,-4,63,1625921379.0,32.000000
-10,-4,63,1625921379.0,32.000000
-10,-4,63,1625921379.0,32.000000
-9,-4,62,1625921379.0,32.000000
-9,-4,62,1625921379.0,32.000000
-10,-4,63,1625921379.0,32.000000
-10,-4,63,1625921379.0,32.000000
-10,-5,63,1625921379.0,32.000000
-9,-4,62,1625921379.0,32.000000
-9,-4,63,1625921379.0,32.000000
-9,-4,63,1625921379.0,32.000000
-9,-4,63,1625921379.0,32.000000
-9,-4,63,1625921379.0,32.000000
-9,-4,63,1625921379.0,32.000000
-9,-4,62,1625921379.0,32.000000
-9,-4,63,1625921379.0,32.000000
-10,-4,63,1625921379.0,32.000000
-10,-5,63,1625921379.0,32.000000
-10,-4,63,1625921379.0,32.000000
-9,-4,62,1625921379.0,32.000000
-9,-4,63,1625921379.0,32.000000
-9,-4,63,1625921379.0,32.000000
-10,-4,63,1625921379.0,32.000000
-9,-5,63,1625921379.0,32.000000
-9,-5,63,1625921379.0,32.000000
-9,-4,63,1625921379.0,32.000000
-10,-4,63,1625921379.0,32.000000
-10,-4,63,1625921379.0,32.000000
-9,-4,63,1625921379.0,32.000000
-9,-4,63,1625921379.0,32.000000
-9,-4,63,1625921379.0,32.000000
-10,-4,63,1625921379.0,32.000000
-9,-4,62,1625921379.0,32.000000
-9,-5,63,1625921379.0,32.000000
-9,-4,63,1625921379.0,32.000000
-9,-4,63,1625921379.0,32.000000
-10,-4,63,1625921379.0,32.000000
-9,-4,63,1625921379.0,32.000000
-9,-5,63,1625921379.0,32.000000
-9,-4,62,1625921379.0,32.000000
-9,-4,63,1625921379.0,32.000000
-9,-4,63,1625921379.0,32.000000
-9,-5,63,1625921379.0,32.000000
-9,-4,63,1625921379.0,32.000000
-9,-4,63,1625921379.0,32.000000
-9,-4,63,1625921379.0,32.000000
-9,-4,63,1625921379.0,32.000000
-10,-4,63,1625921379.0,32.000000
-9,-4,63,1625921379.0,32.000000
-9,-4,62,1625921379.0,32.000000
-9,-4,62,1625921379.0,32.000000
-9,-5,63,1625921379.0,32.000000
-9,-5,63,1625921379.0,32.000000
-9,-4,63,1625921379.0,32.000000
-9,-4,63,1625921379.0,32.000000
-10,-4,63,1625921379.0,32.000000
-9,-4,63,1625921379.0,32.000000
-9,-4,62,1625921379.0,32.000000
-9,-4,63,1625921379.0,32.000000
-9,-4,63,1625921379.0,32.000000
-9,-4,63,1625921379.0,32.000000
-9,-4,63,1625921379.0,32.000000
-9,-4,63,1625921379.0,32.000000
-10,-4,63,1625921379.0,32.000000
-8,-5,63,1625921379.0,32.000000
-9,-4,63,1625921379.0,32.000000
-9,-4,62,1625921379.0,32.000000
-9,-4,63,1625921379.0,32.000000
-9,-4,63,1625921379.0,32.000000
-9,-4,63,1625921379.0,32.000000
-9,-4,63,1625921379.0,32.000000
-9,-4,63,1625921379.0,32.000000
-9,-4,62,1625921379.0,32.000000
-8,-4,63,1625921379.0,32.000000
-8,-4,63,1625921379.0,32.000000
-9,-4,63,1625921379.0,32.000000
-9,-4,63,1625921379.0,32.000000
-9,-4,63,1625921379.0,32.000000
-8,-4,63,1625921379.0,32.000000
-8,-4,63,1625921379.0,32.000000
-9,-4,63,1625921379.0,32.000000
-9,-4,63,1625921379.0,32.000000
-8,-4,63,1625921379.0,32.000000
-8,-4,63,1625921379.0,32.000000
-9,-4,63,1625921379.0,32.000000
-9,-4,63,1625921379.0,32.000000
-9,-5,63,1625921379.0,32.000000
-8,-5,63,1625921379.0,32.000000
-8,-4,63,1625921379.0,32.000000
-9,-4,63,1625921379.0,32.000000
-9,-4,63,1625921379.0,32.000000
-8,-4,63,1625921379.0,32.000000
-8,-4,63,1625921379.0,32.000000
-9,-4,63,1625921379.0,32.000000
-9,-4,63,1625921379.0,32.000000
-8,-4,63,1625921379.0,32.000000
-8,-4,63,1625921379.0,32.000000
-8,-4,63,1625921379.0,32.000000
-9,-4,63,1625921379.0,32.000000
-9,-4,63,1625921379.0,32.000000
-8,-4,63,1625921379.0,32.000000
-8,-4,63,1625921379.0,32.000000
-9,-4,63,1625921379.0,32.000000
-9,-4,63,1625921379.0,32.000000
-8,-4,63,1625921379.0,32.000000
-8,-4,63,1625921379.0,32.000000
-8,-4,62,1625921379.0,32.000000
-8,-4,63,1625921379.0,32.000000
-9,-4,63,1625921379.0,32.000000
-9,-4,63,1625921379.0,32.000000
-8,-4,63,1625921379.0,32.000000
-8,-4,63,1625921379.0,32.000000
-8,-4,63,1625921379.0,32.000000
-9,-4,63,1625921379.0,32.000000
-9,-4,63,1625921379.0,32.000000
-8,-4,63,1625921379.0,32.000000
-8,-4,63,1625921379.0,32.000000
-9,-4,63,1625921379.0,32.000000
-9,-4,63,1625921379.0,32.000000
-8,-4,63,1625921379.0,32.000000
-8,-4,63,1625921379.0,32.000000
-9,-4,63,1625921379.0,32.000000
-8,-4,63,1625921379.0,32.000000
-9,-4,63,1625921379.0,32.000000
-9,-4,63,1625921379.0,32.000000
-9,-4,63,1625921379.0,32.000000
-9,-4,63,1625921379.0,32.000000
-9,-4,63,1625921379.0,32.000000
-8,-4,63,1625921379.0,32.000000
-8,-4,63,1625921379.0,32.000000
-9,-4,63,1625921379.0,32.000000
-9,-4,63,1625921379.0,32.000000
-9,-4,63,1625921379.0,32.000000
-9,-4,63,1625921379.0,32.000000
-9,-4,63,1625921379.0,32.000000
-8,-4,63,1625921379.0,32.000000
-8,-4,63,1625921379.0,32.000000
-9,-4,63,1625921379.0,32.000000
-9,-4,63,1625921379.0,32.000000
-9,-4,62,1625921379.0,32.000000
-8,-4,63,1625921379.0,32.000000
-8,-4,63,1625921379.0,32.000000
-9,-4,63,1625921379.0,32.000000
-9,-4,63,1625921379.0,32.000000
-9,-4,63,1625921379.0,32.000000
-8,-4,63,1625921379.0,32.000000
-8,-4,63,1625921379.0,32.000000
-9,-5,63,1625921379.0,32.000000
-9,-5,63,1625921379.0,32.000000
-8,-4,63,1625921379.0,32.000000
-8,-4,63,1625921379.0,32.000000
-9,-4,63,1625921379.0,32.000000
-9,-4,63,1625921379.0,32.000000
-8,-4,63,1625921379.0,32.000000
-8,-4,63,1625921379.0,32.000000
-9,-4,63,1625921379.0,32.000000
-9,-4,63,1625921379.0,32.000000
-9,-4,63,1625921379.0,32.000000
-9,-4,63,1625921379.0,32.000000
-8,-4,63,1625921379.0,32.000000
-9,-4,63,1625921379.0,32.000000
-10,-4,63,1625921379.0,32.000000
-9,-4,63,1625921379.0,32.000000
-7,-5,63,1625921379.0,32.000000
-8,-4,63,1625921379.0,32.000000
-8,-4,63,1625921379.0,32.000000
-8,-4,63,1625921379.0,32.000000
-8,-4,63,1625921379.0,32.000000
-8,-4,63,1625921379.0,32.000000
-8,-4,63,1625921379.0,32.000000
-8,-4,63,1625921379.0,32.000000
-9,-4,63,1625921379.0,32.000000
-8,-4,63,1625921379.0,32.000000
-8,-4,63,1625921379.0,32.000000
-9,-4,63,1625921379.0,32.000000
-8,-4,63,1625921379.0,32.000000
-8,-4,63,1625921379.0,32.000000
-8,-4,63,1625921379.0,32.000000
-9,-4,63,1625921379.0,32.000000
-9,-4,63,1625921379.0,32.000000
-8,-4,63,1625921379.0,32.000000
-8,-4,63,1625921379.0,32.000000
-8,-5,63,1625921379.0,32.000000
-8,-4,63,1625921379.0,32.000000
-9,-4,63,1625921379.0,32.000000
-9,-4,63,1625921379.0,32.000000
-8,-4,63,1625921379.0,32.000000
-8,-4,63,1625921379.0,32.000000
-9,-4,63,1625921379.0,32.000000
-8,-4,63,1625921379.0,32.000000
-8,-5,63,1625921379.0,32.000000
-8,-4,63,1625921379.0,32.000000
-9,-5,63,1625921379.0,32.000000
-8,-4,63,1625921379.0,32.000000
-8,-4,63,1625921379.0,32.000000
-8,-4,63,1625921379.0,32.000000
-9,-4,63,1625921379.0,32.000000
-8,-5,63,1625921379.0,32.000000
-8,-4,63,1625921379.0,32.000000
-8,-4,63,1625921379.0,32.000000
-8,-5,63,1625921379.0,32.000000
-8,-4,63,1625921379.0,32.000000
-9,-4,62,1625921379.0,32.000000
-9,-5,63,1625921379.0,32.000000
-8,-5,63,1625921379.0,32.000000
-8,-4,63,1625921379.0,32.000000
-8,-4,63,1625921379.0,32.000000
-8,-4,63,1625921379.0,32.000000
-8,-4,63,1625921379.0,32.000000
-8,-5,63,1625921379.0,32.000000
-8,-5,63,1625921379.0,32.000000
-8,-4,63,1625921379.0,32.000000
-8,-5,63,1625921379.0,32.000000
-8,-4,63,1625921379.0,32.000000
-9,-4,63,1625921379.0,32.000000
-8,-5,63,1625921379.0,32.000000
-8,-4,63,1625921379.0,32.000000
-8,-4,63,1625921379.0,32.000000
-9,-5,63,1625921379.0,32.000000
-8,-4,63,1625921379.0,32.000000
-8,-4,63,1625921379.0,32.000000
-8,-4,63,1625921379.0,32.000000
-8,-4,63,1625921379.0,32.000000
-9,-4,63,1625921379.0,32.000000
-8,-4,63,1625921379.0,32.000000
-8,-4,63,1625921379.0,32.000000
-8,-4,63,1625921379.0,32.000000
-8,-4,63,1625921379.0,32.000000
-8,-5,63,1625921379.0,32.000000
-8,-5,63,1625921379.0,32.000000
-7,-5,63,1625921379.0,32.000000
-7,-5,63,1625921379.0,32.000000
-8,-4,63,1625921379.0,32.000000
-8,-4,63,1625921379.0,32.000000
-8,-4,63,1625921379.0,32.000000
-8,-5,63,1625921379.0,32.000000
-7,-5,63,1625921379.0,32.000000
-8,-5,63,1625921379.0,32.000000
-8,-4,63,1625921379.0,32.000000
-8,-5,63,1625921379.0,32.000000
-7,-5,63,1625921379.0,32.000000
-8,-5,63,1625921379.0,32.000000
-8,-5,63,1625921379.0,32.000000
-8,-5,63,1625921379.0,32.000000
-8,-4,63,1625921379.0,32.000000
-8,-5,63,1625921379.0,32.000000
-7,-5,63,1625921379.0,32.000000
-8,-4,63,1625921379.0,32.000000
-8,-5,63,1625921379.0,32.000000
-8,-4,63,1625921379.0,32.000000
-8,-5,63,1625921379.0,32.000000
-8,-4,63,1625921379.0,32.000000
-8,-4,63,1625921379.0,32.000000
-8,-5,63,1625921379.0,32.000000
-7,-5,63,1625921379.0,32.000000
-8,-4,62,1625921379.0,32.000000
-8,-4,63,1625921379.0,32.000000
-8,-5,63,1625921379.0,32.000000
-8,-4,62,1625921379.0,32.000000
-7,-5,63,1625921379.0,32.000000
-8,-5,63,1625921379.0,32.000000
-8,-5,63,1625921379.0,32.000000
-8,-4,62,1625921379.0,32.000000
-9,-4,63,1625921379.0,32.000000
-8,-4,63,1625921379.0,32.000000
-9,-4,63,1625921379.0,32.000000
-9,-4,63,1625921379.0,32.000000
-8,-5,63,1625921379.0,32.000000
-7,-5,63,1625921379.0,32.000000
-8,-5,63,1625921379.0,32.000000
-9,-5,63,1625921379.0,32.000000
-9,-4,62,1625921379.0,32.000000
-9,-4,63,1625921379.0,32.000000
-9,-4,63,1625921379.0,32.000000
-10,-5,63,1625921379.0,32.000000
-11,-4,62,1625921379.0,32.000000
-10,-4,62,1625921379.0,32.000000
-7,-4,63,1625921379.0,32.000000
-7,-4,63,1625921379.0,32.000000
-8,-4,63,1625921379.0,32.000000
-10,-4,62,1625921379.0,32.000000
-10,-5,63,1625921379.0,32.000000
-9,-4,63,1625921379.0,32.000000
-9,-4,63,1625921379.0,32.000000
-9,-4,63,1625921379.0,32.000000
-9,-4,63,1625921379.0,32.000000
-10,-4,63,1625921379.0,32.000000
-10,-4,63,1625921379.0,32.000000
-9,-4,63,1625921379.0,32.000000
-8,-4,63,1625921379.0,32.000000
-9,-4,63,1625921379.0,32.000000
-10,-4,63,1625921379.0,32.000000
-8,-4,63,1625921379.0,32.000000
-8,-4,63,1625921379.0,32.000000
-9,-4,63,1625921379.0,32.000000
-9,-4,63,1625921379.0,32.000000
-9,-4,63,1625921379.0,32.000000
-8,-4,63,1625921379.0,32.000000
-8,-4,63,1625921379.0,32.000000
-9,-4,63,1625921379.0,32.000000
-9,-4,63,1625921379.0,32.000000
-8,-4,63,1625921379.0,32.000000
-8,-4,63,1625921379.0,32.000000
-8,-4,63,1625921379.0,32.000000
-9,-4,63,1625921379.0,32.000000
-9,-4,63,1625921379.0,32.000000
-8,-4,63,1625921379.0,32.000000
-9,-4,63,1625921379.0,32.000000
-9,-4,63,1625921379.0,32.000000
-9,-4,63,1625921379.0,32.000000
-8,-4,63,1625921379.0,32.000000
-8,-4,63,1625921379.0,32.000000
-8,-4,63,1625921379.0,32.000000
-8,-4,63,1625921379.0,32.000000
-8,-5,63,1625921379.0,32.000000
-8,-4,63,1625921379.0,32.000000
-8,-4,63,1625921379.0,32.000000
-8,-4,63,1625921379.0,32.000000
-9,-4,63,1625921379.0,32.000000
-8,-4,63,1625921379.0,32.000000
-8,-4,63,1625921379.0,32.000000
-9,-4,63,1625921379.0,32.000000
-9,-4,63,1625921379.0,32.000000
-8,-4,63,1625921379.0,32.000000
-8,-4,63,1625921379.0,32.000000
-8,-4,63,1625921379.0,32.000000
-9,-4,63,1625921379.0,32.000000
-8,-4,63,1625921379.0,32.000000
-8,-4,63,1625921379.0,32.000000
-8,-4,63,1625921379.0,32.000000
-8,-4,63,1625921379.0,32.000000
-8,-4,63,1625921379.0,32.000000
-8,-4,63,1625921379.0,32.000000
-8,-4,63,1625921379.0,32.000000
-8,-4,63,1625921379.0,32.000000
-8,-4,63,1625921379.0,32.000000
-9,-4,63,1625921379.0,32.000000
-9,-4,63,1625921379.0,32.000000
-9,-5,63,1625921379.0,32.000000
-8,-4,63,1625921379.0,32.000000
-8,-4,63,1625921379.0,32.000000
-8,-4,63,1625921379.0,32.000000
-9,-5,63,1625921379.0,32.000000
-8,-4,63,1625921379.0,32.000000
-8,-4,63,1625921379.0,32.000000
-8,-4,63,1625921379.0,32.000000
-8,-4,63,1625921379.0,32.000000
-8,-5,63,1625921379.0,32.000000
-8,-4,63,1625921379.0,32.000000
-8,-4,63,1625921379.0,32.000000
-8,-4,62,1625921379.0,32.000000
-8,-4,63,1625921379.0,32.000000
-8,-4,63,1625921379.0,32.000000
-8,-4,63,1625921379.0,32.000000
-8,-4,63,1625921379.0,32.000000
-8,-4,63,1625921379.0,32.000000
-8,-4,63,1625921379.0,32.000000
-8,-5,63,1625921379.0,32.000000
-8,-4,63,1625921379.0,32.000000
-8,-4,63,1625921379.0,32.000000
-8,-4,63,1625921379.0,32.000000
-8,-4,63,1625921379.0,32.000000
-8,-4,63,1625921379.0,32.000000
-8,-4,63,1625921379.0,32.000000
-8,-4,63,1625921379.0,32.000000
-8,-4,63,1625921379.0,32.000000
-8,-4,63,1625921379.0,32.000000
-8,-4,63,1625921379.0,32.000000
-8,-4,63,1625921379.0,32.000000
-8,-4,63,1625921379.0,32.000000
-8,-4,63,1625921379.0,32.000000
-8,-4,62,1625921379.0,32.000000
-8,-4,63,1625921379.0,32.000000
-8,-4,63,1625921379.0,32.000000
-10,-5,64,1625921379.0,32.000000
-5,-5,63,1625921379.0,32.000000
-7,-4,63,1625921379.0,32.000000
-8,-4,63,1625921379.0,32.000000
-8,-4,63,1625921379.0,32.000000
-8,-4,63,1625921379.0,32.000000
-7,-4,63,1625921379.0,32.000000
-8,-4,63,1625921379.0,32.000000
-9,-4,62,1625921379.0,32.000000
-7,-4,63,1625921379.0,32.000000
-8,-4,63,1625921379.0,32.000000
-8,-4,63,1625921379.0,32.000000
-7,-4,63,1625921379.0,32.000000
-8,-4,63,1625921379.0,32.000000
-7,-4,62,1625921379.0,32.000000
-8,-4,63,1625921379.0,32.000000
-8,-4,63,1625921379.0,32.000000
-7,-4,63,1625921379.0,32.000000
-8,-4,63,1625921379.0,32.000000
-8,-4,63,1625921379.0,32.000000
-8,-4,63,1625921379.0,32.000000
-8,-4,63,1625921379.0,32.000000
-8,-4,63,1625921379.0,32.000000
-8,-4,63,1625921379.0,32.000000
-7,-4,63,1625921379.0,32.000000
-7,-4,63,1625921379.0,32.000000
-8,-4,63,1625921379.0,32.000000
-8,-4,63,1625921379.0,32.000000
-8,-4,63,1625921379.0,32.000000
-8,-4,63,1625921379.0,32.000000
-8,-4,63,1625921379.0,32.000000
-8,-4,63,1625921379.0,32.000000
-8,-4,63,1625921379.0,32.000000
-8,-4,63,1625921379.0,32.000000
-8,-4,63,1625921379.0,32.000000
-7,-4,63,1625921379.0,32.000000
-7,-4,63,1625921379.0,32.000000
-7,-4,63,1625921379.0,32.000000
-7,-4,63,1625921379.0,32.000000
-8,-4,63,1625921379.0,32.000000
-8,-4,63,1625921379.0,32.000000
-8,-4,63,1625921379.0,32.000000
-7,-4,63,1625921379.0,32.000000
-8,-4,63,1625921379.0,32.000000
-8,-4,63,1625921379.0,32.000000
-8,-4,63,1625921379.0,32.000000
-7,-4,63,1625921379.0,32.000000
-8,-4,63,1625921379.0,32.000000
-8,-4,63,1625921379.0,32.000000
-8,-4,63,1625921379.0,32.000000
-8,-4,63,1625921379.0,32.000000
-8,-4,63,1625921379.0,32.000000
-8,-4,63,1625921379.0,32.000000
-8,-4,63,1625921379.0,32.000000
-7,-5,63,1625921379.0,32.000000
-8,-4,63,1625921379.0,32.000000
-8,-5,62,1625921379.0,32.000000
-8,-4,63,1625921379.0,32.000000
-7,-4,62,1625921379.0,32.000000
-7,-4,63,1625921379.0,32.000000
-7,-4,62,1625921379.0,32.000000
-8,-4,63,1625921379.0,32.000000
-8,-5,63,1625921379.0,32.000000
-8,-4,63,1625921379.0,32.000000
-7,-4,63,1625921379.0,32.000000
-8,-4,63,1625921379.0,32.000000
-8,-4,63,1625921379.0,32.000000
-8,-4,63,1625921379.0,32.000000
-7,-4,63,1625921379.0,32.000000
-8,-4,63,1625921379.0,32.000000
-8,-4,63,1625921379.0,32.000000
-8,-4,63,1625921379.0,32.000000
-8,-4,63,1625921379.0,32.000000
-8,-4,63,1625921379.0,32.000000
-8,-4,63,1625921379.0,32.000000
-8,-4,63,1625921379.0,32.000000
-8,-4,63,1625921379.0,32.000000
-8,-4,63,1625921379.0,32.000000
-8,-4,63,1625921379.0,32.000000
-8,-4,63,1625921379.0,32.000000
-7,-4,63,1625921379.0,32.000000
-8,-4,63,1625921379.0,32.000000
-8,-4,63,1625921379.0,32.000000
-7,-4,63,1625921379.0,32.000000
-8,-4,63,1625921379.0,32.000000
-8,-4,63,1625921379.0,32.000000
-8,-4,63,1625921379.0,32.000000
-7,-4,63,1625921379.0,32.000000
-8,-4,63,1625921379.0,32.000000
-8,-4,63,1625921379.0,32.000000
-8,-4,63,1625921379.0,32.000000
-7,-4,63,1625921379.0,32.000000
-7,-4,63,1625921379.0,32.000000
-9,-4,63,1625921379.0,32.000000
-8,-4,63,1625921379.0,32.000000
-7,-4,63,1625921379.0,32.000000
-8,-4,63,1625921379.0,32.000000
-8,-4,63,1625921379.0,32.000000
-8,-4,63,1625921379.0,32.000000
-8,-5,63,1625921379.0,32.000000
-8,-4,63,1625921379.0,32.000000
-8,-4,63,1625921379.0,32.000000
-8,-4,63,1625921379.0,32.000000
-8,-4,63,1625921379.0,32.000000
-8,-4,63,1625921379.0,32.000000
-7,-5,63,1625921379.0,32.000000
-8,-4,63,1625921379.0,32.000000
-8,-4,63,1625921379.0,32.000000
-7,-4,63,1625921379.0,32.000000
-8,-4,62,1625921379.0,32.000000
-8,-4,63,1625921379.0,32.000000
-8,-4,63,1625921379.0,32.000000
-7,-4,63,1625921379.0,32.000000
-7,-4,63,1625921379.0,32.000000
-8,-4,63,1625921379.0,32.000000
-8,-4,63,1625921379.0,32.000000
-8,-4,63,1625921379.0,32.000000
-8,-4,63,1625921379.0,32.000000
-8,-4,63,1625921379.0,32.000000
-8,-4,63,1625921379.0,32.000000
-8,-4,63,1625921379.0,32.000000
-8,-4,63,1625921379.0,32.000000
-8,-5,63,1625921379.0,32.000000
-8,-4,63,1625921379.0,32.000000
-7,-4,63,1625921379.0,32.000000
-8,-4,63,1625921379.0,32.000000
-8,-4,63,1625921379.0,32.000000
-8,-4,63,1625921379.0,32.000000
-7,-4,63,1625921379.0,32.000000
-7,-4,63,1625921379.0,32.000000
-8,-4,63,1625921379.0,32.000000
-8,-4,63,1625921379.0,32.000000
-7,-5,63,1625921379.0,32.000000
-8,-4,63,1625921379.0,32.000000
-8,-4,63,1625921379.0,32.000000
-8,-4,63,1625921379.0,32.000000
-8,-4,63,1625921379.0,32.000000
-7,-4,63,1625921379.0,32.000000
-7,-4,63,1625921379.0,32.000000
-8,-5,63,1625921379.0,32.000000
-7,-4,63,1625921379.0,32.000000
-7,-4,63,1625921379.0,32.000000
-8,-4,63,1625921379.0,32.000000
-8,-4,63,1625921379.0,32.000000
-8,-4,63,1625921379.0,32.000000
-8,-4,63,1625921379.0,32.000000
-8,-4,63,1625921379.0,32.000000
-8,-4,63,1625921379.0,32.000000
-8,-4,63,1625921379.0,32.000000
-7,-4,63,1625921379.0,32.000000
-7,-4,63,1625921379.0,32.000000
-8,-4,63,1625921379.0,32.000000
-7,-4,63,1625921379.0,32.000000
-7,-4,63,1625921379.0,32.000000
-8,-4,63,1625921379.0,32.000000
-8,-5,63,1625921379.0,32.000000
-7,-4,63,1625921379.0,32.000000
-8,-4,63,1625921379.0,32.000000
-8,-4,63,1625921379.0,32.000000
-7,-4,63,1625921379.0,32.000000
-8,-4,63,1625921379.0,32.000000
-8,-4,63,1625921379.0,32.000000
-7,-4,63,1625921379.0,32.000000
-8,-4,63,1625921379.0,32.000000
-8,-4,63,1625921379.0,32.000000
-7,-5,63,1625921379.0,32.000000
-10,-4,63,1625921379.0,32.000000
-9,-5,62,1625921379.0,32.000000
-7,-4,64,1625921379.0,32.000000
-8,-4,63,1625921379.0,32.000000
-7,-4,63,1625921379.0,32.000000
-7,-4,63,1625921379.0,32.000000
-8,-4,63,1625921379.0,32.000000
-8,-4,63,1625921379.0,32.000000
-8,-4,63,1625921379.0,32.000000
-7,-4,63,1625921379.0,32.000000
-7,-4,63,1625921379.0,32.000000
-8,-4,63,1625921379.0,32.000000
-9,-4,62,1625921379.0,32.000000
-7,-5,63,1625921379.0,32.000000
-7,-4,63,1625921379.0,32.000000
-8,-4,63,1625921379.0,32.000000
-7,-4,63,1625921379.0,32.000000
-7,-4,63,1625921379.0,32.000000
-8,-5,62,1625921379.0,32.000000
-7,-5,64,1625921379.0,32.000000
-7,-4,63,1625921379.0,32.000000
-7,-4,63,1625921379.0,32.000000
-7,-5,63,1625921379.0,32.000000
-9,-4,62,1625921379.0,32.000000
-8,-5,63,1625921379.0,32.000000
-9,-5,64,1625921379.0,32.000000
-6,-5,63,1625921379.0,32.000000
-7,-5,63,1625921379.0,32.000000
-7,-4,63,1625921379.0,32.000000
-7,-5,63,1625921379.0,32.000000
-7,-5,64,1625921379.0,32.000000
-8,-5,62,1625921379.0,32.000000
-8,-4,62,1625921379.0,32.000000
-9,-4,63,1625921379.0,32.000000
-7,-4,63,1625921379.0,32.000000
-7,-4,62,1625921379.0,32.000000
-8,-4,63,1625921379.0,32.000000
-8,-4,63,1625921379.0,32.000000
-7,-4,63,1625921379.0,32.000000
-8,-4,63,1625921379.0,32.000000
-8,-4,63,1625921379.0,32.000000
-7,-4,62,1625921379.0,32.000000
-8,-4,63,1625921379.0,32.000000
-9,-4,63,1625921379.0,32.000000
-8,-5,62,1625921379.0,32.000000
-3,-6,63,1625921379.0,32.000000
-10,-4,61,1625921379.0,32.000000
-8,-4,62,1625921379.0,32.000000
-7,-4,63,1625921379.0,32.000000
-9,-4,62,1625921379.0,32.000000
-7,-5,63,1625921379.0,32.000000
-7,-4,63,1625921379.0,32.000000
-8,-4,64,1625921379.0,32.000000
-8,-4,63,1625921379.0,32.000000
-8,-5,63,1625921379.0,32.000000
-8,-4,63,1625921379.0,32.000000
-8,-4,63,1625921379.0,32.000000
-8,-4,63,1625921379.0,32.000000
-8,-5,62,1625921379.0,32.000000
-7,-5,63,1625921379.0,32.000000
-7,-4,64,1625921379.0,32.000000
-9,-4,62,1625921379.0,32.000000
-8,-5,64,1625921379.0,32.000000
-7,-5,62,1625921379.0,32.000000
-8,-4,63,1625921379.0,32.000000
-7,-4,63,1625921379.0,32.000000
-7,-5,62,1625921379.0,32.000000
-7,-4,63,1625921379.0,32.000000
-8,-4,63,1625921379.0,32.000000
-7,-5,63,1625921379.0,32.000000
-6,-5,64,1625921379.0,32.000000
-8,-5,63,1625921379.0,32.000000
-8,-5,63,1625921379.0,32.000000
-8,-5,63,1625921379.0,32.000000
-7,-4,64,1625921379.0,32.000000
-8,-4,62,1625921379.0,32.000000
-8,-4,63,1625921379.0,32.000000
-7,-4,63,1625921379.0,32.000000
-8,-4,63,1625921379.0,32.000000
-7,-4,63,1625921379.0,32.000000
-7,-4,63,1625921379.0,32.000000
-9,-4,62,1625921379.0,32.000000
-8,-5,63,1625921379.0,32.000000
-7,-4,63,1625921379.0,32.000000
-7,-4,62,1625921379.0,32.000000
-7,-4,63,1625921379.0,32.000000
-8,-4,62,1625921379.0,32.000000
-7,-4,63,1625921379.0,32.000000
-8,-5,63,1625921379.0,32.000000
-8,-4,62,1625921379.0,32.000000
-7,-4,63,1625921379.0,32.000000
-8,-5,63,1625921379.0,32.000000
-8,-4,63,1625921379.0,32.000000
-7,-4,63,1625921379.0,32.000000
-8,-4,62,1625921379.0,32.000000
-9,-4,63,1625921379.0,32.000000
-8,-4,63,1625921379.0,32.000000
-7,-4,63,1625921379.0,32.000000
-8,-4,63,1625921379.0,32.000000
-8,-4,63,1625921379.0,32.000000
-8,-5,63,1625921379.0,32.000000
-8,-4,63,1625921379.0,32.000000
-8,-4,63,1625921379.0,32.000000
-8,-4,63,1625921379.0,32.000000
-8,-5,62,1625921379.0,32.000000
-8,-4,63,1625921379.0,32.000000
-7,-4,63,1625921379.0,32.000000
-8,-4,63,1625921379.0,32.000000
-8,-4,63,1625921379.0,32.000000
-8,-4,63,1625921379.0,32.000000
-8,-4,63,1625921379.0,32.000000
-9,-4,63,1625921379.0,32.000000
-7,-4,63,1625921379.0,32.000000
-7,-4,63,1625921379.0,32.000000
-8,-4,63,1625921379.0,32.000000
-8,-4,63,1625921379.0,32.000000
-8,-4,63,1625921379.0,32.000000
-8,-4,63,1625921379.0,32.000000
-8,-4,63,1625921379.0,32.000000
-8,-4,64,1625921379.0,32.000000
-8,-5,63,1625921379.0,32.000000
-8,-5,63,1625921379.0,32.000000
-7,-4,63,1625921379.0,32.000000
-8,-5,63,1625921379.0,32.000000
-8,-4,63,1625921379.0,32.000000
-8,-5,63,1625921379.0,32.000000
-8,-4,63,1625921379.0,32.000000
-8,-4,63,1625921379.0,32.000000
-8,-4,63,1625921379.0,32.000000
-7,-4,63,1625921379.0,32.000000
-8,-5,63,1625921379.0,32.000000
-8,-5,63,1625921379.0,32.000000
-7,-5,63,1625921379.0,32.000000
-8,-4,63,1625921379.0,32.000000
-7,-4,63,1625921379.0,32.000000
-8,-4,63,1625921379.0,32.000000
-8,-4,63,1625921379.0,32.000000
-8,-4,63,1625921379.0,32.000000
-8,-4,63,1625921379.0,32.000000
-8,-4,63,1625921379.0,32.000000
-8,-4,63,1625921379.0,32.000000
-8,-5,63,1625921379.0,32.000000
-7,-4,63,1625921379.0,32.000000
-8,-4,63,1625921379.0,32.000000
-7,-4,63,1625921379.0,32.000000
-8,-5,64,1625921379.0,32.000000
-6,-4,62,1625921379.0,32.000000
-6,-4,63,1625921379.0,32.000000
-8,-5,63,1625921379.0,32.000000
-8,-5,63,1625921379.0,32.000000
-7,-4,63,1625921379.0,32.000000
-8,-4,63,1625921379.0,32.000000
-9,-5,62,1625921379.0,32.000000
-6,-4,64,1625921379.0,32.000000
-7,-5,63,1625921379.0,32.000000
-8,-5,63,1625921379.0,32.000000
-7,-4,63,1625921379.0,32.000000
-7,-4,63,1625921379.0,32.000000
-7,-5,63,1625921379.0,32.000000
-7,-5,63,1625921379.0,32.000000
-8,-5,63,1625921379.0,32.000000
-8,-4,63,1625921379.0,32.000000
-7,-5,63,1625921379.0,32.000000
-8,-4,63,1625921379.0,32.000000
-8,-4,63,1625921379.0,32.000000
-8,-4,63,1625921379.0,32.000000
-7,-5,63,1625921379.0,32.000000
-8,-5,63,1625921379.0,32.000000
-7,-5,63,1625921379.0,32.000000
-7,-4,63,1625921379.0,32.000000
-6,-5,63,1625921379.0,32.000000
-7,-4,63,1625921379.0,32.000000
-7,-5,63,1625921379.0,32.000000
-8,-5,63,1625921379.0,32.000000
-7,-4,63,1625921379.0,32.000000
-7,-4,63,1625921379.0,32.000000
-7,-5,63,1625921379.0,32.000000
-8,-5,63,1625921379.0,32.000000
-8,-5,63,1625921379.0,32.000000
-8,-4,63,1625921379.0,32.000000
-7,-4,63,1625921379.0,32.000000
-7,-5,63,1625921379.0,32.000000
-7,-5,63,1625921379.0,32.000000
-7,-5,63,1625921379.0,32.000000
-8,-5,63,1625921379.0,32.000000
-7,-5,63,1625921379.0,32.000000
-7,-4,63,1625921379.0,32.000000
-7,-5,63,1625921379.0,32.000000
-7,-5,63,1625921379.0,32.000000
-7,-4,63,1625921379.0,32.000000
-6,-5,63,1625921379.0,32.000000
-7,-4,63,1625921379.0,32.000000
-7,-5,63,1625921379.0,32.000000
-7,-5,63,1625921379.0,32.000000
-7,-5,63,1625921379.0,32.000000
-7,-5,63,1625921379.0,32.000000
-7,-5,63,1625921379.0,32.000000
-7,-4,63,1625921379.0,32.000000
-7,-5,63,1625921379.0,32.000000
-7,-5,63,1625921379.0,32.000000
-7,-5,63,1625921379.0,32.000000
-7,-5,63,1625921379.0,32.000000
-7,-5,63,1625921379.0,32.000000
-7,-5,63,1625921379.0,32.000000
-7,-5,63,1625921379.0,32.000000
-7,-5,63,1625921379.0,32.000000
-7,-5,63,1625921379.0,32.000000
-7,-5,63,1625921379.0,32.000000
-6,-4,63,1625921379.0,32.000000
-7,-5,63,1625921379.0,32.000000
-8,-5,63,1625921379.0,32.000000
-8,-5,63,1625921379.0,32.000000
-7,-5,63,1625921379.0,32.000000
-7,-5,63,1625921379.0,32.000000
-7,-4,63,1625921379.0,32.000000
-7,-5,63,1625921379.0,32.000000
-7,-5,63,1625921379.0,32.000000
-7,-5,63,1625921379.0,32.000000
-7,-5,63,1625921379.0,32.000000
-7,-5,63,1625921379.0,32.000000
-7,-5,63,1625921379.0,32.000000
-7,-5,63,1625921379.0,32.000000
-7,-5,63,1625921379.0,32.000000
-7,-4,63,1625921379.0,32.000000
-7,-5,63,1625921379.0,32.000000
-7,-4,63,1625921379.0,32.000000
-8,-5,63,1625921379.0,32.000000
-7,-5,63,1625921379.0,32.000000
-7,-4,63,1625921379.0,32.000000
-8,-4,63,1625921379.0,32.000000
-8,-5,63,1625921379.0,32.000000
-7,-4,63,1625921379.0,32.000000
-7,-4,63,1625921379.0,32.000000
-8,-5,63,1625921379.0,32.000000
-8,-5,63,1625921379.0,32.000000
-7,-5,63,1625921379.0,32.000000
-7,-5,63,1625921379.0,32.000000
-7,-4,63,1625921379.0,32.000000
-7,-4,63,1625921379.0,32.000000
-7,-5,63,1625921379.0,32.000000
-7,-5,63,1625921379.0,32.000000
-7,-5,63,1625921379.0,32.000000
-7,-4,63,1625921379.0,32.000000
-7,-4,63,1625921379.0,32.000000
-8,-4,63,1625921379.0,32.000000
-8,-5,63,1625921379.0,32.000000
-7,-4,63,1625921379.0,32.000000
-7,-4,63,1625921379.0,32.000000
-8,-5,63,1625921379.0,32.000000
-8,-5,63,1625921379.0,32.000000
-7,-4,63,1625921379.0,32.000000
-7,-4,63,1625921379.0,32.000000
-7,-4,63,1625921379.0,32.000000
-7,-5,63,1625921379.0,32.000000
-7,-5,63,1625921379.0,32.000000
-7,-5,63,1625921379.0,32.000000
-7,-4,63,1625921379.0,32.000000
-7,-4,63,1625921379.0,32.000000
-8,-5,63,1625921379.0,32.000000
-7,-5,63,1625921379.0,32.000000
-7,-4,63,1625921379.0,32.000000
-6,-4,63,1625921379.0,32.000000
-7,-4,63,1625921379.0,32.000000
-8,-5,63,1625921379.0,32.000000
-8,-5,63,1625921379.0,32.000000
-7,-5,63,1625921379.0,32.000000
-6,-4,63,1625921379.0,32.000000
-7,-4,63,1625921379.0,32.000000
-8,-5,63,1625921379.0,32.000000
-8,-5,63,1625921379.0,32.000000
-7,-5,63,1625921379.0,32.000000
-7,-4,63,1625921379.0,32.000000
-7,-4,63,1625921379.0,32.000000
-7,-5,63,1625921379.0,32.000000
-7,-5,63,1625921379.0,32.000000
-7,-4,63,1625921379.0,32.000000
-7,-5,63,1625921379.0,32.000000
-7,-5,63,1625921379.0,32.000000
-7,-5,63,1625921379.0,32.000000
-7,-5,63,1625921379.0,32.000000
-7,-5,63,1625921379.0,32.000000
-7,-5,63,1625921379.0,32.000000
-7,-5,63,1625921379.0,32.000000
-7,-5,63,1625921379.0,32.000000
-7,-5,63,1625921379.0,32.000000
-6,-4,63,1625921379.0,32.000000
-6,-5,63,1625921379.0,32.000000
-8,-5,63,1625921379.0,32.000000
-8,-5,63,1625921379.0,32.000000
-7,-5,63,1625921379.0,32.000000
-7,-4,63,1625921379.0,32.000000
-7,-4,63,1625921379.0,32.000000
-7,-5,63,1625921379.0,32.000000
-7,-5,63,1625921379.0,32.000000
-7,-5,63,1625921379.0,32.000000
-7,-5,63,1625921379.0,32.000000
-7,-4,63,1625921379.0,32.000000
-7,-4,63,1625921379.0,32.000000
-7,-5,63,1625921379.0,32.000000
-7,-5,63,1625921379.0,32.000000
-7,-5,63,1625921379.0,32.000000
-7,-5,63,1625921379.0,32.000000
-7,-5,63,1625921379.0,32.000000
-7,-5,63,1625921379.0,32.000000
-7,-5,63,1625921379.0,32.000000
-7,-4,63,1625921379.0,32.000000
-7,-5,63,1625921379.0,32.000000
-8,-5,63,1625921379.0,32.000000
-7,-5,63,1625921379.0,32.000000
-7,-5,63,1625921379.0,32.000000
-7,-5,63,1625921379.0,32.000000
-7,-5,63,1625921379.0,32.000000
-7,-5,63,1625921379.0,32.000000
-7,-5,63,1625921379.0,32.000000
-7,-5,63,1625921379.0,32.000000
-7,-4,63,1625921379.0,32.000000
-6,-5,63,1625921379.0,32.000000
-7,-4,63,1625921379.0,32.000000
-8,-5,63,1625921379.0,32.000000
-7,-5,63,1625921379.0,32.000000
-6,-4,63,1625921379.0,32.000000
-7,-4,63,1625921379.0,32.000000
-8,-5,63,1625921379.0,32.000000
-7,-5,63,1625921379.0,32.000000
-7,-5,63,1625921379.0,32.000000
-7,-5,63,1625921379.0,32.000000
-7,-5,63,1625921379.0,32.000000
-8,-5,63,1625921379.0,32.000000
-7,-5,63,1625921379.0,32.000000
-7,-5,63,1625921379.0,32.000000
-7,-5,63,1625921379.0,32.000000
-7,-5,63,1625921379.0,32.000000
-7,-5,63,1625921379.0,32.000000
-7,-5,63,1625921379.0,32.000000
-6,-4,63,1625921379.0,32.000000
-7,-5,63,1625921379.0,32.000000
-7,-5,63,1625921379.0,32.000000
-7,-5,63,1625921379.0,32.000000
-7,-4,63,1625921379.0,32.000000
-7,-4,63,1625921379.0,32.000000
-7,-4,63,1625921379.0,32.000000
-7,-5,63,1625921379.0,32.000000
-7,-5,63,1625921379.0,32.000000
-7,-5,63,1625921379.0,32.000000
-7,-4,63,1625921379.0,32.000000
-7,-5,63,1625921379.0,32.000000
-7,-5,63,1625921379.0,32.000000
-7,-5,63,1625921379.0,32.000000
-7,-4,63,1625921379.0,32.000000
-7,-5,63,1625921379.0,32.000000
-7,-4,63,1625921379.0,32.000000
-7,-5,63,1625921379.0,32.000000
-7,-4,63,1625921379.0,32.000000
-7,-5,63,1625921379.0,32.000000
-7,-5,63,1625921379.0,32.000000
-7,-4,63,1625921379.0,32.000000
-7,-5,63,1625921379.0,32.000000
-7,-5,63,1625921379.0,32.000000
-7,-4,63,1625921379.0,32.000000
-7,-4,63,1625921379.0,32.000000
-7,-5,63,1625921379.0,32.000000
-9,-5,63,1625921379.0,32.000000
-7,-5,62,1625921379.0,32.000000
-7,-5,63,1625921379.0,32.000000
-8,-4,63,1625921379.0,32.000000
-8,-4,63,1625921379.0,32.000000
-8,-5,63,1625921379.0,32.000000
-7,-5,63,1625921379.0,32.000000
-7,-5,63,1625921379.0,32.000000
-7,-4,63,1625921379.0,32.000000
-8,-4,63,1625921379.0,32.000000
-7,-5,63,1625921379.0,32.000000
-7,-4,63,1625921379.0,32.000000
-8,-4,63,1625921379.0,32.000000
-8,-4,63,1625921379.0,32.000000
-7,-5,62,1625921379.0,32.000000
-7,-5,63,1625921379.0,32.000000
-7,-5,63,1625921379.0,32.000000
-7,-5,63,1625921379.0,32.000000
-7,-5,63,1625921379.0,32.000000
-7,-4,63,1625921379.0,32.000000
-7,-5,63,1625921379.0,32.000000
-7,-4,63,1625921379.0,32.000000
-7,-5,63,1625921379.0,32.000000
-8,-5,63,1625921379.0,32.000000
-7,-5,63,1625921379.0,32.000000
-7,-5,63,1625921379.0,32.000000
-8,-4,63,1625921379.0,32.000000
-8,-5,63,1625921379.0,32.000000
-8,-4,63,1625921379.0,32.000000
-7,-5,63,1625921379.0,32.000000
-7,-5,63,1625921379.0,32.000000
-7,-4,63,1625921379.0,32.000000
-8,-4,63,1625921379.0,32.000000
-7,-5,63,1625921379.0,32.000000
-7,-5,63,1625921379.0,32.000000
-7,-5,63,1625921379.0,32.000000
-7,-4,63,1625921379.0,32.000000
-7,-4,63,1625921379.0,32.000000
-7,-5,63,1625921379.0,32.000000
-7,-5,63,1625921379.0,32.000000
-7,-4,63,1625921379.0,32.000000
-8,-4,63,1625921379.0,32.000000
-8,-4,63,1625921379.0,32.000000
-7,-5,63,1625921379.0,32.000000
-7,-5,63,1625921379.0,32.000000
-7,-4,63,1625921379.0,32.000000
-7,-5,63,1625921379.0,32.000000
-7,-5,63,1625921379.0,32.000000
-7,-5,63,1625921379.0,32.000000
-7,-4,63,1625921379.0,32.000000
-7,-4,63,1625921379.0,32.000000
-8,-5,63,1625921379.0,32.000000
-8,-5,63,1625921379.0,32.000000
-6,-5,63,1625921379.0,32.000000
-6,-4,63,1625921379.0,32.000000
-7,-4,63,1625921379.0,32.000000
-7,-5,63,1625921379.0,32.000000
-7,-5,63,1625921379.0,32.000000
-7,-5,63,1625921379.0,32.000000
-7,-4,63,1625921379.0,32.000000
-8,-4,63,1625921379.0,32.000000
-7,-5,63,1625921379.0,32.000000
-7,-5,63,1625921379.0,32.000000
-7,-5,63,1625921379.0,32.000000
-7,-4,63,1625921379.0,32.000000
-8,-5,63,1625921379.0,32.000000
-7,-5,63,1625921379.0,32.000000
-7,-5,63,1625921379.0,32.000000
-7,-4,63,1625921379.0,32.000000
-7,-4,63,1625921379.0,32.000000
-7,-5,63,1625921379.0,32.000000
-7,-5,63,1625921379.0,32.000000
-7,-4,63,1625921379.0,32.000000
-7,-4,63,1625921379.0,32.000000
-7,-4,63,1625921379.0,32.000000
-7,-5,63,1625921379.0,32.000000
-7,-5,63,1625921379.0,32.000000
-6,-5,63,1625921379.0,32.000000
-7,-4,63,1625921379.0,32.000000
-7,-5,63,1625921379.0,32.000000
-8,-5,63,1625921379.0,32.000000
-7,-5,63,1625921379.0,32.000000
-7,-4,63,1625921379.0,32.000000
-7,-4,63,1625921379.0,32.000000
-8,-5,63,1625921379.0,32.000000
-7,-5,63,1625921379.0,32.000000
-7,-5,63,1625921379.0,32.000000
-6,-5,63,1625921379.0,32.000000
-7,-4,63,1625921379.0,32.000000
-7,-5,63,1625921379.0,32.000000
-7,-5,63,1625921379.0,32.000000
-7,-4,63,1625921379.0,32.000000
-7,-5,63,1625921379.0,32.000000
-7,-4,63,1625921379.0,32.000000
-7,-4,63,1625921379.0,32.000000
-7,-5,63,1625921379.0,32.000000
-7,-4,63,1625921379.0,32.000000
-6,-4,63,1625921379.0,32.000000
-7,-4,63,1625921379.0,32.000000
-8,-5,63,1625921379.0,32.000000
-7,-5,63,1625921379.0,32.000000
-6,-4,63,1625921379.0,32.000000
-7,-4,63,1625921379.0,32.000000
-7,-5,63,1625921379.0,32.000000
-8,-5,63,1625921379.0,32.000000
-7,-4,63,1625921379.0,32.000000
-7,-4,63,1625921379.0,32.000000
-7,-5,63,1625921379.0,32.000000
-7,-4,63,1625921379.0,32.000000
-8,-4,63,1625921379.0,32.000000
-7,-5,63,1625921379.0,32.000000
-7,-4,63,1625921379.0,32.000000
-7,-4,63,1625921379.0,32.000000
-7,-5,63,1625921379.0,32.000000
-7,-4,63,1625921379.0,32.000000
-6,-5,63,1625921379.0,32.000000
-7,-4,63,1625921379.0,32.000000
-8,-5,63,1625921379.0,32.000000
-8,-5,63,1625921379.0,32.000000
-7,-4,63,1625921379.0,32.000000
-7,-4,63,1625921379.0,32.000000
-8,-5,63,1625921379.0,32.000000
-8,-5,63,1625921379.0,32.000000
-7,-5,63,1625921379.0,32.000000
-7,-4,63,1625921379.0,32.000000
-7,-4,63,1625921379.0,32.000000
-8,-5,63,1625921379.0,32.000000
-8,-5,63,1625921379.0,32.000000
-7,-4,63,1625921379.0,32.000000
-7,-5,63,1625921379.0,32.000000
-8,-4,63,1625921379.0,32.000000
-8,-5,63,1625921379.0,32.000000
-7,-4,63,1625921379.0,32.000000
-7,-5,63,1625921379.0,32.000000
-7,-5,63,1625921379.0,32.000000
-7,-4,63,1625921379.0,32.000000
-8,-5,63,1625921379.0,32.000000
-8,-5,63,1625921379.0,32.000000
-7,-5,63,1625921379.0,32.000000
-7,-4,63,1625921379.0,32.000000
-7,-4,63,1625921379.0,32.000000
-8,-5,63,1625921379.0,32.000000
-8,-5,63,1625921379.0,32.000000
-7,-5,63,1625921379.0,32.000000
-7,-4,63,1625921379.0,32.000000
-7,-4,63,1625921379.0,32.000000
-7,-4,63,1625921379.0,32.000000
-8,-5,63,1625921379.0,32.000000
-7,-5,63,1625921379.0,32.000000
-6,-4,63,1625921379.0,32.000000
-7,-5,63,1625921379.0,32.000000
-8,-5,63,1625921379.0,32.000000
-7,-5,63,1625921379.0,32.000000
-7,-4,63,1625921379.0,32.000000
-7,-4,63,1625921379.0,32.000000
-8,-5,63,1625921379.0,32.000000
-7,-5,63,1625921379.0,32.000000
-7,-5,63,1625921379.0,32.000000
-7,-5,63,1625921379.0,32.000000
-7,-4,63,1625921379.0,32.000000
-8,-5,63,1625921379.0,32.000000
-7,-5,63,1625921379.0,32.000000
-6,-5,63,1625921379.0,32.000000
-7,-4,63,1625921379.0,32.000000
-7,-5,63,1625921379.0,32.000000
-7,-4,63,1625921379.0,32.000000
-7,-5,63,1625921379.0,32.000000
-6,-5,63,1625921379.0,32.000000
-7,-5,63,1625921379.0,32.000000
-7,-5,63,1625921379.0,32.000000
-7,-5,63,1625921379.0,32.000000
-7,-5,63,1625921379.0,32.000000
-6,-4,63,1625921379.0,32.000000
-7,-4,63,1625921379.0,32.000000
-7,-5,63,1625921379.0,32.000000
-7,-5,63,1625921379.0,32.000000
-6,-4,63,1625921379.0,32.000000
-7,-4,63,1625921379.0,32.000000
-7,-5,63,1625921379.0,32.000000
-7,-5,63,1625921379.0,32.000000
-6,-5,63,1625921379.0,32.000000
-7,-5,63,1625921379.0,32.000000
-7,-5,63,1625921379.0,32.000000
-7,-5,63,1625921379.0,32.000000
-7,-5,63,1625921379.0,32.000000
-7,-5,63,1625921379.0,32.000000
-6,-5,63,1625921379.0,32.000000
-7,-5,63,1625921379.0,32.000000
-7,-5,63,1625921379.0,32.000000
-6,-5,63,1625921379.0,32.000000
-6,-5,63,1625921379.0,32.000000
-7,-4,63,1625921379.0,32.000000
-7,-5,63,1625921379.0,32.000000
-7,-5,63,1625921379.0,32.000000
-6,-5,63,1625921379.0,32.000000
-7,-4,63,1625921379.0,32.000000
-8,-5,63,1625921379.0,32.000000
-7,-5,63,1625921379.0,32.000000
-6,-5,63,1625921379.0,32.000000
-6,-4,63,1625921379.0,32.000000
-8,-5,63,1625921379.0,32.000000
-7,-5,63,1625921379.0,32.000000
-6,-5,63,1625921379.0,32.000000
-6,-4,63,1625921379.0,32.000000
-6,-5,63,1625921379.0,32.000000
-7,-5,63,1625921379.0,32.000000
-7,-5,63,1625921379.0,32.000000
-6,-5,63,1625921379.0,32.000000
-6,-4,63,1625921379.0,32.000000
-8,-5,63,1625921379.0,32.000000
-7,-5,63,1625921379.0,32.000000
-6,-5,63,1625921379.0,32.000000
-6,-5,63,1625921379.0,32.000000
-6,-5,63,1625921379.0,32.000000
-7,-5,63,1625921379.0,32.000000
-7,-5,63,1625921379.0,32.000000
-6,-5,63,1625921379.0,32.000000
-6,-5,63,1625921379.0,32.000000
-7,-5,63,1625921379.0,32.000000
-7,-5,63,1625921379.0,32.000000
-6,-5,63,1625921379.0,32.000000
-6,-4,63,1625921379.0,32.000000
-5,-5,62,1625921379.0,32.000000
-8,-4,64,1625921379.0,32.000000
-7,-5,62,1625921379.0,32.000000
-6,-5,63,1625921379.0,32.000000
-6,-4,63,1625921379.0,32.000000
-7,-5,64,1625921379.0,32.000000
-7,-5,63,1625921379.0,32.000000
-6,-5,63,1625921379.0,32.000000
-6,-5,63,1625921379.0,32.000000
-7,-5,63,1625921379.0,32.000000
-7,-5,63,1625921379.0,32.000000
-7,-5,63,1625921379.0,32.000000
-8,-4,63,1625921379.0,32.000000
-7,-5,63,1625921379.0,32.000000
-5,-5,63,1625921379.0,32.000000
-7,-4,64,1625921379.0,32.000000
-7,-5,63,1625921379.0,32.000000
-5,-5,62,1625921379.0,32.000000
-3,-5,63,1625921379.0,32.000000
-6,-4,63,1625921379.0,32.000000
-7,-4,64,1625921379.0,32.000000
-6,-5,63,1625921379.0,32.000000
-5,-5,63,1625921379.0,32.000000
-5,-4,63,1625921379.0,32.000000
-5,-5,63,1625921379.0,32.000000
-6,-5,63,1625921379.0,32.000000
-6,-5,63,1625921379.0,32.000000
-6,-5,63,1625921379.0,32.000000
-6,-5,63,1625921379.0,32.000000
-6,-5,63,1625921379.0,32.000000
-5,-5,63,1625921379.0,32.000000
-5,-5,63,1625921379.0,32.000000
-6,-5,63,1625921379.0,32.000000
-5,-5,63,1625921379.0,32.000000
-5,-5,63,1625921379.0,32.000000
-6,-5,63,1625921379.0,32.000000
-6,-5,63,1625921379.0,32.000000
-6,-5,63,1625921379.0,32.000000
-6,-5,63,1625921379.0,32.000000
-6,-5,63,1625921379.0,32.000000
-6,-5,63,1625921379.0,32.000000
-6,-5,63,1625921379.0,32.000000
-6,-5,63,1625921379.0,32.000000
-5,-5,63,1625921379.0,32.000000
-6,-5,63,1625921379.0,32.000000
-6,-5,63,1625921379.0,32.000000
-6,-5,63,1625921379.0,32.000000
-5,-5,63,1625921379.0,32.000000
-6,-5,63,1625921379.0,32.000000
-6,-5,63,1625921379.0,32.000000
-7,-5,63,1625921379.0,32.000000
-6,-5,63,1625921379.0,32.000000
-5,-5,63,1625921379.0,32.000000
-6,-4,64,1625921379.0,32.000000
-6,-5,63,1625921379.0,32.000000
-6,-5,63,1625921379.0,32.000000
-5,-4,63,1625921379.0,32.000000
-5,-5,63,1625921379.0,32.000000
-6,-5,63,1625921379.0,32.000000
-6,-5,63,1625921379.0,32.000000
-5,-5,63,1625921379.0,32.000000
-5,-5,63,1625921379.0,32.000000
-6,-5,63,1625921379.0,32.000000
-7,-5,63,1625921379.0,32.000000
-7,-5,63,1625921379.0,32.000000
-5,-5,63,1625921379.0,32.000000
-5,-5,63,1625921379.0,32.000000
-6,-4,63,1625921379.0,32.000000
-7,-5,63,1625921379.0,32.000000
-6,-5,63,1625921379.0,32.000000
-6,-5,63,1625921379.0,32.000000
-5,-5,63,1625921379.0,32.000000
-6,-5,63,1625921379.0,32.000000
-7,-5,63,1625921379.0,32.000000
-6,-5,63,1625921379.0,32.000000
-6,-5,63,1625921379.0,32.000000
-6,-5,63,1625921379.0,32.000000
-6,-5,63,1625921379.0,32.000000
-6,-5,63,1625921379.0,32.000000
-6,-5,63,1625921379.0,32.000000
-7,-4,63,1625921379.0,32.000000
-8,-5,63,1625921379.0,32.000000
-7,-5,62,1625921379.0,32.000000
-6,-5,64,1625921379.0,32.000000
-7,-5,63,1625921379.0,32.000000
-8,-5,63,1625921379.0,32.000000
-9,-4,62,1625921379.0,32.000000
-7,-5,63,1625921379.0,32.000000
-6,-5,63,1625921379.0,32.000000
-6,-4,63,1625921379.0,32.000000
-7,-4,63,1625921379.0,32.000000
-7,-5,63,1625921379.0,32.000000
-8,-5,63,1625921379.0,32.000000
-8,-5,63,1625921379.0,32.000000
-7,-5,63,1625921379.0,32.000000
-7,-4,63,1625921379.0,32.000000
-7,-5,63,1625921379.0,32.000000
-8,-5,63,1625921379.0,32.000000
-8,-5,62,1625921379.0,32.000000
-8,-4,63,1625921379.0,32.000000
-6,-5,63,1625921379.0,32.000000
-6,-5,63,1625921379.0,32.000000
-6,-5,63,1625921379.0,32.000000
-6,-5,63,1625921379.0,32.000000
-6,-5,63,1625921379.0,32.000000
-7,-4,63,1625921379.0,32.000000
-7,-5,63,1625921379.0,32.000000
-7,-5,63,1625921379.0,32.000000
-6,-5,63,1625921379.0,32.000000
-7,-5,63,1625921379.0,32.000000
-7,-5,63,1625921379.0,32.000000
-7,-5,63,1625921379.0,32.000000
-7,-5,63,1625921379.0,32.000000
-8,-5,63,1625921379.0,32.000000
-7,-4,63,1625921379.0,32.000000
-7,-4,63,1625921379.0,32.000000
-7,-5,63,1625921379.0,32.000000
-7,-5,63,1625921379.0,32.000000
-7,-5,63,1625921379.0,32.000000
-8,-5,63,1625921379.0,32.000000
-7,-5,63,1625921379.0,32.000000
-6,-5,63,1625921379.0,32.000000
-6,-5,63,1625921379.0,32.000000
-8,-4,63,1625921379.0,32.000000
-9,-5,63,1625921379.0,32.000000
-6,-5,63,1625921379.0,32.000000
-5,-5,63,1625921379.0,32.000000
-7,-4,63,1625921379.0,32.000000
-7,-4,63,1625921379.0,32.000000
-7,-5,63,1625921379.0,32.000000
-7,-5,63,1625921379.0,32.000000
-7,-5,63,1625921379.0,32.000000
-7,-4,63,1625921379.0,32.000000
-7,-5,63,1625921379.0,32.000000
-7,-5,63,1625921379.0,32.000000
-7,-5,63,1625921379.0,32.000000
-7,-5,63,1625921379.0,32.000000
-7,-4,63,1625921379.0,32.000000
-7,-5,63,1625921379.0,32.000000
-7,-5,63,1625921379.0,32.000000
-7,-5,63,1625921379.0,32.000000
-7,-5,63,1625921379.0,32.000000
-7,-5,63,1625921379.0,32.000000
-7,-4,63,1625921379.0,32.000000
-6,-5,63,1625921379.0,32.000000
-7,-5,63,1625921379.0,32.000000
-7,-5,63,1625921379.0,32.000000
-7,-5,63,1625921379.0,32.000000
-8,-5,63,1625921379.0,32.000000
-8,-5,63,1625921379.0,32.000000
-6,-4,63,1625921379.0,32.000000
-7,-4,64,1625921379.0,32.000000
-8,-5,63,1625921379.0,32.000000
-7,-5,63,1625921379.0,32.000000
-6,-4,63,1625921379.0,32.000000
-7,-4,63,1625921379.0,32.000000
-7,-5,63,1625921379.0,32.000000
-7,-5,63,1625921379.0,32.000000
-7,-5,63,1625921379.0,32.000000
-7,-5,63,1625921379.0,32.000000
-7,-5,63,1625921379.0,32.000000
-7,-5,63,1625921379.0,32.000000
-7,-5,63,1625921379.0,32.000000
-7,-5,63,1625921379.0,32.000000
-7,-4,63,1625921379.0,32.000000
-7,-5,63,1625921379.0,32.000000
-7,-5,63,1625921379.0,32.000000
-7,-5,63,1625921379.0,32.000000
-7,-5,63,1625921379.0,32.000000
-7,-4,63,1625921379.0,32.000000
-7,-5,63,1625921379.0,32.000000
-7,-5,63,1625921379.0,32.000000
-8,-4,63,1625921379.0,32.000000
-7,-5,63,1625921379.0,32.000000
-7,-4,63,1625921379.0,32.000000
-7,-5,63,1625921379.0,32.000000
-7,-5,63,1625921379.0,32.000000
-8,-5,63,1625921379.0,32.000000
-8,-5,63,1625921379.0,32.000000
-8,-5,63,1625921379.0,32.000000
-7,-5,63,1625921379.0,32.000000
-7,-5,63,1625921379.0,32.000000
-7,-5,63,1625921379.0,32.000000
-7,-5,63,1625921379.0,32.000000
-7,-5,63,1625921379.0,32.000000
-6,-4,63,1625921379.0,32.000000
-7,-4,63,1625921379.0,32.000000
-8,-5,63,1625921379.0,32.000000
-9,-4,63,1625921379.0,32.000000
-7,-5,62,1625921379.0,32.000000
-7,-5,63,1625921379.0,32.000000
-8,-4,63,1625921379.0,32.000000
-8,-5,63,1625921379.0,32.000000
-6,-5,63,1625921379.0,32.000000
-7,-5,63,1625921379.0,32.000000
-7,-5,63,1625921379.0,32.000000
-7,-4,63,1625921379.0,32.000000
-7,-5,63,1625921379.0,32.000000
-8,-5,63,1625921379.0,32.000000
-8,-5,63,1625921379.0,32.000000
-7,-5,63,1625921379.0,32.000000
-7,-5,63,1625921379.0,32.000000
-7,-4,63,1625921379.0,32.000000
-8,-5,63,1625921379.0,32.000000
-8,-5,63,1625921379.0,32.000000
-8,-5,63,1625921379.0,32.000000
-7,-5,63,1625921379.0,32.000000
-7,-5,63,1625921379.0,32.000000
-8,-4,63,1625921379.0,32.000000
-8,-5,63,1625921379.0,32.000000
-5,-5,63,1625921379.0,32.000000
-5,-4,63,1625921379.0,32.000000
-7,-5,63,1625921379.0,32.000000
-8,-5,63,1625921379.0,32.000000
-6,-5,63,1625921379.0,32.000000
-6,-4,63,1625921379.0,32.000000
-7,-4,63,1625921379.0,32.000000
-7,-5,63,1625921379.0,32.000000
-7,-5,63,1625921379.0,32.000000
-6,-5,63,1625921379.0,32.000000
-6,-5,63,1625921379.0,32.000000
-7,-5,63,1625921379.0,32.000000
-7,-5,63,1625921379.0,32.000000
-7,-5,63,1625921379.0,32.000000
-6,-5,63,1625921379.0,32.000000
-6,-4,63,1625921379.0,32.000000
-7,-5,63,1625921379.0,32.000000
-8,-5,64,1625921379.0,32.000000
-7,-5,63,1625921379.0,32.000000
-5,-5,62,1625921379.0,32.000000
-5,-4,63,1625921379.0,32.000000
-7,-5,63,1625921379.0,32.000000
-8,-5,63,1625921379.0,32.000000
-5,-5,63,1625921379.0,32.000000
-6,-4,63,1625921379.0,32.000000
-7,-5,63,1625921379.0,32.000000
-7,-5,63,1625921379.0,32.000000
-6,-5,63,1625921379.0,32.000000
-6,-5,63,1625921379.0,32.000000
-8,-5,63,1625921379.0,32.000000
-7,-5,63,1625921379.0,32.000000
-5,-5,63,1625921379.0,32.000000
-5,-5,63,1625921379.0,32.000000
-7,-5,63,1625921379.0,32.000000
-7,-5,63,1625921379.0,32.000000
-6,-5,63,1625921379.0,32.000000
-6,-5,63,1625921379.0,32.000000
-6,-5,63,1625921379.0,32.000000
-7,-5,63,1625921379.0,32.000000
-7,-5,63,1625921379.0,32.000000
-6,-5,63,1625921379.0,32.000000
-6,-4,63,1625921379.0,32.000000
-7,-5,63,1625921379.0,32.000000
-7,-5,63,1625921379.0,32.000000
-6,-5,63,1625921379.0,32.000000
-6,-5,63,1625921379.0,32.000000
-6,-5,63,1625921379.0,32.000000
-7,-5,63,1625921379.0,32.000000
-7,-5,63,1625921379.0,32.000000
-7,-5,63,1625921379.0,32.000000
-6,-5,63,1625921379.0,32.000000
-7,-4,63,1625921379.0,32.000000
-6,-5,63,1625921379.0,32.000000
-6,-5,63,1625921379.0,32.000000
-6,-5,63,1625921379.0,32.000000
-7,-4,63,1625921379.0,32.000000
-7,-5,63,1625921379.0,32.000000
-7,-5,63,1625921379.0,32.000000
-6,-5,62,1625921379.0,32.000000
-6,-5,63,1625921379.0,32.000000
-7,-5,63,1625921379.0,32.000000
-7,-5,63,1625921379.0,32.000000
-7,-5,63,1625921379.0,32.000000
-6,-5,63,1625921379.0,32.000000
-7,-5,63,1625921379.0,32.000000
-7,-5,63,1625921379.0,32.000000
-7,-5,63,1625921379.0,32.000000
-6,-5,63,1625921379.0,32.000000
-6,-4,63,1625921379.0,32.000000
-7,-5,63,1625921379.0,32.000000
-8,-5,63,1625921379.0,32.000000
-7,-5,63,1625921379.0,32.000000
-6,-5,63,1625921379.0,32.000000
-6,-5,63,1625921379.0,32.000000
-7,-4,63,1625921379.0,32.000000
-7,-5,63,1625921379.0,32.000000
-7,-5,63,1625921379.0,32.000000
-7,-5,63,1625921379.0,32.000000
-7,-4,63,1625921379.0,32.000000
-7,-5,63,1625921379.0,32.000000
-7,-5,63,1625921379.0,32.000000
-6,-5,63,1625921379.0,32.000000
-7,-5,63,1625921379.0,32.000000
-8,-5,63,1625921379.0,32.000000
-8,-5,63,1625921379.0,32.000000
-7,-5,63,1625921379.0,32.000000
-6,-5,63,1625921379.0,32.000000
-7,-5,63,1625921379.0,32.000000
-8,-5,63,1625921379.0,32.000000
-7,-5,63,1625921379.0,32.000000
-7,-5,63,1625921379.0,32.000000
-7,-5,63,1625921379.0,32.000000
-7,-5,63,1625921379.0,32.000000
-8,-5,63,1625921379.0,32.000000
-7,-5,63,1625921379.0,32.000000
-6,-5,63,1625921379.0,32.000000
-6,-4,63,1625921379.0,32.000000
-7,-4,63,1625921379.0,32.000000
-7,-5,63,1625921379.0,32.000000
-6,-5,63,1625921379.0,32.000000
-6,-4,63,1625921379.0,32.000000
-7,-4,63,1625921379.0,32.000000
-7,-5,63,1625921379.0,32.000000
-7,-5,63,1625921379.0,32.000000
-7,-4,63,1625921379.0,32.000000
-6,-5,63,1625921379.0,32.000000
-7,-5,63,1625921379.0,32.000000
-7,-5,63,1625921379.0,32.000000
-6,-5,63,1625921379.0,32.000000
-6,-5,63,1625921379.0,32.000000
-7,-5,63,1625921379.0,32.000000
-7,-5,63,1625921379.0,32.000000
-7,-5,63,1625921379.0,32.000000
-7,-5,63,1625921379.0,32.000000
-7,-5,63,1625921379.0,32.000000
-7,-5,63,1625921379.0,32.000000
-7,-4,63,1625921379.0,32.000000
-7,-5,63,1625921379.0,32.000000
-7,-5,63,1625921379.0,32.000000
-6,-5,63,1625921379.0,32.000000
-6,-4,63,1625921379.0,32.000000
-7,-5,63,1625921379.0,32.000000
-7,-5,63,1625921379.0,32.000000
-7,-5,63,1625921379.0,32.000000
-6,-5,63,1625921379.0,32.000000
-6,-4,63,1625921379.0,32.000000
-7,-5,63,1625921379.0,32.000000
-7,-5,63,1625921379.0,32.000000
-6,-5,63,1625921379.0,32.000000
-6,-4,63,1625921379.0,32.000000
-6,-4,63,1625921379.0,32.000000
-8,-5,63,1625921379.0,32.000000
-7,-5,63,1625921379.0,32.000000
-5,-5,63,1625921379.0,32.000000
-5,-4,63,1625921379.0,32.000000
-8,-5,63,1625921379.0,32.000000
-8,-5,63,1625921379.0,32.000000
-7,-5,63,1625921379.0,32.000000
-6,-5,63,1625921379.0,32.000000
-7,-5,63,1625921379.0,32.000000
-7,-5,63,1625921379.0,32.000000
-6,-5,63,1625921379.0,32.000000
-6,-5,63,1625921379.0,32.000000
-7,-4,63,1625921379.0,32.000000
-8,-4,63,1625921379.0,32.000000
-7,-5,63,1625921379.0,32.000000
-6,-5,63,1625921379.0,32.000000
-6,-5,63,1625921379.0,32.000000
-7,-5,63,1625921379.0,32.000000
-7,-5,63,1625921379.0,32.000000
-7,-5,63,1625921379.0,32.000000
-6,-5,63,1625921379.0,32.000000
-6,-5,63,1625921379.0,32.000000
-7,-5,63,1625921379.0,32.000000
-7,-5,63,1625921379.0,32.000000
-6,-5,63,1625921379.0,32.000000
-6,-5,63,1625921379.0,32.000000
-6,-5,63,1625921379.0,32.000000
-7,-5,63,1625921379.0,32.000000
-6,-5,63,1625921379.0,32.000000
-6,-5,63,1625921379.0,32.000000
-6,-4,63,1625921379.0,32.000000
-6,-5,63,1625921379.0,32.000000
-7,-5,63,1625921379.0,32.000000
-7,-5,63,1625921379.0,32.000000
-6,-5,63,1625921379.0,32.000000
-6,-5,63,1625921379.0,32.000000
-7,-5,63,1625921379.0,32.000000
-7,-5,63,1625921379.0,32.000000
-6,-5,63,1625921379.0,32.000000
-6,-5,63,1625921379.0,32.000000
-7,-5,63,1625921379.0,32.000000
-7,-5,63,1625921379.0,32.000000
-7,-5,63,1625921379.0,32.000000
-6,-5,63,1625921379.0,32.000000
-6,-5,63,1625921379.0,32.000000
-6,-5,63,1625921379.0,32.000000
-7,-5,63,1625921379.0,32.000000
-7,-5,63,1625921379.0,32.000000
-6,-4,63,1625921379.0,32.000000
-6,-4,63,1625921379.0,32.000000
-7,-5,63,1625921379.0,32.000000
-8,-5,63,1625921379.0,32.000000
-7,-5,63,1625921379.0,32.000000
-6,-5,63,1625921379.0,32.000000
-7,-5,63,1625921379.0,32.000000
-7,-5,63,1625921379.0,32.000000
-7,-5,63,1625921379.0,32.000000
-7,-5,63,1625921379.0,32.000000
-6,-5,63,1625921379.0,32.000000
-7,-5,63,1625921379.0,32.000000
-7,-5,63,1625921379.0,32.000000
-7,-5,63,1625921379.0,32.000000
-6,-5,63,1625921379.0,32.000000
-6,-5,63,1625921379.0,32.000000
-7,-4,63,1625921379.0,32.000000
-7,-5,63,1625921379.0,32.000000
-6,-5,63,1625921379.0,32.000000
-6,-4,63,1625921379.0,32.000000
-7,-5,63,1625921379.0,32.000000
-8,-5,63,1625921379.0,32.000000
-7,-5,63,1625921379.0,32.000000
-6,-4,63,1625921379.0,32.000000
-6,-5,63,1625921379.0,32.000000
-7,-5,63,1625921379.0,32.000000
-7,-5,63,1625921379.0,32.000000
-6,-5,63,1625921379.0,32.000000
-7,-5,63,1625921379.0,32.000000
-7,-5,63,1625921379.0,32.000000
-7,-5,63,1625921379.0,32.000000
-7,-5,63,1625921379.0,32.000000
-7,-5,63,1625921379.0,32.000000
-7,-5,63,1625921379.0,32.000000
-7,-5,63,1625921379.0,32.000000
-8,-5,64,1625921379.0,32.000000
-7,-5,63,1625921379.0,32.000000
-6,-5,63,1625921379.0,32.000000
-6,-5,63,1625921379.0,32.000000
-7,-5,63,1625921379.0,32.000000
-8,-5,63,1625921379.0,32.000000
-7,-5,63,1625921379.0,32.000000
-6,-5,63,1625921379.0,32.000000
-6,-5,63,1625921379.0,32.000000
-7,-5,63,1625921379.0,32.000000
-8,-5,63,1625921379.0,32.000000
-6,-5,63,1625921379.0,32.000000
-6,-5,63,1625921379.0,32.000000
-7,-4,63,1625921379.0,32.000000
-7,-5,63,1625921379.0,32.000000
-7,-5,63,1625921379.0,32.000000
-6,-5,63,1625921379.0,32.000000
-6,-4,63,1625921379.0,32.000000
-6,-5,63,1625921379.0,32.000000
-7,-5,63,1625921379.0,32.000000
-7,-5,63,1625921379.0,32.000000
-6,-5,63,1625921379.0,32.000000
-6,-4,63,1625921379.0,32.000000
-7,-5,63,1625921379.0,32.000000
-7,-5,63,1625921379.0,32.000000
-6,-5,63,1625921379.0,32.000000
-6,-5,63,1625921379.0,32.000000
-6,-5,63,1625921379.0,32.000000
-8,-3,63,1625921379.0,32.000000
-9,-4,64,1625921379.0,32.000000
3,-1,73,1625921379.0,32.000000
-5,-2,73,1625921379.0,32.000000
-6,-7,68,1625921379.0,32.000000
-8,-7,74,1625921379.0,32.000000
-14,-11,60,1625921379.0,32.000000
-16,-11,52,1625921379.0,32.000000
-16,-15,42,1625921379.0,32.000000
-19,-17,43,1625921379.0,32.000000
-25,-16,48,1625921379.0,32.000000
-25,-16,51,1625921379.0,32.000000
-19,-16,54,1625921379.0,32.000000
-24,-13,57,1625921379.0,32.000000
-23,-11,64,1625921379.0,32.000000
-18,-9,66,1625921379.0,32.000000
-10,-9,71,1625921379.0,32.000000
-13,-8,66,1625921379.0,32.000000
-18,-8,65,1625921379.0,32.000000
-14,-10,65,1625921379.0,32.000000
-15,-13,58,1625921379.0,32.000000
-18,-13,56,1625921379.0,32.000000
-18,-14,56,1625921379.0,32.000000
-17,-14,55,1625921379.0,32.000000
-18,-12,58,1625921379.0,32.000000
-17,-12,60,1625921379.0,32.000000
-14,-13,62,1625921379.0,32.000000
-15,-11,62,1625921379.0,32.000000
-15,-11,62,1625921379.0,32.000000
-16,-11,63,1625921379.0,32.000000
-14,-12,63,1625921379.0,32.000000
-16,-11,60,1625921379.0,32.000000
-18,-11,59,1625921379.0,32.000000
-16,-13,62,1625921379.0,32.000000
-11,-13,62,1625921379.0,32.000000
-15,-13,59,1625921379.0,32.000000
-16,-13,57,1625921379.0,32.000000
-15,-14,57,1625921379.0,32.000000
-16,-14,58,1625921379.0,32.000000
-17,-12,57,1625921379.0,32.000000
-14,-12,58,1625921379.0,32.000000
-14,-12,61,1625921379.0,32.000000
-13,-12,62,1625921379.0,32.000000
-12,-10,63,1625921379.0,32.000000
-14,-9,64,1625921379.0,32.000000
-16,-9,64,1625921379.0,32.000000
-15,-8,64,1625921379.0,32.000000
-15,-9,62,1625921379.0,32.000000
-14,-10,61,1625921379.0,32.000000
-15,-11,58,1625921379.0,32.000000
-14,-11,59,1625921379.0,32.000000
-14,-11,58,1625921379.0,32.000000
-13,-10,62,1625921379.0,32.000000
-13,-9,63,1625921379.0,32.000000
-14,-8,61,1625921379.0,32.000000
-15,-8,59,1625921379.0,32.000000
-14,-9,63,1625921379.0,32.000000
-13,-9,63,1625921379.0,32.000000
-14,-8,61,1625921379.0,32.000000
-13,-7,64,1625921379.0,32.000000
-13,-6,62,1625921379.0,32.000000
-15,-7,63,1625921379.0,32.000000
-13,-7,62,1625921379.0,32.000000
-14,-7,61,1625921379.0,32.000000
-14,-7,60,1625921379.0,32.000000
-13,-8,59,1625921379.0,32.000000
-15,-6,62,1625921379.0,32.000000
-14,-6,64,1625921379.0,32.000000
-14,-5,63,1625921379.0,32.000000
-14,-5,62,1625921379.0,32.000000
-13,-5,61,1625921379.0,32.000000
-13,-5,62,1625921379.0,32.000000
-13,-6,62,1625921379.0,32.000000
-11,-7,63,1625921379.0,32.000000
-12,-6,62,1625921379.0,32.000000
-12,-5,61,1625921379.0,32.000000
-13,-5,61,1625921379.0,32.000000
-12,-5,62,1625921379.0,32.000000
-13,-6,62,1625921379.0,32.000000
-12,-6,61,1625921379.0,32.000000
-13,-6,62,1625921379.0,32.000000
-12,-6,62,1625921379.0,32.000000
-12,-6,62,1625921379.0,32.000000
-13,-5,62,1625921379.0,32.000000
-12,-6,62,1625921379.0,32.000000
-13,-6,62,1625921379.0,32.000000
-13,-6,62,1625921379.0,32.000000
-13,-6,62,1625921379.0,32.000000
-13,-6,62,1625921379.0,32.000000
-12,-6,61,1625921379.0,32.000000
-13,-5,62,1625921379.0,32.000000
-13,-6,62,1625921379.0,32.000000
-12,-6,61,1625921379.0,32.000000
-12,-5,63,1625921379.0,32.000000
-12,-6,62,1625921379.0,32.000000
-12,-5,62,1625921379.0,32.000000
-13,-6,62,1625921379.0,32.000000
-12,-6,62,1625921379.0,32.000000
-12,-6,62,1625921379.0,32.000000
-12,-6,62,1625921379.0,32.000000
-12,-6,62,1625921379.0,32.000000
-12,-5,62,1625921379.0,32.000000
-12,-6,62,1625921379.0,32.000000
-13,-6,62,1625921379.0,32.000000
-12,-6,62,1625921379.0,32.000000
-12,-6,62,1625921379.0,32.000000
-12,-6,62,1625921379.0,32.000000
-12,-5,62,1625921379.0,32.000000
-12,-5,62,1625921379.0,32.000000
-13,-6,62,1625921379.0,32.000000
-12,-5,61,1625921379.0,32.000000
-12,-5,62,1625921379.0,32.000000
-12,-6,62,1625921379.0,32.000000
-12,-5,61,1625921379.0,32.000000
-12,-6,62,1625921379.0,32.000000
-12,-5,62,1625921379.0,32.000000
-12,-6,62,1625921379.0,32.000000
-12,-5,62,1625921379.0,32.000000
-12,-6,62,1625921379.0,32.000000
-12,-6,62,1625921379.0,32.000000
-12,-6,62,1625921379.0,32.000000
-12,-6,62,1625921379.0,32.000000
-12,-6,62,1625921379.0,32.000000
-12,-6,62,1625921379.0,32.000000
-12,-6,62,1625921379.0,32.000000
-12,-6,62,1625921379.0,32.000000
-12,-6,62,1625921379.0,32.000000
-12,-6,62,1625921379.0,32.000000
-12,-6,62,1625921379.0,32.000000
-12,-6,62,1625921379.0,32.000000
-12,-6,62,1625921379.0,32.000000
-12,-6,63,1625921379.0,32.000000
-12,-6,61,1625921379.0,32.000000
-12,-5,62,1625921379.0,32.000000
-12,-6,62,1625921379.0,32.000000
-12,-6,62,1625921379.0,32.000000
-12,-5,62,1625921379.0,32.000000
-12,-6,62,1625921379.0,32.000000
-12,-6,62,1625921379.0,32.000000
-12,-6,62,1625921379.0,32.000000
-12,-5,62,1625921379.0,32.000000
-12,-6,62,1625921379.0,32.000000
-12,-6,62,1625921379.0,32.000000
-12,-6,62,1625921379.0,32.000000
-12,-6,62,1625921379.0,32.000000
-12,-6,62,1625921379.0,32.000000
-12,-5,62,1625921379.0,32.000000
-12,-6,62,1625921379.0,32.000000
-12,-6,62,1625921379.0,32.000000
-12,-6,62,1625921379.0,32.000000
-12,-6,62,1625921379.0,32.000000
-11,-5,62,1625921379.0,32.000000
-12,-5,62,1625921379.0,32.000000
-12,-6,62,1625921379.0,32.000000
-12,-6,62,1625921379.0,32.000000
-12,-5,62,1625921379.0,32.000000
-12,-5,62,1625921379.0,32.000000
-12,-5,62,1625921379.0,32.000000
-13,-5,63,1625921379.0,32.000000
-12,-5,62,1625921379.0,32.000000
-12,-6,62,1625921379.0,32.000000
-12,-6,62,1625921379.0,32.000000
-13,-6,62,1625921379.0,32.000000
-13,-5,62,1625921379.0,32.000000
-12,-5,62,1625921379.0,32.000000
-12,-5,62,1625921379.0,32.000000
-13,-5,62,1625921379.0,32.000000
-13,-5,62,1625921379.0,32.000000
-12,-5,62,1625921379.0,32.000000
-12,-6,62,1625921379.0,32.000000
-13,-5,62,1625921379.0,32.000000
-12,-5,62,1625921379.0,32.000000
-12,-5,62,1625921379.0,32.000000
-13,-5,62,1625921379.0,32.000000
-13,-5,62,1625921379.0,32.000000
-13,-5,62,1625921379.0,32.000000
-13,-5,62,1625921379.0,32.000000
-13,-5,62,1625921379.0,32.000000
-13,-5,62,1625921379.0,32.000000
-13,-5,62,1625921379.0,32.000000
-12,-5,62,1625921379.0,32.000000
-13,-5,62,1625921379.0,32.000000
-13,-5,62,1625921379.0,32.000000
-13,-5,62,1625921379.0,32.000000
-12,-5,62,1625921379.0,32.000000
-12,-5,62,1625921379.0,32.000000
-13,-5,62,1625921379.0,32.000000
-13,-5,62,1625921379.0,32.000000
-13,-5,62,1625921379.0,32.000000
-12,-5,62,1625921379.0,32.000000
-13,-5,62,1625921379.0,32.000000
-13,-5,62,1625921379.0,32.000000
-13,-5,62,1625921379.0,32.000000
-12,-5,62,1625921379.0,32.000000
-12,-5,62,1625921379.0,32.000000
-13,-5,62,1625921379.0,32.000000
-13,-6,62,1625921379.0,32.000000
-13,-5,62,1625921379.0,32.000000
-12,-6,62,1625921379.0,32.000000
-12,-5,62,1625921379.0,32.000000
-13,-5,62,1625921379.0,32.000000
-13,-5,62,1625921379.0,32.000000
-13,-5,62,1625921379.0,32.000000
-13,-6,62,1625921379.0,32.000000
-13,-5,62,1625921379.0,32.000000
-13,-5,62,1625921379.0,32.000000
-13,-5,62,1625921379.0,32.000000
-12,-5,62,1625921379.0,32.000000
-13,-5,62,1625921379.0,32.000000
-12,-5,63,1625921379.0,32.000000
-13,-5,62,1625921379.0,32.000000
-12,-5,62,1625921379.0,32.000000
-12,-5,62,1625921379.0,32.000000
-12,-5,62,1625921379.0,32.000000
-12,-5,62,1625921379.0,32.000000
-13,-5,62,1625921379.0,32.000000
-12,-5,62,1625921379.0,32.000000
-12,-6,62,1625921379.0,32.000000
-12,-5,62,1625921379.0,32.000000
-12,-5,62,1625921379.0,32.000000
-12,-5,62,1625921379.0,32.000000
-12,-5,62,1625921379.0,32.000000
-12,-5,62,1625921379.0,32.000000
-12,-5,62,1625921379.0,32.000000
-12,-5,61,1625921379.0,32.000000
-12,-5,62,1625921379.0,32.000000
-12,-6,62,1625921379.0,32.000000
-12,-6,62,1625921379.0,32.000000
-12,-5,62,1625921379.0,32.000000
-13,-5,62,1625921379.0,32.000000
-13,-5,62,1625921379.0,32.000000
-13,-5,62,1625921379.0,32.000000
-12,-5,62,1625921379.0,32.000000
-12,-6,63,1625921379.0,32.000000
-12,-5,62,1625921379.0,32.000000
-12,-5,62,1625921379.0,32.000000
-12,-5,62,1625921379.0,32.000000
-12,-5,62,1625921379.0,32.000000
-12,-6,62,1625921379.0,32.000000
-12,-5,62,1625921379.0,32.000000
-12,-5,62,1625921379.0,32.000000
-12,-5,62,1625921379.0,32.000000
-13,-5,62,1625921379.0,32.000000
-13,-5,62,1625921379.0,32.000000
-13,-5,62,1625921379.0,32.000000
-12,-5,62,1625921379.0,32.000000
-12,-5,62,1625921379.0,32.000000
-12,-5,62,1625921379.0,32.000000
-12,-5,62,1625921379.0,32.000000
-12,-6,62,1625921379.0,32.000000
-11,-6,62,1625921379.0,32.000000
-12,-6,62,1625921379.0,32.000000
-11,-5,62,1625921379.0,32.000000
-11,-6,61,1625921379.0,32.000000
-11,-6,62,1625921379.0,32.000000
-12,-6,62,1625921379.0,32.000000
-14,-5,63,1625921379.0,32.000000
-14,-5,63,1625921379.0,32.000000
-13,-5,62,1625921379.0,32.000000
-13,-5,62,1625921379.0,32.000000
-12,-6,62,1625921379.0,32.000000
-12,-6,62,1625921379.0,32.000000
-12,-5,62,1625921379.0,32.000000
-11,-5,62,1625921379.0,32.000000
-11,-6,62,1625921379.0,32.000000
-11,-6,62,1625921379.0,32.000000
-12,-5,62,1625921379.0,32.000000
-12,-5,62,1625921379.0,32.000000
-13,-5,62,1625921379.0,32.000000
-14,-5,62,1625921379.0,32.000000
-13,-5,62,1625921379.0,32.000000
-13,-6,61,1625921379.0,32.000000
-11,-5,62,1625921379.0,32.000000
-11,-6,62,1625921379.0,32.000000
-12,-5,62,1625921379.0,32.000000
-12,-5,62,1625921379.0,32.000000
-12,-5,62,1625921379.0,32.000000
-12,-6,62,1625921379.0,32.000000
-12,-6,62,1625921379.0,32.000000
-12,-6,62,1625921379.0,32.000000
-12,-5,62,1625921379.0,32.000000
-13,-5,62,1625921379.0,32.000000
-14,-5,62,1625921379.0,32.000000
-13,-5,62,1625921379.0,32.000000
-12,-6,62,1625921379.0,32.000000
-12,-5,62,1625921379.0,32.000000
-12,-5,62,1625921379.0,32.000000
-13,-5,62,1625921379.0,32.000000
-13,-5,62,1625921379.0,32.000000
-13,-5,62,1625921379.0,32.000000
-13,-5,62,1625921379.0,32.000000
-13,-5,62,1625921379.0,32.000000
-13,-5,61,1625921379.0,32.000000
-13,-5,62,1625921379.0,32.000000
-12,-5,62,1625921379.0,32.000000
-13,-5,62,1625921379.0,32.000000
-13,-5,61,1625921379.0,32.000000
-12,-5,62,1625921379.0,32.000000
-13,-5,63,1625921379.0,32.000000
-14,-5,62,1625921379.0,32.000000
-14,-5,62,1625921379.0,32.000000
-13,-5,61,1625921379.0,32.000000
-13,-5,61,1625921379.0,32.000000
-14,-5,62,1625921379.0,32.000000
-14,-5,62,1625921379.0,32.000000
-15,-5,61,1625921379.0,32.000000
-15,-5,62,1625921379.0,32.000000
-15,-5,62,1625921379.0,32.000000
-14,-5,61,1625921379.0,32.000000
-14,-5,61,1625921379.0,32.000000
-13,-5,61,1625921379.0,32.000000
-13,-5,62,1625921379.0,32.000000
-14,-5,61,1625921379.0,32.000000
-14,-5,61,1625921379.0,32.000000
-14,-5,62,1625921379.0,32.000000
-14,-5,62,1625921379.0,32.000000
-14,-5,62,1625921379.0,32.000000
-14,-5,62,1625921379.0,32.000000
-13,-5,62,1625921379.0,32.000000
-13,-5,62,1625921379.0,32.000000
-13,-6,62,1625921379.0,32.000000
-12,-6,62,1625921379.0,32.000000
-12,-5,62,1625921379.0,32.000000
-13,-5,61,1625921379.0,32.000000
-13,-5,62,1625921379.0,32.000000
-13,-5,62,1625921379.0,32.000000
-13,-5,62,1625921379.0,32.000000
-13,-5,62,1625921379.0,32.000000
-12,-6,62,1625921379.0,32.000000
-12,-5,62,1625921379.0,32.000000
-13,-5,62,1625921379.0,32.000000
-13,-6,62,1625921379.0,32.000000
-12,-6,61,1625921379.0,32.000000
-12,-5,62,1625921379.0,32.000000
-12,-6,62,1625921379.0,32.000000
-12,-5,62,1625921379.0,32.000000
-12,-5,62,1625921379.0,32.000000
-13,-5,62,1625921379.0,32.000000
-13,-5,62,1625921379.0,32.000000
-13,-5,62,1625921379.0,32.000000
-13,-5,61,1625921379.0,32.000000
-13,-5,62,1625921379.0,32.000000
-13,-5,62,1625921379.0,32.000000
-13,-5,62,1625921379.0,32.000000
-13,-6,62,1625921379.0,32.000000
-13,-5,62,1625921379.0,32.000000
-13,-6,62,1625921379.0,32.000000
-12,-5,62,1625921379.0,32.000000
-13,-5,62,1625921379.0,32.000000
-13,-5,62,1625921379.0,32.000000
-13,-6,62,1625921379.0,32.000000
-13,-5,62,1625921379.0,32.000000
-12,-5,62,1625921379.0,32.000000
-13,-6,62,1625921379.0,32.000000
-13,-5,62,1625921379.0,32.000000
-12,-5,62,1625921379.0,32.000000
-12,-5,62,1625921379.0,32.000000
-12,-5,62,1625921379.0,32.000000
-12,-5,62,1625921379.0,32.000000
-13,-5,62,1625921379.0,32.000000
-12,-6,62,1625921379.0,32.000000
-12,-5,62,1625921379.0,32.000000
-13,-5,63,1625921379.0,32.000000
-13,-5,62,1625921379.0,32.000000
-13,-5,62,1625921379.0,32.000000
-12,-6,62,1625921379.0,32.000000
-12,-5,61,1625921379.0,32.000000
-12,-5,62,1625921379.0,32.000000
-13,-6,62,1625921379.0,32.000000
-13,-5,62,1625921379.0,32.000000
-13,-5,62,1625921379.0,32.000000
-13,-5,62,1625921379.0,32.000000
-14,-5,62,1625921379.0,32.000000
-13,-5,62,1625921379.0,32.000000
-12,-5,62,1625921379.0,32.000000
-12,-5,62,1625921379.0,32.000000
-12,-5,62,1625921379.0,32.000000
-12,-6,62,1625921379.0,32.000000
-12,-6,62,1625921379.0,32.000000
-12,-5,62,1625921379.0,32.000000
-13,-5,62,1625921379.0,32.000000
-13,-5,62,1625921379.0,32.000000
-14,-5,62,1625921379.0,32.000000
-14,-5,62,1625921379.0,32.000000
-13,-5,62,1625921379.0,32.000000
-13,-5,62,1625921379.0,32.000000
-13,-5,62,1625921379.0,32.000000
-13,-5,62,1625921379.0,32.000000
-12,-5,62,1625921379.0,32.000000
-12,-6,62,1625921379.0,32.000000
-12,-6,62,1625921379.0,32.000000
-13,-5,61,1625921379.0,32.000000
-13,-5,62,1625921379.0,32.000000
-13,-5,62,1625921379.0,32.000000
-13,-5,62,1625921379.0,32.000000
-13,-5,62,1625921379.0,32.000000
-13,-5,62,1625921379.0,32.000000
-13,-5,62,1625921379.0,32.000000
-13,-5,62,1625921379.0,32.000000
-13,-5,62,1625921379.0,32.000000
-13,-5,62,1625921379.0,32.000000
-13,-5,62,1625921379.0,32.000000
-13,-5,61,1625921379.0,32.000000
-13,-5,62,1625921379.0,32.000000
-13,-5,62,1625921379.0,32.000000
-13,-5,62,1625921379.0,32.000000
-13,-5,62,1625921379.0,32.000000
-12,-5,62,1625921379.0,32.000000
-13,-5,62,1625921379.0,32.000000
-13,-5,62,1625921379.0,32.000000
-13,-5,62,1625921379.0,32.000000
-13,-5,62,1625921379.0,32.000000
-13,-5,62,1625921379.0,32.000000
-13,-5,62,1625921379.0,32.000000
-12,-5,62,1625921379.0,32.000000
-13,-5,62,1625921379.0,32.000000
-13,-5,62,1625921379.0,32.000000
-13,-5,62,1625921379.0,32.000000
-13,-5,62,1625921379.0,32.000000
-12,-5,61,1625921379.0,32.000000
-12,-5,62,1625921379.0,32.000000
-13,-5,62,1625921379.0,32.000000
-13,-5,62,1625921379.0,32.000000
-13,-5,62,1625921379.0,32.000000
-12,-5,62,1625921379.0,32.000000
-12,-5,62,1625921379.0,32.000000
-13,-5,62,1625921379.0,32.000000
-13,-6,62,1625921379.0,32.000000
-12,-5,62,1625921379.0,32.000000
-12,-5,62,1625921379.0,32.000000
-12,-5,62,1625921379.0,32.000000
-14,-5,62,1625921379.0,32.000000
-13,-5,62,1625921379.0,32.000000
-12,-6,62,1625921379.0,32.000000
-12,-5,62,1625921379.0,32.000000
-13,-5,62,1625921379.0,32.000000
-13,-5,62,1625921379.0,32.000000
-13,-5,62,1625921379.0,32.000000
-13,-5,62,1625921379.0,32.000000
-13,-5,62,1625921379.0,32.000000
-13,-5,63,1625921379.0,32.000000
-13,-5,62,1625921379.0,32.000000
-13,-5,62,1625921379.0,32.000000
-12,-5,62,1625921379.0,32.000000
-12,-5,62,1625921379.0,32.000000
-12,-5,62,1625921379.0,32.000000
-12,-5,62,1625921379.0,32.000000
-12,-5,62,1625921379.0,32.000000
-12,-5,62,1625921379.0,32.000000
-13,-5,62,1625921379.0,32.000000
-13,-5,63,1625921379.0,32.000000
-12,-5,62,1625921379.0,32.000000
-12,-5,62,1625921379.0,32.000000
-13,-5,62,1625921379.0,32.000000
-12,-5,62,1625921379.0,32.000000
-12,-5,62,1625921379.0,32.000000
-12,-6,62,1625921379.0,32.000000
-12,-5,62,1625921379.0,32.000000
-13,-5,62,1625921379.0,32.000000
-12,-5,62,1625921379.0,32.000000
-13,-5,63,1625921379.0,32.000000
-13,-5,62,1625921379.0,32.000000
-13,-5,62,1625921379.0,32.000000
-13,-5,62,1625921379.0,32.000000
-13,-5,62,1625921379.0,32.000000
-12,-5,62,1625921379.0,32.000000
-12,-5,62,1625921379.0,32.000000
-12,-5,62,1625921379.0,32.000000
-12,-5,62,1625921379.0,32.000000
-12,-5,62,1625921379.0,32.000000
-12,-5,62,1625921379.0,32.000000
-12,-5,62,1625921379.0,32.000000
-13,-5,62,1625921379.0,32.000000
-13,-5,62,1625921379.0,32.000000
-13,-5,62,1625921379.0,32.000000
-13,-5,62,1625921379.0,32.000000
-13,-5,62,1625921379.0,32.000000
-12,-5,62,1625921379.0,32.000000
-12,-5,62,1625921379.0,32.000000
-12,-5,62,1625921379.0,32.000000
-12,-5,62,1625921379.0,32.000000
-12,-5,62,1625921379.0,32.000000
-12,-5,62,1625921379.0,32.000000
-12,-5,62,1625921379.0,32.000000
-13,-5,62,1625921379.0,32.000000
-13,-5,62,1625921379.0,32.000000
-12,-5,62,1625921379.0,32.000000
-13,-5,62,1625921379.0,32.000000
-13,-5,62,1625921379.0,32.000000
-13,-5,62,1625921379.0,32.000000
-13,-5,62,1625921379.0,32.000000
-13,-5,62,1625921379.0,32.000000
-13,-5,62,1625921379.0,32.000000
-12,-5,62,1625921379.0,32.000000
-12,-5,62,1625921379.0,32.000000
-12,-5,62,1625921379.0,32.000000
-12,-5,62,1625921379.0,32.000000
-12,-5,62,1625921379.0,32.000000
-12,-6,62,1625921379.0,32.000000
-13,-5,62,1625921379.0,32.000000
-15,-5,63,1625921379.0,32.000000
-14,-5,62,1625921379.0,32.000000
-13,-5,61,1625921379.0,32.000000
-12,-5,62,1625921379.0,32.000000
-13,-5,62,1625921379.0,32.000000
-13,-5,62,1625921379.0,32.000000
-13,-5,63,1625921379.0,32.000000
-12,-5,62,1625921379.0,32.000000
-12,-5,62,1625921379.0,32.000000
-12,-6,62,1625921379.0,32.000000
-12,-5,62,1625921379.0,32.000000
-12,-5,62,1625921379.0,32.000000
