ACC_X,ACC_Y,ACC_Z,start_time_unix,sampling_rate
-5,25,-55,1625921379.0,32.000000
-10,26,-58,1625921379.0,32.000000
-8,25,-57,1625921379.0,32.000000
-10,25,-56,1625921379.0,32.000000
-12,27,-53,1625921379.0,32.000000
-13,28,-54,1625921379.0,32.000000
-16,27,-57,1625921379.0,32.000000
-31,23,-54,1625921379.0,32.000000
-39,22,-53,1625921379.0,32.000000
-24,19,-47,1625921379.0,32.000000
-35,22,-52,1625921379.0,32.000000
-45,24,-42,1625921379.0,32.000000
-44,24,-35,1625921379.0,32.000000
-45,26,-33,1625921379.0,32.000000
-50,24,-21,1625921379.0,32.000000
-53,22,-15,1625921379.0,32.000000
-58,24,-12,1625921379.0,32.000000
-56,27,2,1625921379.0,32.000000
-59,26,8,1625921379.0,32.000000
-58,25,11,1625921379.0,32.000000
-62,27,8,1625921379.0,32.000000
-53,25,22,1625921379.0,32.000000
-57,23,27,1625921379.0,32.000000
-59,22,23,1625921379.0,32.000000
-57,20,26,1625921379.0,32.000000
-57,19,30,1625921379.0,32.000000
-59,17,37,1625921379.0,32.000000
-53,19,37,1625921379.0,32.000000
-53,20,35,1625921379.0,32.000000
-51,20,37,1625921379.0,32.000000
-52,19,38,1625921379.0,32.000000
-56,16,35,1625921379.0,32.000000
-56,17,33,1625921379.0,32.000000
-56,16,33,1625921379.0,32.000000
-55,15,33,1625921379.0,32.000000
-54,15,34,1625921379.0,32.000000
-57,14,36,1625921379.0,32.000000
-52,15,37,1625921379.0,32.000000
-52,16,36,1625921379.0,32.000000
-54,15,35,1625921379.0,32.000000
-55,15,35,1625921379.0,32.000000
-56,15,34,1625921379.0,32.000000
-54,15,34,1625921379.0,32.000000
-54,14,35,1625921379.0,32.000000
-55,14,36,1625921379.0,32.000000
-54,14,36,1625921379.0,32.000000
-53,14,35,1625921379.0,32.000000
-55,14,36,1625921379.0,32.000000
-55,15,35,1625921379.0,32.000000
-54,15,35,1625921379.0,32.000000
-55,14,35,1625921379.0,32.000000
-55,14,35,1625921379.0,32.000000
-54,14,35,1625921379.0,32.000000
-55,14,35,1625921379.0,32.000000
-55,15,34,1625921379.0,32.000000
-55,15,34,1625921379.0,32.000000
-54,15,34,1625921379.0,32.000000
-56,14,34,1625921379.0,32.000000
-55,14,33,1625921379.0,32.000000
-55,14,34,1625921379.0,32.000000
-55,14,35,1625921379.0,32.000000
-55,15,35,1625921379.0,32.000000
-55,15,34,1625921379.0,32.000000
-55,15,34,1625921379.0,32.000000
-55,14,34,1625921379.0,32.000000
-54,14,35,1625921379.0,32.000000
-54,14,35,1625921379.0,32.000000
-55,14,35,1625921379.0,32.000000
-55,14,35,1625921379.0,32.000000
-54,14,35,1625921379.0,32.000000
-55,15,34,1625921379.0,32.000000
-55,15,34,1625921379.0,32.000000
-55,14,34,1625921379.0,32.000000
-55,14,34,1625921379.0,32.000000
-55,15,35,1625921379.0,32.000000
-55,15,34,1625921379.0,32.000000
-55,14,34,1625921379.0,32.000000
-55,14,35,1625921379.0,32.000000
-55,14,34,1625921379.0,32.000000
-55,14,34,1625921379.0,32.000000
-54,15,34,1625921379.0,32.000000
-54,15,34,1625921379.0,32.000000
-56,15,33,1625921379.0,32.000000
-56,15,33,1625921379.0,32.000000
-55,14,34,1625921379.0,32.000000
-55,14,35,1625921379.0,32.000000
-55,14,34,1625921379.0,32.000000
-55,15,34,1625921379.0,32.000000
-55,15,33,1625921379.0,32.000000
-56,16,33,1625921379.0,32.000000
-56,15,33,1625921379.0,32.000000
-56,14,34,1625921379.0,32.000000
-55,14,34,1625921379.0,32.000000
-54,14,34,1625921379.0,32.000000
-55,15,34,1625921379.0,32.000000
-56,16,33,1625921379.0,32.000000
-56,16,33,1625921379.0,32.000000
-56,14,33,1625921379.0,32.000000
-55,14,33,1625921379.0,32.000000
-55,14,34,1625921379.0,32.000000
-55,14,34,1625921379.0,32.000000
-55,15,34,1625921379.0,32.000000
-55,15,34,1625921379.0,32.000000
-55,15,34,1625921379.0,32.000000
-55,15,33,1625921379.0,32.000000
-55,14,34,1625921379.0,32.000000
-55,14,34,1625921379.0,32.000000
-55,14,34,1625921379.0,32.000000
-55,15,34,1625921379.0,32.000000
-58,14,32,1625921379.0,32.000000
-60,15,33,1625921379.0,32.000000
-62,13,33,1625921379.0,32.000000
-54,16,32,1625921379.0,32.000000
-60,15,28,1625921379.0,32.000000
-61,16,33,1625921379.0,32.000000
-60,18,33,1625921379.0,32.000000
-63,20,33,1625921379.0,32.000000
-57,22,37,1625921379.0,32.000000
-52,23,38,1625921379.0,32.000000
-48,26,35,1625921379.0,32.000000
-47,28,33,1625921379.0,32.000000
-42,28,32,1625921379.0,32.000000
-39,26,33,1625921379.0,32.000000
-38,25,35,1625921379.0,32.000000
-38,21,40,1625921379.0,32.000000
-33,19,43,1625921379.0,32.000000
-33,18,45,1625921379.0,32.000000
-34,16,49,1625921379.0,32.000000
-31,15,49,1625921379.0,32.000000
-29,11,55,1625921379.0,32.000000
-29,8,56,1625921379.0,32.000000
-27,7,54,1625921379.0,32.000000
-31,4,56,1625921379.0,32.000000
-34,2,57,1625921379.0,32.000000
-30,2,58,1625921379.0,32.000000
-35,4,65,1625921379.0,32.000000
-34,4,71,1625921379.0,32.000000
-47,7,55,1625921379.0,32.000000
-44,10,48,1625921379.0,32.000000
-36,12,50,1625921379.0,32.000000
-52,10,50,1625921379.0,32.000000
-51,8,48,1625921379.0,32.000000
-44,8,50,1625921379.0,32.000000
-51,6,41,1625921379.0,32.000000
-46,6,41,1625921379.0,32.000000
-48,8,42,1625921379.0,32.000000
-57,7,43,1625921379.0,32.000000
-53,8,41,1625921379.0,32.000000
-49,7,41,1625921379.0,32.000000
-58,5,40,1625921379.0,32.000000
-52,6,42,1625921379.0,32.000000
-54,6,42,1625921379.0,32.000000
-51,7,42,1625921379.0,32.000000
-48,8,40,1625921379.0,32.000000
-50,8,38,1625921379.0,32.000000
-56,7,38,1625921379.0,32.000000
-55,7,40,1625921379.0,32.000000
-51,8,41,1625921379.0,32.000000
-51,6,41,1625921379.0,32.000000
-52,6,41,1625921379.0,32.000000
-52,7,41,1625921379.0,32.000000
-52,7,40,1625921379.0,32.000000
-52,7,40,1625921379.0,32.000000
-52,7,41,1625921379.0,32.000000
-52,7,40,1625921379.0,32.000000
-52,7,41,1625921379.0,32.000000
-52,7,41,1625921379.0,32.000000
-52,7,40,1625921379.0,32.000000
-52,7,40,1625921379.0,32.000000
-52,7,40,1625921379.0,32.000000
-52,6,41,1625921379.0,32.000000
-52,7,41,1625921379.0,32.000000
-52,7,41,1625921379.0,32.000000
-52,7,40,1625921379.0,32.000000
-52,7,40,1625921379.0,32.000000
-52,7,41,1625921379.0,32.000000
-51,7,41,1625921379.0,32.000000
-51,7,40,1625921379.0,32.000000
-52,7,40,1625921379.0,32.000000
-52,7,41,1625921379.0,32.000000
-51,7,41,1625921379.0,32.000000
-51,7,41,1625921379.0,32.000000
-52,7,41,1625921379.0,32.000000
-52,7,41,1625921379.0,32.000000
-52,7,41,1625921379.0,32.000000
-52,7,40,1625921379.0,32.000000
-52,7,41,1625921379.0,32.000000
-51,7,41,1625921379.0,32.000000
-52,7,40,1625921379.0,32.000000
-52,7,41,1625921379.0,32.000000
-52,7,41,1625921379.0,32.000000
-52,7,41,1625921379.0,32.000000
-52,7,40,1625921379.0,32.000000
-52,7,41,1625921379.0,32.000000
-52,7,41,1625921379.0,32.000000
-52,7,41,1625921379.0,32.000000
-52,7,40,1625921379.0,32.000000
-52,7,41,1625921379.0,32.000000
-52,7,41,1625921379.0,32.000000
-52,7,41,1625921379.0,32.000000
-52,7,41,1625921379.0,32.000000
-51,7,41,1625921379.0,32.000000
-52,7,40,1625921379.0,32.000000
-52,7,41,1625921379.0,32.000000
-51,7,41,1625921379.0,32.000000
-52,7,40,1625921379.0,32.000000
-52,7,40,1625921379.0,32.000000
-52,7,40,1625921379.0,32.000000
-52,7,40,1625921379.0,32.000000
-52,7,40,1625921379.0,32.000000
-52,7,40,1625921379.0,32.000000
-52,7,40,1625921379.0,32.000000
-52,7,40,1625921379.0,32.000000
-52,7,40,1625921379.0,32.000000
-52,7,40,1625921379.0,32.000000
-52,7,40,1625921379.0,32.000000
-52,7,40,1625921379.0,32.000000
-52,7,40,1625921379.0,32.000000
-52,7,40,1625921379.0,32.000000
-52,7,40,1625921379.0,32.000000
-52,7,40,1625921379.0,32.000000
-52,7,40,1625921379.0,32.000000
-52,7,40,1625921379.0,32.000000
-52,7,40,1625921379.0,32.000000
-52,7,40,1625921379.0,32.000000
-52,7,40,1625921379.0,32.000000
-52,7,40,1625921379.0,32.000000
-52,7,40,1625921379.0,32.000000
-52,7,40,1625921379.0,32.000000
-53,7,40,1625921379.0,32.000000
-53,7,40,1625921379.0,32.000000
-52,7,40,1625921379.0,32.000000
-52,7,40,1625921379.0,32.000000
-52,7,40,1625921379.0,32.000000
-52,7,40,1625921379.0,32.000000
-53,7,40,1625921379.0,32.000000
-53,7,39,1625921379.0,32.000000
-52,7,40,1625921379.0,32.000000
-52,7,40,1625921379.0,32.000000
-53,7,40,1625921379.0,32.000000
-52,7,40,1625921379.0,32.000000
-52,7,40,1625921379.0,32.000000
-52,7,40,1625921379.0,32.000000
-52,7,40,1625921379.0,32.000000
-52,7,40,1625921379.0,32.000000
-52,7,40,1625921379.0,32.000000
-52,7,40,1625921379.0,32.000000
-52,7,40,1625921379.0,32.000000
-52,7,40,1625921379.0,32.000000
-52,7,40,1625921379.0,32.000000
-52,7,40,1625921379.0,32.000000
-52,7,40,1625921379.0,32.000000
-53,7,40,1625921379.0,32.000000
-52,7,39,1625921379.0,32.000000
-52,7,40,1625921379.0,32.000000
-52,7,40,1625921379.0,32.000000
-52,7,40,1625921379.0,32.000000
-52,7,40,1625921379.0,32.000000
-52,7,40,1625921379.0,32.000000
-52,7,40,1625921379.0,32.000000
-52,7,40,1625921379.0,32.000000
-52,7,40,1625921379.0,32.000000
-52,7,40,1625921379.0,32.000000
-52,7,40,1625921379.0,32.000000
-52,7,40,1625921379.0,32.000000
-52,7,40,1625921379.0,32.000000
-52,7,40,1625921379.0,32.000000
-52,7,40,1625921379.0,32.000000
-52,7,40,1625921379.0,32.000000
-52,7,40,1625921379.0,32.000000
-52,7,40,1625921379.0,32.000000
-52,7,40,1625921379.0,32.000000
-52,7,40,1625921379.0,32.000000
-52,7,40,1625921379.0,32.000000
-52,7,40,1625921379.0,32.000000
-52,7,40,1625921379.0,32.000000
-52,7,40,1625921379.0,32.000000
-52,7,40,1625921379.0,32.000000
-52,7,40,1625921379.0,32.000000
-52,7,40,1625921379.0,32.000000
-52,7,40,1625921379.0,32.000000
-52,7,40,1625921379.0,32.000000
-52,7,40,1625921379.0,32.000000
-52,7,40,1625921379.0,32.000000
-52,7,40,1625921379.0,32.000000
-52,7,40,1625921379.0,32.000000
-52,7,40,1625921379.0,32.000000
-52,7,40,1625921379.0,32.000000
-52,7,40,1625921379.0,32.000000
-52,7,40,1625921379.0,32.000000
-52,7,40,1625921379.0,32.000000
-52,7,40,1625921379.0,32.000000
-52,7,40,1625921379.0,32.000000
-52,7,40,1625921379.0,32.000000
-52,7,40,1625921379.0,32.000000
-52,7,40,1625921379.0,32.000000
-52,7,40,1625921379.0,32.000000
-52,7,40,1625921379.0,32.000000
-52,7,40,1625921379.0,32.000000
-52,7,40,1625921379.0,32.000000
-52,7,40,1625921379.0,32.000000
-52,7,40,1625921379.0,32.000000
-52,7,40,1625921379.0,32.000000
-52,7,40,1625921379.0,32.000000
-52,7,40,1625921379.0,32.000000
-52,7,40,1625921379.0,32.000000
-52,7,40,1625921379.0,32.000000
-52,7,40,1625921379.0,32.000000
-52,7,40,1625921379.0,32.000000
-52,7,40,1625921379.0,32.000000
-52,7,40,1625921379.0,32.000000
-52,7,40,1625921379.0,32.000000
-52,7,40,1625921379.0,32.000000
-52,7,40,1625921379.0,32.000000
-52,7,40,1625921379.0,32.000000
-52,7,40,1625921379.0,32.000000
-52,7,40,1625921379.0,32.000000
-52,7,40,1625921379.0,32.000000
-52,7,40,1625921379.0,32.000000
-52,7,40,1625921379.0,32.000000
-52,7,40,1625921379.0,32.000000
-52,7,40,1625921379.0,32.000000
-52,7,40,1625921379.0,32.000000
-52,7,40,1625921379.0,32.000000
-52,7,40,1625921379.0,32.000000
-52,7,40,1625921379.0,32.000000
-52,7,40,1625921379.0,32.000000
-52,7,40,1625921379.0,32.000000
-52,7,39,1625921379.0,32.000000
-52,7,40,1625921379.0,32.000000
-52,7,40,1625921379.0,32.000000
-52,7,40,1625921379.0,32.000000
-52,7,40,1625921379.0,32.000000
-52,7,40,1625921379.0,32.000000
-52,7,40,1625921379.0,32.000000
-52,7,40,1625921379.0,32.000000
-52,7,40,1625921379.0,32.000000
-52,7,40,1625921379.0,32.000000
-52,7,40,1625921379.0,32.000000
-52,7,40,1625921379.0,32.000000
-52,7,40,1625921379.0,32.000000
-52,7,40,1625921379.0,32.000000
-52,7,40,1625921379.0,32.000000
-52,7,40,1625921379.0,32.000000
-52,7,40,1625921379.0,32.000000
-52,7,40,1625921379.0,32.000000
-52,6,40,1625921379.0,32.000000
-52,7,40,1625921379.0,32.000000
-52,7,40,1625921379.0,32.000000
-52,7,40,1625921379.0,32.000000
-52,7,40,1625921379.0,32.000000
-52,7,40,1625921379.0,32.000000
-52,7,40,1625921379.0,32.000000
-52,7,40,1625921379.0,32.000000
-52,6,40,1625921379.0,32.000000
-52,7,40,1625921379.0,32.000000
-52,7,40,1625921379.0,32.000000
-52,7,40,1625921379.0,32.000000
-52,6,40,1625921379.0,32.000000
-52,7,40,1625921379.0,32.000000
-52,7,40,1625921379.0,32.000000
-52,7,40,1625921379.0,32.000000
-52,7,40,1625921379.0,32.000000
-52,7,40,1625921379.0,32.000000
-52,7,40,1625921379.0,32.000000
-52,7,40,1625921379.0,32.000000
-52,7,40,1625921379.0,32.000000
-52,7,40,1625921379.0,32.000000
-52,7,40,1625921379.0,32.000000
-52,7,40,1625921379.0,32.000000
-52,7,40,1625921379.0,32.000000
-52,7,40,1625921379.0,32.000000
-52,7,40,1625921379.0,32.000000
-52,7,40,1625921379.0,32.000000
-52,7,40,1625921379.0,32.000000
-52,7,40,1625921379.0,32.000000
-52,7,40,1625921379.0,32.000000
-52,7,40,1625921379.0,32.000000
-52,7,40,1625921379.0,32.000000
-52,7,40,1625921379.0,32.000000
-52,7,40,1625921379.0,32.000000
-52,7,40,1625921379.0,32.000000
-52,7,40,1625921379.0,32.000000
-52,6,40,1625921379.0,32.000000
-52,7,40,1625921379.0,32.000000
-52,7,40,1625921379.0,32.000000
-52,7,40,1625921379.0,32.000000
-52,7,40,1625921379.0,32.000000
-52,7,40,1625921379.0,32.000000
-52,7,40,1625921379.0,32.000000
-52,7,40,1625921379.0,32.000000
-52,7,40,1625921379.0,32.000000
-52,7,40,1625921379.0,32.000000
-52,7,40,1625921379.0,32.000000
-52,7,40,1625921379.0,32.000000
-52,7,40,1625921379.0,32.000000
-52,7,40,1625921379.0,32.000000
-52,7,40,1625921379.0,32.000000
-52,7,40,1625921379.0,32.000000
-52,7,40,1625921379.0,32.000000
-52,7,40,1625921379.0,32.000000
-52,7,40,1625921379.0,32.000000
-52,7,40,1625921379.0,32.000000
-52,7,40,1625921379.0,32.000000
-52,7,40,1625921379.0,32.000000
-52,7,40,1625921379.0,32.000000
-52,7,40,1625921379.0,32.000000
-52,7,40,1625921379.0,32.000000
-52,7,40,1625921379.0,32.000000
-52,7,40,1625921379.0,32.000000
-52,7,40,1625921379.0,32.000000
-52,7,40,1625921379.0,32.000000
-52,7,40,1625921379.0,32.000000
-52,7,40,1625921379.0,32.000000
-52,7,40,1625921379.0,32.000000
-52,7,40,1625921379.0,32.000000
-52,7,40,1625921379.0,32.000000
-53,7,39,1625921379.0,32.000000
-52,7,40,1625921379.0,32.000000
-52,7,40,1625921379.0,32.000000
-52,7,40,1625921379.0,32.000000
-53,6,40,1625921379.0,32.000000
-52,7,40,1625921379.0,32.000000
-52,7,40,1625921379.0,32.000000
-52,7,40,1625921379.0,32.000000
-52,7,40,1625921379.0,32.000000
-52,7,40,1625921379.0,32.000000
-52,6,40,1625921379.0,32.000000
-53,7,39,1625921379.0,32.000000
-52,7,40,1625921379.0,32.000000
-52,7,40,1625921379.0,32.000000
-52,7,39,1625921379.0,32.000000
-52,6,40,1625921379.0,32.000000
-53,7,40,1625921379.0,32.000000
-53,7,40,1625921379.0,32.000000
-53,7,40,1625921379.0,32.000000
-53,7,39,1625921379.0,32.000000
-52,7,40,1625921379.0,32.000000
-52,7,40,1625921379.0,32.000000
-52,6,39,1625921379.0,32.000000
-52,7,40,1625921379.0,32.000000
-52,7,40,1625921379.0,32.000000
-53,7,39,1625921379.0,32.000000
-52,7,40,1625921379.0,32.000000
-52,7,40,1625921379.0,32.000000
-52,7,40,1625921379.0,32.000000
-52,7,40,1625921379.0,32.000000
-52,7,40,1625921379.0,32.000000
-52,7,40,1625921379.0,32.000000
-53,7,40,1625921379.0,32.000000
-52,7,40,1625921379.0,32.000000
-52,7,40,1625921379.0,32.000000
-52,7,40,1625921379.0,32.000000
-52,7,40,1625921379.0,32.000000
-52,7,40,1625921379.0,32.000000
-52,7,40,1625921379.0,32.000000
-52,7,40,1625921379.0,32.000000
-52,7,40,1625921379.0,32.000000
-52,7,40,1625921379.0,32.000000
-52,7,40,1625921379.0,32.000000
-52,7,40,1625921379.0,32.000000
-53,7,40,1625921379.0,32.000000
-52,7,40,1625921379.0,32.000000
-52,6,40,1625921379.0,32.000000
-52,7,40,1625921379.0,32.000000
-52,7,40,1625921379.0,32.000000
-52,6,40,1625921379.0,32.000000
-52,6,41,1625921379.0,32.000000
-52,6,40,1625921379.0,32.000000
-52,7,40,1625921379.0,32.000000
-52,7,40,1625921379.0,32.000000
-54,8,37,1625921379.0,32.000000
-50,7,39,1625921379.0,32.000000
-51,5,39,1625921379.0,32.000000
-52,6,42,1625921379.0,32.000000
-51,6,41,1625921379.0,32.000000
-53,7,39,1625921379.0,32.000000
-54,7,38,1625921379.0,32.000000
-53,8,39,1625921379.0,32.000000
-53,7,40,1625921379.0,32.000000
-53,7,40,1625921379.0,32.000000
-52,7,39,1625921379.0,32.000000
-53,7,39,1625921379.0,32.000000
-52,7,39,1625921379.0,32.000000
-52,6,39,1625921379.0,32.000000
-52,6,40,1625921379.0,32.000000
-52,6,40,1625921379.0,32.000000
-53,6,39,1625921379.0,32.000000
-53,7,40,1625921379.0,32.000000
-53,7,39,1625921379.0,32.000000
-53,7,39,1625921379.0,32.000000
-53,7,39,1625921379.0,32.000000
-53,6,39,1625921379.0,32.000000
-53,7,39,1625921379.0,32.000000
-52,6,40,1625921379.0,32.000000
-52,6,40,1625921379.0,32.000000
-53,7,39,1625921379.0,32.000000
-52,7,40,1625921379.0,32.000000
-52,6,40,1625921379.0,32.000000
-51,7,40,1625921379.0,32.000000
-50,7,40,1625921379.0,32.000000
-57,7,36,1625921379.0,32.000000
-54,6,37,1625921379.0,32.000000
-54,5,39,1625921379.0,32.000000
-53,6,40,1625921379.0,32.000000
-54,7,38,1625921379.0,32.000000
-54,7,38,1625921379.0,32.000000
-53,7,39,1625921379.0,32.000000
-53,7,39,1625921379.0,32.000000
-54,6,39,1625921379.0,32.000000
-53,7,38,1625921379.0,32.000000
-52,6,40,1625921379.0,32.000000
-54,7,39,1625921379.0,32.000000
-54,7,38,1625921379.0,32.000000
-53,7,39,1625921379.0,32.000000
-53,7,39,1625921379.0,32.000000
-53,7,39,1625921379.0,32.000000
-53,7,39,1625921379.0,32.000000
-53,7,39,1625921379.0,32.000000
-53,7,39,1625921379.0,32.000000
-53,6,39,1625921379.0,32.000000
-53,7,39,1625921379.0,32.000000
-53,7,39,1625921379.0,32.000000
-53,7,39,1625921379.0,32.000000
-53,6,39,1625921379.0,32.000000
-53,6,39,1625921379.0,32.000000
-53,7,39,1625921379.0,32.000000
-53,7,39,1625921379.0,32.000000
-53,7,39,1625921379.0,32.000000
-53,6,39,1625921379.0,32.000000
-53,7,39,1625921379.0,32.000000
-53,7,39,1625921379.0,32.000000
-53,7,39,1625921379.0,32.000000
-53,7,39,1625921379.0,32.000000
-53,6,39,1625921379.0,32.000000
-53,7,39,1625921379.0,32.000000
-53,7,39,1625921379.0,32.000000
-53,6,39,1625921379.0,32.000000
-53,7,39,1625921379.0,32.000000
-53,7,39,1625921379.0,32.000000
-53,6,39,1625921379.0,32.000000
-53,6,39,1625921379.0,32.000000
-53,7,39,1625921379.0,32.000000
-53,7,39,1625921379.0,32.000000
-53,6,39,1625921379.0,32.000000
-53,7,39,1625921379.0,32.000000
-53,7,39,1625921379.0,32.000000
-53,6,39,1625921379.0,32.000000
-53,6,39,1625921379.0,32.000000
-53,6,39,1625921379.0,32.000000
-53,6,39,1625921379.0,32.000000
-53,7,39,1625921379.0,32.000000
-53,7,39,1625921379.0,32.000000
-53,6,39,1625921379.0,32.000000
-53,6,39,1625921379.0,32.000000
-53,7,39,1625921379.0,32.000000
-53,7,39,1625921379.0,32.000000
-53,7,39,1625921379.0,32.000000
-53,7,39,1625921379.0,32.000000
-53,6,39,1625921379.0,32.000000
-53,7,39,1625921379.0,32.000000
-53,7,39,1625921379.0,32.000000
-53,7,39,1625921379.0,32.000000
-53,7,39,1625921379.0,32.000000
-53,7,39,1625921379.0,32.000000
-53,7,39,1625921379.0,32.000000
-54,7,39,1625921379.0,32.000000
-53,6,39,1625921379.0,32.000000
-53,6,40,1625921379.0,32.000000
-53,6,39,1625921379.0,32.000000
-53,7,39,1625921379.0,32.000000
-53,7,39,1625921379.0,32.000000
-53,7,39,1625921379.0,32.000000
-53,7,39,1625921379.0,32.000000
-53,6,39,1625921379.0,32.000000
-53,7,39,1625921379.0,32.000000
-53,7,39,1625921379.0,32.000000
-54,7,39,1625921379.0,32.000000
-53,7,39,1625921379.0,32.000000
-52,7,38,1625921379.0,32.000000
-54,6,40,1625921379.0,32.000000
-50,7,39,1625921379.0,32.000000
-55,6,38,1625921379.0,32.000000
-54,6,40,1625921379.0,32.000000
-52,7,39,1625921379.0,32.000000
-54,6,38,1625921379.0,32.000000
-52,7,39,1625921379.0,32.000000
-53,7,40,1625921379.0,32.000000
-53,6,39,1625921379.0,32.000000
-53,7,39,1625921379.0,32.000000
-53,7,39,1625921379.0,32.000000
-53,7,39,1625921379.0,32.000000
-53,6,39,1625921379.0,32.000000
-53,7,39,1625921379.0,32.000000
-52,7,39,1625921379.0,32.000000
-53,6,39,1625921379.0,32.000000
-53,6,39,1625921379.0,32.000000
-53,7,40,1625921379.0,32.000000
-53,7,39,1625921379.0,32.000000
-54,7,39,1625921379.0,32.000000
-53,7,39,1625921379.0,32.000000
-53,6,39,1625921379.0,32.000000
-53,7,39,1625921379.0,32.000000
-53,7,39,1625921379.0,32.000000
-53,7,39,1625921379.0,32.000000
-53,7,40,1625921379.0,32.000000
-53,7,39,1625921379.0,32.000000
-53,6,39,1625921379.0,32.000000
-53,7,39,1625921379.0,32.000000
-53,7,39,1625921379.0,32.000000
-53,7,39,1625921379.0,32.000000
-53,7,40,1625921379.0,32.000000
-53,6,39,1625921379.0,32.000000
-53,7,39,1625921379.0,32.000000
-53,7,39,1625921379.0,32.000000
-52,7,39,1625921379.0,32.000000
-53,7,39,1625921379.0,32.000000
-53,6,40,1625921379.0,32.000000
-53,7,39,1625921379.0,32.000000
-53,7,39,1625921379.0,32.000000
-53,7,39,1625921379.0,32.000000
-53,6,39,1625921379.0,32.000000
-54,6,39,1625921379.0,32.000000
-52,7,39,1625921379.0,32.000000
-53,7,39,1625921379.0,32.000000
-53,7,39,1625921379.0,32.000000
-52,7,39,1625921379.0,32.000000
-53,7,39,1625921379.0,32.000000
-53,6,39,1625921379.0,32.000000
-53,7,39,1625921379.0,32.000000
-53,7,39,1625921379.0,32.000000
-53,7,39,1625921379.0,32.000000
-53,7,39,1625921379.0,32.000000
-53,7,39,1625921379.0,32.000000
-53,7,39,1625921379.0,32.000000
-53,7,39,1625921379.0,32.000000
-53,7,39,1625921379.0,32.000000
-53,6,40,1625921379.0,32.000000
-53,7,39,1625921379.0,32.000000
-53,7,39,1625921379.0,32.000000
-53,7,39,1625921379.0,32.000000
-52,7,39,1625921379.0,32.000000
-53,7,39,1625921379.0,32.000000
-52,7,39,1625921379.0,32.000000
-53,7,39,1625921379.0,32.000000
-53,7,39,1625921379.0,32.000000
-53,7,39,1625921379.0,32.000000
-53,7,39,1625921379.0,32.000000
-53,6,39,1625921379.0,32.000000
-52,7,39,1625921379.0,32.000000
-53,7,39,1625921379.0,32.000000
-53,7,39,1625921379.0,32.000000
-53,7,39,1625921379.0,32.000000
-53,7,39,1625921379.0,32.000000
-52,7,40,1625921379.0,32.000000
-53,6,39,1625921379.0,32.000000
-53,6,39,1625921379.0,32.000000
-53,7,40,1625921379.0,32.000000
-52,7,39,1625921379.0,32.000000
-53,6,40,1625921379.0,32.000000
-52,7,40,1625921379.0,32.000000
-52,8,39,1625921379.0,32.000000
-52,7,40,1625921379.0,32.000000
-52,7,40,1625921379.0,32.000000
-52,7,40,1625921379.0,32.000000
-52,7,40,1625921379.0,32.000000
-53,7,39,1625921379.0,32.000000
-52,7,39,1625921379.0,32.000000
-53,7,40,1625921379.0,32.000000
-52,7,39,1625921379.0,32.000000
-53,6,40,1625921379.0,32.000000
-53,7,39,1625921379.0,32.000000
-53,7,39,1625921379.0,32.000000
-52,7,40,1625921379.0,32.000000
-52,6,40,1625921379.0,32.000000
-53,7,40,1625921379.0,32.000000
-53,7,39,1625921379.0,32.000000
-52,7,40,1625921379.0,32.000000
-52,7,39,1625921379.0,32.000000
-52,7,40,1625921379.0,32.000000
-53,7,40,1625921379.0,32.000000
-53,7,39,1625921379.0,32.000000
-52,7,40,1625921379.0,32.000000
-53,7,39,1625921379.0,32.000000
-53,6,39,1625921379.0,32.000000
-53,6,40,1625921379.0,32.000000
-53,7,40,1625921379.0,32.000000
-53,7,39,1625921379.0,32.000000
-52,7,40,1625921379.0,32.000000
-52,7,40,1625921379.0,32.000000
-52,7,40,1625921379.0,32.000000
-52,7,40,1625921379.0,32.000000
-52,7,40,1625921379.0,32.000000
-53,7,40,1625921379.0,32.000000
-52,7,40,1625921379.0,32.000000
-52,7,39,1625921379.0,32.000000
-53,6,40,1625921379.0,32.000000
-53,7,39,1625921379.0,32.000000
-52,7,40,1625921379.0,32.000000
-52,7,40,1625921379.0,32.000000
-53,7,39,1625921379.0,32.000000
-52,7,40,1625921379.0,32.000000
-53,6,40,1625921379.0,32.000000
-52,7,40,1625921379.0,32.000000
-52,7,39,1625921379.0,32.000000
-52,7,40,1625921379.0,32.000000
-52,8,37,1625921379.0,32.000000
-52,8,37,1625921379.0,32.000000
-54,5,41,1625921379.0,32.000000
-51,5,43,1625921379.0,32.000000
-53,6,41,1625921379.0,32.000000
-53,7,39,1625921379.0,32.000000
-53,7,39,1625921379.0,32.000000
-52,6,40,1625921379.0,32.000000
-53,6,39,1625921379.0,32.000000
-53,6,39,1625921379.0,32.000000
-52,7,39,1625921379.0,32.000000
-52,7,39,1625921379.0,32.000000
-52,7,37,1625921379.0,32.000000
-53,9,35,1625921379.0,32.000000
-54,5,41,1625921379.0,32.000000
-52,4,42,1625921379.0,32.000000
-52,4,43,1625921379.0,32.000000
-53,6,40,1625921379.0,32.000000
-53,6,39,1625921379.0,32.000000
-54,7,37,1625921379.0,32.000000
-53,6,38,1625921379.0,32.000000
-52,6,39,1625921379.0,32.000000
-53,6,39,1625921379.0,32.000000
-53,6,39,1625921379.0,32.000000
-53,6,39,1625921379.0,32.000000
-53,6,39,1625921379.0,32.000000
-53,6,39,1625921379.0,32.000000
-52,6,40,1625921379.0,32.000000
-52,6,39,1625921379.0,32.000000
-53,6,39,1625921379.0,32.000000
-53,6,40,1625921379.0,32.000000
-53,6,39,1625921379.0,32.000000
-53,7,38,1625921379.0,32.000000
-53,6,39,1625921379.0,32.000000
-52,6,40,1625921379.0,32.000000
-54,7,37,1625921379.0,32.000000
-54,6,39,1625921379.0,32.000000
-52,5,41,1625921379.0,32.000000
-53,6,39,1625921379.0,32.000000
-54,6,39,1625921379.0,32.000000
-53,6,39,1625921379.0,32.000000
-53,6,39,1625921379.0,32.000000
-53,7,38,1625921379.0,32.000000
-53,6,39,1625921379.0,32.000000
-53,6,39,1625921379.0,32.000000
-53,6,38,1625921379.0,32.000000
-54,7,38,1625921379.0,32.000000
-52,6,40,1625921379.0,32.000000
-53,7,38,1625921379.0,32.000000
-54,7,38,1625921379.0,32.000000
-53,6,40,1625921379.0,32.000000
-53,6,39,1625921379.0,32.000000
-54,7,38,1625921379.0,32.000000
-53,6,39,1625921379.0,32.000000
-53,6,39,1625921379.0,32.000000
-53,6,39,1625921379.0,32.000000
-53,7,38,1625921379.0,32.000000
-53,6,39,1625921379.0,32.000000
-53,6,39,1625921379.0,32.000000
-54,6,39,1625921379.0,32.000000
-53,7,38,1625921379.0,32.000000
-54,6,39,1625921379.0,32.000000
-53,6,39,1625921379.0,32.000000
-54,6,39,1625921379.0,32.000000
-54,6,39,1625921379.0,32.000000
-51,5,40,1625921379.0,32.000000
-53,6,40,1625921379.0,32.000000
-54,9,36,1625921379.0,32.000000
-54,6,38,1625921379.0,32.000000
-53,6,39,1625921379.0,32.000000
-55,6,38,1625921379.0,32.000000
-55,6,38,1625921379.0,32.000000
-54,6,38,1625921379.0,32.000000
-54,6,38,1625921379.0,32.000000
-54,6,38,1625921379.0,32.000000
-54,6,38,1625921379.0,32.000000
-54,6,38,1625921379.0,32.000000
-53,6,39,1625921379.0,32.000000
-53,7,38,1625921379.0,32.000000
-54,7,38,1625921379.0,32.000000
-53,7,38,1625921379.0,32.000000
-53,7,38,1625921379.0,32.000000
-53,6,39,1625921379.0,32.000000
-53,7,39,1625921379.0,32.000000
-53,7,38,1625921379.0,32.000000
-54,7,38,1625921379.0,32.000000
-53,6,38,1625921379.0,32.000000
-54,6,38,1625921379.0,32.000000
-54,7,38,1625921379.0,32.000000
-54,7,38,1625921379.0,32.000000
-54,6,38,1625921379.0,32.000000
-54,6,38,1625921379.0,32.000000
-53,6,38,1625921379.0,32.000000
-53,6,39,1625921379.0,32.000000
-54,7,38,1625921379.0,32.000000
-56,6,39,1625921379.0,32.000000
-58,6,38,1625921379.0,32.000000
-60,6,38,1625921379.0,32.000000
-59,7,35,1625921379.0,32.000000
-62,1,37,1625921379.0,32.000000
-39,7,49,1625921379.0,32.000000
-37,10,50,1625921379.0,32.000000
-50,9,47,1625921379.0,32.000000
-31,12,61,1625921379.0,32.000000
-28,14,56,1625921379.0,32.000000
-45,17,53,1625921379.0,32.000000
-21,12,67,1625921379.0,32.000000
-24,18,51,1625921379.0,32.000000
-26,22,41,1625921379.0,32.000000
-25,21,43,1625921379.0,32.000000
-37,23,44,1625921379.0,32.000000
-40,21,50,1625921379.0,32.000000
-35,20,53,1625921379.0,32.000000
-31,20,53,1625921379.0,32.000000
-34,20,51,1625921379.0,32.000000
-34,20,49,1625921379.0,32.000000
-35,19,53,1625921379.0,32.000000
-35,18,53,1625921379.0,32.000000
-39,16,50,1625921379.0,32.000000
-41,16,50,1625921379.0,32.000000
-38,17,52,1625921379.0,32.000000
-38,17,49,1625921379.0,32.000000
-40,17,50,1625921379.0,32.000000
-37,16,51,1625921379.0,32.000000
-34,16,51,1625921379.0,32.000000
-37,16,49,1625921379.0,32.000000
-36,16,47,1625921379.0,32.000000
-34,17,47,1625921379.0,32.000000
-44,15,49,1625921379.0,32.000000
-43,12,55,1625921379.0,32.000000
-33,9,54,1625921379.0,32.000000
-49,5,53,1625921379.0,32.000000
-43,4,58,1625921379.0,32.000000
-37,9,48,1625921379.0,32.000000
-41,9,49,1625921379.0,32.000000
-39,8,52,1625921379.0,32.000000
-25,9,55,1625921379.0,32.000000
-37,8,51,1625921379.0,32.000000
-48,3,46,1625921379.0,32.000000
-55,8,45,1625921379.0,32.000000
-51,9,34,1625921379.0,32.000000
-63,11,29,1625921379.0,32.000000
-66,9,30,1625921379.0,32.000000
-57,-1,40,1625921379.0,32.000000
-51,-1,42,1625921379.0,32.000000
-56,3,38,1625921379.0,32.000000
-54,6,40,1625921379.0,32.000000
-59,5,35,1625921379.0,32.000000
-54,5,40,1625921379.0,32.000000
-50,6,38,1625921379.0,32.000000
-57,6,34,1625921379.0,32.000000
-55,6,35,1625921379.0,32.000000
-56,7,36,1625921379.0,32.000000
-54,6,37,1625921379.0,32.000000
-52,7,36,1625921379.0,32.000000
-56,8,35,1625921379.0,32.000000
-54,4,39,1625921379.0,32.000000
-53,4,40,1625921379.0,32.000000
-55,6,38,1625921379.0,32.000000
-55,6,36,1625921379.0,32.000000
-55,5,37,1625921379.0,32.000000
-53,5,37,1625921379.0,32.000000
-54,6,37,1625921379.0,32.000000
-54,6,36,1625921379.0,32.000000
-56,7,35,1625921379.0,32.000000
-56,6,38,1625921379.0,32.000000
-52,4,40,1625921379.0,32.000000
-52,4,39,1625921379.0,32.000000
-54,3,40,1625921379.0,32.000000
-53,3,40,1625921379.0,32.000000
-53,5,39,1625921379.0,32.000000
-55,6,36,1625921379.0,32.000000
-56,6,36,1625921379.0,32.000000
-63,7,31,1625921379.0,32.000000
-67,11,26,1625921379.0,32.000000
-47,10,43,1625921379.0,32.000000
-44,-2,49,1625921379.0,32.000000
-40,-3,49,1625921379.0,32.000000
-35,-1,52,1625921379.0,32.000000
-47,2,46,1625921379.0,32.000000
-54,3,42,1625921379.0,32.000000
-58,5,35,1625921379.0,32.000000
-57,6,35,1625921379.0,32.000000
-54,6,38,1625921379.0,32.000000
-53,4,41,1625921379.0,32.000000
-52,3,40,1625921379.0,32.000000
-53,4,39,1625921379.0,32.000000
-53,4,40,1625921379.0,32.000000
-52,4,40,1625921379.0,32.000000
-52,5,39,1625921379.0,32.000000
-54,5,38,1625921379.0,32.000000
-53,5,39,1625921379.0,32.000000
-53,4,40,1625921379.0,32.000000
-53,4,39,1625921379.0,32.000000
-53,4,40,1625921379.0,32.000000
-53,4,40,1625921379.0,32.000000
-53,4,39,1625921379.0,32.000000
-53,5,39,1625921379.0,32.000000
-53,5,39,1625921379.0,32.000000
-53,4,40,1625921379.0,32.000000
-53,4,40,1625921379.0,32.000000
-53,6,38,1625921379.0,32.000000
-54,6,38,1625921379.0,32.000000
-53,5,39,1625921379.0,32.000000
-53,5,39,1625921379.0,32.000000
-54,5,39,1625921379.0,32.000000
-53,4,40,1625921379.0,32.000000
-52,4,40,1625921379.0,32.000000
-54,5,38,1625921379.0,32.000000
-54,5,39,1625921379.0,32.000000
-53,5,39,1625921379.0,32.000000
-53,4,41,1625921379.0,32.000000
-54,4,40,1625921379.0,32.000000
-51,4,39,1625921379.0,32.000000
-55,6,37,1625921379.0,32.000000
-55,6,37,1625921379.0,32.000000
-54,5,38,1625921379.0,32.000000
-53,5,39,1625921379.0,32.000000
-54,5,38,1625921379.0,32.000000
-53,5,39,1625921379.0,32.000000
-53,5,39,1625921379.0,32.000000
-53,5,39,1625921379.0,32.000000
-54,5,39,1625921379.0,32.000000
-53,5,38,1625921379.0,32.000000
-54,5,39,1625921379.0,32.000000
-54,5,39,1625921379.0,32.000000
-54,5,38,1625921379.0,32.000000
-53,5,37,1625921379.0,32.000000
-54,5,39,1625921379.0,32.000000
-53,5,38,1625921379.0,32.000000
-53,5,38,1625921379.0,32.000000
-54,5,38,1625921379.0,32.000000
-54,5,38,1625921379.0,32.000000
-54,5,39,1625921379.0,32.000000
-54,6,38,1625921379.0,32.000000
-54,5,38,1625921379.0,32.000000
-54,4,40,1625921379.0,32.000000
-55,4,40,1625921379.0,32.000000
-51,5,38,1625921379.0,32.000000
-55,6,37,1625921379.0,32.000000
-55,6,36,1625921379.0,32.000000
-53,6,38,1625921379.0,32.000000
-54,5,39,1625921379.0,32.000000
-53,5,39,1625921379.0,32.000000
-55,5,38,1625921379.0,32.000000
-54,6,37,1625921379.0,32.000000
-54,6,38,1625921379.0,32.000000
-54,5,39,1625921379.0,32.000000
-53,5,39,1625921379.0,32.000000
-54,5,38,1625921379.0,32.000000
-55,5,37,1625921379.0,32.000000
-54,6,37,1625921379.0,32.000000
-54,6,37,1625921379.0,32.000000
-54,5,38,1625921379.0,32.000000
-54,5,38,1625921379.0,32.000000
-54,5,38,1625921379.0,32.000000
-54,6,38,1625921379.0,32.000000
-54,6,38,1625921379.0,32.000000
-54,6,37,1625921379.0,32.000000
-54,5,38,1625921379.0,32.000000
-54,5,38,1625921379.0,32.000000
-54,5,38,1625921379.0,32.000000
-54,5,38,1625921379.0,32.000000
-54,6,38,1625921379.0,32.000000
-54,5,38,1625921379.0,32.000000
-54,5,37,1625921379.0,32.000000
-54,5,38,1625921379.0,32.000000
-54,6,38,1625921379.0,32.000000
-54,6,37,1625921379.0,32.000000
-54,5,38,1625921379.0,32.000000
-54,5,38,1625921379.0,32.000000
-54,5,38,1625921379.0,32.000000
-54,5,38,1625921379.0,32.000000
-54,5,37,1625921379.0,32.000000
-54,5,38,1625921379.0,32.000000
-54,5,38,1625921379.0,32.000000
-55,5,39,1625921379.0,32.000000
-53,6,36,1625921379.0,32.000000
-55,7,36,1625921379.0,32.000000
-55,5,37,1625921379.0,32.000000
-54,5,38,1625921379.0,32.000000
-55,5,38,1625921379.0,32.000000
-54,5,39,1625921379.0,32.000000
-53,5,39,1625921379.0,32.000000
-53,6,39,1625921379.0,32.000000
-53,6,38,1625921379.0,32.000000
-55,8,37,1625921379.0,32.000000
-55,7,36,1625921379.0,32.000000
-54,6,38,1625921379.0,32.000000
-54,5,39,1625921379.0,32.000000
-54,5,39,1625921379.0,32.000000
-55,5,38,1625921379.0,32.000000
-54,6,37,1625921379.0,32.000000
-54,6,37,1625921379.0,32.000000
-55,6,37,1625921379.0,32.000000
-55,6,37,1625921379.0,32.000000
-54,6,37,1625921379.0,32.000000
-53,8,36,1625921379.0,32.000000
-55,9,35,1625921379.0,32.000000
-57,7,35,1625921379.0,32.000000
-55,6,35,1625921379.0,32.000000
-56,4,36,1625921379.0,32.000000
-54,3,36,1625921379.0,32.000000
-55,4,35,1625921379.0,32.000000
-58,6,35,1625921379.0,32.000000
-57,6,34,1625921379.0,32.000000
-55,7,34,1625921379.0,32.000000
-57,7,35,1625921379.0,32.000000
-55,8,36,1625921379.0,32.000000
-59,6,35,1625921379.0,32.000000
-54,4,36,1625921379.0,32.000000
-57,6,35,1625921379.0,32.000000
-55,7,36,1625921379.0,32.000000
-55,7,35,1625921379.0,32.000000
-56,7,35,1625921379.0,32.000000
-56,6,35,1625921379.0,32.000000
-56,6,36,1625921379.0,32.000000
-56,6,36,1625921379.0,32.000000
-56,6,36,1625921379.0,32.000000
-55,6,36,1625921379.0,32.000000
-56,6,35,1625921379.0,32.000000
-55,7,36,1625921379.0,32.000000
-53,8,35,1625921379.0,32.000000
-55,7,36,1625921379.0,32.000000
-56,5,35,1625921379.0,32.000000
-56,6,36,1625921379.0,32.000000
-56,6,36,1625921379.0,32.000000
-56,6,36,1625921379.0,32.000000
-55,7,35,1625921379.0,32.000000
-57,7,34,1625921379.0,32.000000
-56,6,36,1625921379.0,32.000000
-55,6,37,1625921379.0,32.000000
-56,7,34,1625921379.0,32.000000
-57,6,34,1625921379.0,32.000000
-56,6,36,1625921379.0,32.000000
-55,5,36,1625921379.0,32.000000
-56,5,36,1625921379.0,32.000000
-55,7,35,1625921379.0,32.000000
-56,7,34,1625921379.0,32.000000
-56,5,35,1625921379.0,32.000000
-55,5,36,1625921379.0,32.000000
-56,5,36,1625921379.0,32.000000
-57,6,35,1625921379.0,32.000000
-57,6,36,1625921379.0,32.000000
-54,8,36,1625921379.0,32.000000
-57,7,34,1625921379.0,32.000000
-57,6,34,1625921379.0,32.000000
-56,5,36,1625921379.0,32.000000
-55,5,37,1625921379.0,32.000000
-56,6,35,1625921379.0,32.000000
-56,7,36,1625921379.0,32.000000
-54,7,36,1625921379.0,32.000000
-56,6,35,1625921379.0,32.000000
-56,6,35,1625921379.0,32.000000
-56,5,36,1625921379.0,32.000000
-55,5,36,1625921379.0,32.000000
-57,5,36,1625921379.0,32.000000
-55,6,37,1625921379.0,32.000000
-53,7,36,1625921379.0,32.000000
-56,7,35,1625921379.0,32.000000
-56,5,35,1625921379.0,32.000000
-56,5,36,1625921379.0,32.000000
-55,5,37,1625921379.0,32.000000
-56,5,36,1625921379.0,32.000000
-56,6,36,1625921379.0,32.000000
-56,7,35,1625921379.0,32.000000
-55,7,35,1625921379.0,32.000000
-56,5,35,1625921379.0,32.000000
-56,4,36,1625921379.0,32.000000
-54,5,37,1625921379.0,32.000000
-56,7,36,1625921379.0,32.000000
-56,6,35,1625921379.0,32.000000
-54,7,36,1625921379.0,32.000000
-54,7,36,1625921379.0,32.000000
-56,6,35,1625921379.0,32.000000
-55,5,36,1625921379.0,32.000000
-55,5,36,1625921379.0,32.000000
-56,6,36,1625921379.0,32.000000
-55,6,36,1625921379.0,32.000000
-55,7,36,1625921379.0,32.000000
-56,7,34,1625921379.0,32.000000
-56,6,35,1625921379.0,32.000000
-56,5,36,1625921379.0,32.000000
-54,5,37,1625921379.0,32.000000
-56,5,36,1625921379.0,32.000000
-56,6,36,1625921379.0,32.000000
-54,7,36,1625921379.0,32.000000
-56,7,36,1625921379.0,32.000000
-56,6,36,1625921379.0,32.000000
-56,5,36,1625921379.0,32.000000
-54,4,37,1625921379.0,32.000000
-57,4,36,1625921379.0,32.000000
-56,5,37,1625921379.0,32.000000
-55,7,36,1625921379.0,32.000000
-55,6,36,1625921379.0,32.000000
-55,6,37,1625921379.0,32.000000
-54,7,37,1625921379.0,32.000000
-55,6,37,1625921379.0,32.000000
-55,6,36,1625921379.0,32.000000
-54,6,37,1625921379.0,32.000000
-55,5,37,1625921379.0,32.000000
-55,6,37,1625921379.0,32.000000
-54,7,37,1625921379.0,32.000000
-55,5,37,1625921379.0,32.000000
-55,6,37,1625921379.0,32.000000
-55,6,38,1625921379.0,32.000000
-54,6,38,1625921379.0,32.000000
-55,6,36,1625921379.0,32.000000
-55,6,37,1625921379.0,32.000000
-55,6,37,1625921379.0,32.000000
-55,6,37,1625921379.0,32.000000
-55,6,37,1625921379.0,32.000000
-55,6,37,1625921379.0,32.000000
-55,5,36,1625921379.0,32.000000
-55,6,37,1625921379.0,32.000000
-55,6,37,1625921379.0,32.000000
-55,6,37,1625921379.0,32.000000
-55,6,36,1625921379.0,32.000000
-54,7,37,1625921379.0,32.000000
-53,6,37,1625921379.0,32.000000
-56,5,36,1625921379.0,32.000000
-56,5,37,1625921379.0,32.000000
-54,6,37,1625921379.0,32.000000
-56,5,36,1625921379.0,32.000000
-56,5,37,1625921379.0,32.000000
-56,5,37,1625921379.0,32.000000
-55,5,37,1625921379.0,32.000000
-55,5,36,1625921379.0,32.000000
-56,5,35,1625921379.0,32.000000
-56,5,36,1625921379.0,32.000000
-54,4,36,1625921379.0,32.000000
-57,4,36,1625921379.0,32.000000
-55,6,36,1625921379.0,32.000000
-56,5,35,1625921379.0,32.000000
-56,5,36,1625921379.0,32.000000
-55,5,37,1625921379.0,32.000000
-55,5,37,1625921379.0,32.000000
-55,5,36,1625921379.0,32.000000
-55,6,36,1625921379.0,32.000000
-56,6,36,1625921379.0,32.000000
-56,5,36,1625921379.0,32.000000
-56,5,36,1625921379.0,32.000000
-55,5,36,1625921379.0,32.000000
-56,5,36,1625921379.0,32.000000
-56,5,36,1625921379.0,32.000000
-55,6,36,1625921379.0,32.000000
-55,6,37,1625921379.0,32.000000
-55,5,36,1625921379.0,32.000000
-55,6,36,1625921379.0,32.000000
-55,5,37,1625921379.0,32.000000
-56,5,37,1625921379.0,32.000000
-55,5,36,1625921379.0,32.000000
-55,6,36,1625921379.0,32.000000
-57,4,36,1625921379.0,32.000000
-55,4,36,1625921379.0,32.000000
-55,4,36,1625921379.0,32.000000
-56,5,36,1625921379.0,32.000000
-56,5,36,1625921379.0,32.000000
-57,6,35,1625921379.0,32.000000
-55,6,35,1625921379.0,32.000000
-56,4,35,1625921379.0,32.000000
-56,4,35,1625921379.0,32.000000
-54,4,37,1625921379.0,32.000000
-55,5,36,1625921379.0,32.000000
-56,5,35,1625921379.0,32.000000
-57,8,34,1625921379.0,32.000000
-56,6,35,1625921379.0,32.000000
-56,4,36,1625921379.0,32.000000
-56,4,36,1625921379.0,32.000000
-54,4,37,1625921379.0,32.000000
-55,5,37,1625921379.0,32.000000
-56,6,35,1625921379.0,32.000000
-57,7,34,1625921379.0,32.000000
-56,6,35,1625921379.0,32.000000
-56,4,35,1625921379.0,32.000000
-55,3,36,1625921379.0,32.000000
-56,4,36,1625921379.0,32.000000
-55,5,36,1625921379.0,32.000000
-56,6,35,1625921379.0,32.000000
-56,7,35,1625921379.0,32.000000
-55,6,36,1625921379.0,32.000000
-56,5,36,1625921379.0,32.000000
-56,4,36,1625921379.0,32.000000
-56,4,36,1625921379.0,32.000000
-56,4,36,1625921379.0,32.000000
-56,5,36,1625921379.0,32.000000
-56,7,35,1625921379.0,32.000000
-57,7,35,1625921379.0,32.000000
-55,5,37,1625921379.0,32.000000
-54,4,39,1625921379.0,32.000000
-53,5,39,1625921379.0,32.000000
-56,6,36,1625921379.0,32.000000
-56,7,36,1625921379.0,32.000000
-55,7,36,1625921379.0,32.000000
-55,5,36,1625921379.0,32.000000
-55,4,37,1625921379.0,32.000000
-56,4,36,1625921379.0,32.000000
-56,5,36,1625921379.0,32.000000
-55,5,37,1625921379.0,32.000000
-55,7,36,1625921379.0,32.000000
-55,7,35,1625921379.0,32.000000
-56,4,36,1625921379.0,32.000000
-55,4,37,1625921379.0,32.000000
-54,5,37,1625921379.0,32.000000
-56,5,36,1625921379.0,32.000000
-55,5,37,1625921379.0,32.000000
-55,5,37,1625921379.0,32.000000
-56,5,37,1625921379.0,32.000000
-54,6,38,1625921379.0,32.000000
-53,7,37,1625921379.0,32.000000
-55,7,36,1625921379.0,32.000000
-54,5,37,1625921379.0,32.000000
-54,5,38,1625921379.0,32.000000
-54,6,38,1625921379.0,32.000000
-55,6,38,1625921379.0,32.000000
-55,6,37,1625921379.0,32.000000
-54,6,37,1625921379.0,32.000000
-55,5,37,1625921379.0,32.000000
-54,6,37,1625921379.0,32.000000
-55,6,36,1625921379.0,32.000000
-61,6,30,1625921379.0,32.000000
-55,4,40,1625921379.0,32.000000
-54,5,37,1625921379.0,32.000000
-57,6,35,1625921379.0,32.000000
-56,6,35,1625921379.0,32.000000
-55,5,38,1625921379.0,32.000000
-55,5,37,1625921379.0,32.000000
-55,5,37,1625921379.0,32.000000
-55,5,37,1625921379.0,32.000000
-56,5,37,1625921379.0,32.000000
-55,6,36,1625921379.0,32.000000
-56,7,35,1625921379.0,32.000000
-57,7,35,1625921379.0,32.000000
-55,5,37,1625921379.0,32.000000
-54,3,38,1625921379.0,32.000000
-54,3,38,1625921379.0,32.000000
-55,5,36,1625921379.0,32.000000
-55,6,36,1625921379.0,32.000000
-55,6,37,1625921379.0,32.000000
-55,5,37,1625921379.0,32.000000
-55,5,37,1625921379.0,32.000000
-54,5,37,1625921379.0,32.000000
-55,5,37,1625921379.0,32.000000
-55,5,36,1625921379.0,32.000000
-55,6,36,1625921379.0,32.000000
-55,6,36,1625921379.0,32.000000
-55,6,36,1625921379.0,32.000000
-55,6,36,1625921379.0,32.000000
-55,5,36,1625921379.0,32.000000
-55,5,37,1625921379.0,32.000000
-55,5,37,1625921379.0,32.000000
-55,5,37,1625921379.0,32.000000
-55,5,37,1625921379.0,32.000000
-55,5,37,1625921379.0,32.000000
-55,5,37,1625921379.0,32.000000
-55,5,37,1625921379.0,32.000000
-55,6,37,1625921379.0,32.000000
-55,5,36,1625921379.0,32.000000
-55,5,37,1625921379.0,32.000000
-55,5,37,1625921379.0,32.000000
-55,6,37,1625921379.0,32.000000
-55,5,37,1625921379.0,32.000000
-55,5,37,1625921379.0,32.000000
-55,5,37,1625921379.0,32.000000
-55,6,36,1625921379.0,32.000000
-55,6,37,1625921379.0,32.000000
-54,5,37,1625921379.0,32.000000
-54,5,37,1625921379.0,32.000000
-55,6,37,1625921379.0,32.000000
-55,5,37,1625921379.0,32.000000
-54,5,37,1625921379.0,32.000000
-55,5,37,1625921379.0,32.000000
-55,5,36,1625921379.0,32.000000
-55,6,37,1625921379.0,32.000000
-55,5,37,1625921379.0,32.000000
-55,5,37,1625921379.0,32.000000
-55,5,37,1625921379.0,32.000000
-55,5,37,1625921379.0,32.000000
-55,6,37,1625921379.0,32.000000
-54,5,37,1625921379.0,32.000000
-55,5,36,1625921379.0,32.000000
-56,5,36,1625921379.0,32.000000
-55,5,37,1625921379.0,32.000000
-55,5,37,1625921379.0,32.000000
-55,5,36,1625921379.0,32.000000
-55,5,37,1625921379.0,32.000000
-54,5,37,1625921379.0,32.000000
-54,5,38,1625921379.0,32.000000
-55,5,37,1625921379.0,32.000000
-58,6,34,1625921379.0,32.000000
-54,6,35,1625921379.0,32.000000
-55,5,37,1625921379.0,32.000000
-54,5,37,1625921379.0,32.000000
-55,4,37,1625921379.0,32.000000
-55,5,38,1625921379.0,32.000000
-55,5,38,1625921379.0,32.000000
-55,6,37,1625921379.0,32.000000
-55,6,37,1625921379.0,32.000000
-55,5,36,1625921379.0,32.000000
-55,5,38,1625921379.0,32.000000
-54,5,37,1625921379.0,32.000000
-55,6,36,1625921379.0,32.000000
-55,6,36,1625921379.0,32.000000
-53,5,39,1625921379.0,32.000000
-55,5,37,1625921379.0,32.000000
-55,5,36,1625921379.0,32.000000
-55,5,37,1625921379.0,32.000000
-55,6,37,1625921379.0,32.000000
-55,5,37,1625921379.0,32.000000
-54,5,37,1625921379.0,32.000000
-54,5,37,1625921379.0,32.000000
-55,5,37,1625921379.0,32.000000
-56,6,36,1625921379.0,32.000000
-55,6,37,1625921379.0,32.000000
-54,5,37,1625921379.0,32.000000
-55,5,37,1625921379.0,32.000000
-55,5,37,1625921379.0,32.000000
-55,6,36,1625921379.0,32.000000
-56,5,36,1625921379.0,32.000000
-55,5,37,1625921379.0,32.000000
-55,5,37,1625921379.0,32.000000
-55,5,36,1625921379.0,32.000000
-55,5,36,1625921379.0,32.000000
-56,5,36,1625921379.0,32.000000
-55,5,36,1625921379.0,32.000000
-56,5,36,1625921379.0,32.000000
-56,6,35,1625921379.0,32.000000
-55,5,36,1625921379.0,32.000000
-55,5,37,1625921379.0,32.000000
-55,5,37,1625921379.0,32.000000
-56,5,36,1625921379.0,32.000000
-56,5,35,1625921379.0,32.000000
-55,5,36,1625921379.0,32.000000
-56,5,36,1625921379.0,32.000000
-56,5,36,1625921379.0,32.000000
-55,5,36,1625921379.0,32.000000
-56,5,36,1625921379.0,32.000000
-56,5,37,1625921379.0,32.000000
-55,5,36,1625921379.0,32.000000
-55,5,36,1625921379.0,32.000000
-56,5,36,1625921379.0,32.000000
-55,5,36,1625921379.0,32.000000
-55,5,36,1625921379.0,32.000000
-55,5,37,1625921379.0,32.000000
-56,5,36,1625921379.0,32.000000
-56,5,35,1625921379.0,32.000000
-56,5,36,1625921379.0,32.000000
-55,6,35,1625921379.0,32.000000
-57,5,35,1625921379.0,32.000000
-55,5,37,1625921379.0,32.000000
-55,5,37,1625921379.0,32.000000
-56,5,36,1625921379.0,32.000000
-55,5,36,1625921379.0,32.000000
-56,5,36,1625921379.0,32.000000
-55,5,36,1625921379.0,32.000000
-55,5,36,1625921379.0,32.000000
-56,5,36,1625921379.0,32.000000
-55,5,36,1625921379.0,32.000000
-55,5,36,1625921379.0,32.000000
-55,5,36,1625921379.0,32.000000
-56,5,36,1625921379.0,32.000000
-56,5,36,1625921379.0,32.000000
-55,5,36,1625921379.0,32.000000
-55,5,36,1625921379.0,32.000000
-56,5,36,1625921379.0,32.000000
-55,5,36,1625921379.0,32.000000
-55,5,36,1625921379.0,32.000000
-55,5,36,1625921379.0,32.000000
-56,5,36,1625921379.0,32.000000
-55,5,37,1625921379.0,32.000000
-55,5,36,1625921379.0,32.000000
-56,5,36,1625921379.0,32.000000
-55,5,36,1625921379.0,32.000000
-55,5,37,1625921379.0,32.000000
-55,5,36,1625921379.0,32.000000
-55,6,36,1625921379.0,32.000000
-56,5,36,1625921379.0,32.000000
-56,5,36,1625921379.0,32.000000
-55,5,37,1625921379.0,32.000000
-55,4,36,1625921379.0,32.000000
-56,5,36,1625921379.0,32.000000
-56,6,37,1625921379.0,32.000000
-56,5,36,1625921379.0,32.000000
-56,5,36,1625921379.0,32.000000
-55,5,37,1625921379.0,32.000000
-56,5,36,1625921379.0,32.000000
-55,6,36,1625921379.0,32.000000
-56,5,36,1625921379.0,32.000000
-55,5,36,1625921379.0,32.000000
-55,5,37,1625921379.0,32.000000
-55,5,36,1625921379.0,32.000000
-56,5,36,1625921379.0,32.000000
-55,5,36,1625921379.0,32.000000
-55,5,36,1625921379.0,32.000000
-55,5,37,1625921379.0,32.000000
-55,5,36,1625921379.0,32.000000
-55,5,36,1625921379.0,32.000000
-55,5,37,1625921379.0,32.000000
-55,5,37,1625921379.0,32.000000
-55,5,36,1625921379.0,32.000000
-55,5,36,1625921379.0,32.000000
-55,5,37,1625921379.0,32.000000
-55,5,37,1625921379.0,32.000000
-55,5,37,1625921379.0,32.000000
-55,5,36,1625921379.0,32.000000
-55,5,36,1625921379.0,32.000000
-55,5,36,1625921379.0,32.000000
-55,5,37,1625921379.0,32.000000
-55,5,37,1625921379.0,32.000000
-55,5,37,1625921379.0,32.000000
-55,5,37,1625921379.0,32.000000
-55,5,37,1625921379.0,32.000000
-55,5,37,1625921379.0,32.000000
-55,5,37,1625921379.0,32.000000
-55,5,37,1625921379.0,32.000000
-55,5,37,1625921379.0,32.000000
-55,5,36,1625921379.0,32.000000
-55,5,36,1625921379.0,32.000000
-55,5,37,1625921379.0,32.000000
-55,5,37,1625921379.0,32.000000
-55,5,37,1625921379.0,32.000000
-55,5,37,1625921379.0,32.000000
-55,5,37,1625921379.0,32.000000
-55,5,37,1625921379.0,32.000000
-55,5,37,1625921379.0,32.000000
-55,5,36,1625921379.0,32.000000
-55,5,37,1625921379.0,32.000000
-54,5,37,1625921379.0,32.000000
-55,5,38,1625921379.0,32.000000
-55,5,36,1625921379.0,32.000000
-55,5,36,1625921379.0,32.000000
-55,5,36,1625921379.0,32.000000
-55,5,37,1625921379.0,32.000000
-55,5,36,1625921379.0,32.000000
-56,5,36,1625921379.0,32.000000
-55,5,36,1625921379.0,32.000000
-55,5,37,1625921379.0,32.000000
-55,5,37,1625921379.0,32.000000
-55,5,36,1625921379.0,32.000000
-55,5,37,1625921379.0,32.000000
-55,6,36,1625921379.0,32.000000
-55,5,36,1625921379.0,32.000000
-56,4,36,1625921379.0,32.000000
-56,4,37,1625921379.0,32.000000
-55,5,38,1625921379.0,32.000000
-55,6,36,1625921379.0,32.000000
-55,5,35,1625921379.0,32.000000
-56,4,36,1625921379.0,32.000000
-55,5,37,1625921379.0,32.000000
-55,5,36,1625921379.0,32.000000
-56,7,36,1625921379.0,32.000000
-55,7,36,1625921379.0,32.000000
-56,5,34,1625921379.0,32.000000
-56,5,35,1625921379.0,32.000000
-56,5,36,1625921379.0,32.000000
-55,5,36,1625921379.0,32.000000
-57,5,35,1625921379.0,32.000000
-55,7,36,1625921379.0,32.000000
-56,6,34,1625921379.0,32.000000
-57,5,34,1625921379.0,32.000000
-56,5,36,1625921379.0,32.000000
-55,5,37,1625921379.0,32.000000
-56,4,36,1625921379.0,32.000000
-57,5,35,1625921379.0,32.000000
-55,6,36,1625921379.0,32.000000
-56,6,34,1625921379.0,32.000000
-57,6,33,1625921379.0,32.000000
-57,5,34,1625921379.0,32.000000
-55,4,37,1625921379.0,32.000000
-55,4,38,1625921379.0,32.000000
-56,5,37,1625921379.0,32.000000
-56,6,35,1625921379.0,32.000000
-56,6,33,1625921379.0,32.000000
-56,5,35,1625921379.0,32.000000
-55,5,36,1625921379.0,32.000000
-54,4,39,1625921379.0,32.000000
-54,4,39,1625921379.0,32.000000
-55,5,38,1625921379.0,32.000000
-54,6,34,1625921379.0,32.000000
-56,6,34,1625921379.0,32.000000
-55,5,36,1625921379.0,32.000000
-54,5,37,1625921379.0,32.000000
-55,5,39,1625921379.0,32.000000
-55,5,38,1625921379.0,32.000000
-55,5,37,1625921379.0,32.000000
-55,7,34,1625921379.0,32.000000
-55,6,34,1625921379.0,32.000000
-55,4,38,1625921379.0,32.000000
-54,4,40,1625921379.0,32.000000
-55,5,38,1625921379.0,32.000000
-55,6,38,1625921379.0,32.000000
-55,6,37,1625921379.0,32.000000
-55,6,36,1625921379.0,32.000000
-55,6,36,1625921379.0,32.000000
-55,5,37,1625921379.0,32.000000
-55,5,39,1625921379.0,32.000000
-53,5,38,1625921379.0,32.000000
-57,6,35,1625921379.0,32.000000
-55,8,34,1625921379.0,32.000000
-56,7,34,1625921379.0,32.000000
-56,6,35,1625921379.0,32.000000
-56,7,36,1625921379.0,32.000000
-56,6,37,1625921379.0,32.000000
-55,6,35,1625921379.0,32.000000
-55,6,37,1625921379.0,32.000000
-55,7,35,1625921379.0,32.000000
-55,7,36,1625921379.0,32.000000
-54,7,37,1625921379.0,32.000000
-55,8,37,1625921379.0,32.000000
-54,8,36,1625921379.0,32.000000
-55,7,36,1625921379.0,32.000000
-54,7,37,1625921379.0,32.000000
-55,7,36,1625921379.0,32.000000
-55,7,36,1625921379.0,32.000000
-56,7,36,1625921379.0,32.000000
-55,7,36,1625921379.0,32.000000
-56,6,36,1625921379.0,32.000000
-56,6,35,1625921379.0,32.000000
-56,6,36,1625921379.0,32.000000
-55,7,36,1625921379.0,32.000000
-56,7,35,1625921379.0,32.000000
-57,7,35,1625921379.0,32.000000
-55,6,37,1625921379.0,32.000000
-55,6,36,1625921379.0,32.000000
-55,6,36,1625921379.0,32.000000
-55,7,36,1625921379.0,32.000000
-55,7,36,1625921379.0,32.000000
-55,7,36,1625921379.0,32.000000
-55,6,36,1625921379.0,32.000000
-55,6,36,1625921379.0,32.000000
-55,7,36,1625921379.0,32.000000
-55,7,36,1625921379.0,32.000000
-54,5,37,1625921379.0,32.000000
-57,7,35,1625921379.0,32.000000
-55,7,36,1625921379.0,32.000000
-55,6,37,1625921379.0,32.000000
-55,6,36,1625921379.0,32.000000
-55,6,36,1625921379.0,32.000000
-55,7,36,1625921379.0,32.000000
-56,7,35,1625921379.0,32.000000
-55,6,36,1625921379.0,32.000000
-55,6,36,1625921379.0,32.000000
-55,6,36,1625921379.0,32.000000
-55,7,36,1625921379.0,32.000000
-55,7,36,1625921379.0,32.000000
-55,6,36,1625921379.0,32.000000
-55,6,36,1625921379.0,32.000000
-55,7,36,1625921379.0,32.000000
-55,6,36,1625921379.0,32.000000
-55,7,36,1625921379.0,32.000000
-55,7,36,1625921379.0,32.000000
-55,6,35,1625921379.0,32.000000
-55,6,36,1625921379.0,32.000000
-55,6,36,1625921379.0,32.000000
-56,6,35,1625921379.0,32.000000
-55,7,35,1625921379.0,32.000000
-56,6,36,1625921379.0,32.000000
-55,5,37,1625921379.0,32.000000
-55,6,37,1625921379.0,32.000000
-56,6,36,1625921379.0,32.000000
-56,6,36,1625921379.0,32.000000
-55,6,36,1625921379.0,32.000000
-56,6,36,1625921379.0,32.000000
-55,6,36,1625921379.0,32.000000
-56,6,36,1625921379.0,32.000000
-55,7,36,1625921379.0,32.000000
-56,7,36,1625921379.0,32.000000
-55,7,36,1625921379.0,32.000000
-55,6,36,1625921379.0,32.000000
-55,6,37,1625921379.0,32.000000
-56,6,36,1625921379.0,32.000000
-56,7,36,1625921379.0,32.000000
-55,7,36,1625921379.0,32.000000
-55,6,36,1625921379.0,32.000000
-55,6,36,1625921379.0,32.000000
-55,6,36,1625921379.0,32.000000
-56,6,36,1625921379.0,32.000000
-55,6,36,1625921379.0,32.000000
-55,6,36,1625921379.0,32.000000
-55,7,36,1625921379.0,32.000000
-55,6,36,1625921379.0,32.000000
-55,6,37,1625921379.0,32.000000
-55,6,36,1625921379.0,32.000000
-55,6,36,1625921379.0,32.000000
-55,6,36,1625921379.0,32.000000
-55,6,37,1625921379.0,32.000000
-55,6,37,1625921379.0,32.000000
-55,6,36,1625921379.0,32.000000
-55,6,36,1625921379.0,32.000000
-55,6,37,1625921379.0,32.000000
-55,6,36,1625921379.0,32.000000
-55,6,36,1625921379.0,32.000000
-55,6,37,1625921379.0,32.000000
-55,6,36,1625921379.0,32.000000
-55,6,37,1625921379.0,32.000000
-55,6,36,1625921379.0,32.000000
-55,6,36,1625921379.0,32.000000
-55,6,37,1625921379.0,32.000000
-55,6,36,1625921379.0,32.000000
-55,6,36,1625921379.0,32.000000
-55,6,36,1625921379.0,32.000000
-55,6,36,1625921379.0,32.000000
-55,6,37,1625921379.0,32.000000
-55,6,37,1625921379.0,32.000000
-55,6,36,1625921379.0,32.000000
-55,6,36,1625921379.0,32.000000
-55,6,36,1625921379.0,32.000000
-55,6,37,1625921379.0,32.000000
-55,6,37,1625921379.0,32.000000
-55,6,36,1625921379.0,32.000000
-55,6,36,1625921379.0,32.000000
-55,6,36,1625921379.0,32.000000
-55,6,36,1625921379.0,32.000000
-55,6,37,1625921379.0,32.000000
-55,6,37,1625921379.0,32.000000
-55,6,37,1625921379.0,32.000000
-55,6,37,1625921379.0,32.000000
-55,6,37,1625921379.0,32.000000
-55,6,36,1625921379.0,32.000000
-55,6,37,1625921379.0,32.000000
-55,6,37,1625921379.0,32.000000
-55,6,36,1625921379.0,32.000000
-55,6,36,1625921379.0,32.000000
-55,6,37,1625921379.0,32.000000
-55,6,37,1625921379.0,32.000000
-55,6,36,1625921379.0,32.000000
-55,6,37,1625921379.0,32.000000
-55,6,37,1625921379.0,32.000000
-55,6,37,1625921379.0,32.000000
-55,6,37,1625921379.0,32.000000
-55,6,37,1625921379.0,32.000000
-55,6,37,1625921379.0,32.000000
-55,6,37,1625921379.0,32.000000
-55,6,37,1625921379.0,32.000000
-55,6,36,1625921379.0,32.000000
-55,6,36,1625921379.0,32.000000
-55,6,37,1625921379.0,32.000000
-55,6,37,1625921379.0,32.000000
-55,6,37,1625921379.0,32.000000
-55,6,37,1625921379.0,32.000000
-55,6,37,1625921379.0,32.000000
-55,6,37,1625921379.0,32.000000
-55,6,37,1625921379.0,32.000000
-55,6,37,1625921379.0,32.000000
-55,6,37,1625921379.0,32.000000
-55,6,37,1625921379.0,32.000000
-55,6,37,1625921379.0,32.000000
-55,6,37,1625921379.0,32.000000
-55,6,37,1625921379.0,32.000000
-55,6,36,1625921379.0,32.000000
-55,6,37,1625921379.0,32.000000
-55,6,37,1625921379.0,32.000000
-55,6,37,1625921379.0,32.000000
-55,6,37,1625921379.0,32.000000
-55,6,37,1625921379.0,32.000000
-55,6,37,1625921379.0,32.000000
-55,6,37,1625921379.0,32.000000
-55,6,37,1625921379.0,32.000000
-55,6,37,1625921379.0,32.000000
-55,6,37,1625921379.0,32.000000
-55,6,37,1625921379.0,32.000000
-54,6,37,1625921379.0,32.000000
-55,6,37,1625921379.0,32.000000
-55,6,36,1625921379.0,32.000000
-55,6,37,1625921379.0,32.000000
-55,6,37,1625921379.0,32.000000
-55,6,37,1625921379.0,32.000000
-55,6,37,1625921379.0,32.000000
-55,6,37,1625921379.0,32.000000
-55,6,37,1625921379.0,32.000000
-55,6,37,1625921379.0,32.000000
-55,6,37,1625921379.0,32.000000
-55,6,37,1625921379.0,32.000000
-55,6,37,1625921379.0,32.000000
-55,6,37,1625921379.0,32.000000
-54,6,37,1625921379.0,32.000000
-56,6,37,1625921379.0,32.000000
-56,6,35,1625921379.0,32.000000
-56,6,36,1625921379.0,32.000000
-55,6,37,1625921379.0,32.000000
-55,6,36,1625921379.0,32.000000
-55,6,36,1625921379.0,32.000000
-55,6,37,1625921379.0,32.000000
-55,6,37,1625921379.0,32.000000
-55,6,37,1625921379.0,32.000000
-55,6,37,1625921379.0,32.000000
-55,6,37,1625921379.0,32.000000
-55,6,37,1625921379.0,32.000000
-55,6,37,1625921379.0,32.000000
-55,6,37,1625921379.0,32.000000
-55,6,37,1625921379.0,32.000000
-55,6,37,1625921379.0,32.000000
-55,6,37,1625921379.0,32.000000
-55,6,37,1625921379.0,32.000000
-55,6,37,1625921379.0,32.000000
-55,6,37,1625921379.0,32.000000
-55,6,37,1625921379.0,32.000000
-55,6,37,1625921379.0,32.000000
-55,6,36,1625921379.0,32.000000
-55,6,37,1625921379.0,32.000000
-55,6,37,1625921379.0,32.000000
-55,6,37,1625921379.0,32.000000
-55,6,37,1625921379.0,32.000000
-55,6,37,1625921379.0,32.000000
-55,6,37,1625921379.0,32.000000
-55,6,37,1625921379.0,32.000000
-55,6,37,1625921379.0,32.000000
-55,6,36,1625921379.0,32.000000
-55,6,36,1625921379.0,32.000000
-55,6,37,1625921379.0,32.000000
-55,6,37,1625921379.0,32.000000
-55,6,36,1625921379.0,32.000000
-55,6,37,1625921379.0,32.000000
-55,6,37,1625921379.0,32.000000
-55,6,37,1625921379.0,32.000000
-55,6,37,1625921379.0,32.000000
-55,6,37,1625921379.0,32.000000
-55,6,37,1625921379.0,32.000000
-55,6,37,1625921379.0,32.000000
-55,6,37,1625921379.0,32.000000
-55,6,37,1625921379.0,32.000000
-55,6,37,1625921379.0,32.000000
-55,6,37,1625921379.0,32.000000
-55,6,37,1625921379.0,32.000000
-55,6,37,1625921379.0,32.000000
-55,6,37,1625921379.0,32.000000
-55,6,37,1625921379.0,32.000000
-55,6,36,1625921379.0,32.000000
-55,6,37,1625921379.0,32.000000
-55,6,37,1625921379.0,32.000000
-55,6,37,1625921379.0,32.000000
-55,6,37,1625921379.0,32.000000
-55,6,37,1625921379.0,32.000000
-55,6,37,1625921379.0,32.000000
-55,6,37,1625921379.0,32.000000
-55,6,37,1625921379.0,32.000000
-55,6,37,1625921379.0,32.000000
-55,6,37,1625921379.0,32.000000
-55,6,36,1625921379.0,32.000000
-55,6,37,1625921379.0,32.000000
-55,6,37,1625921379.0,32.000000
-55,6,36,1625921379.0,32.000000
-55,6,37,1625921379.0,32.000000
-55,6,37,1625921379.0,32.000000
-55,6,37,1625921379.0,32.000000
-55,6,37,1625921379.0,32.000000
-55,6,37,1625921379.0,32.000000
-54,6,37,1625921379.0,32.000000
-55,6,37,1625921379.0,32.000000
-55,6,37,1625921379.0,32.000000
-55,6,37,1625921379.0,32.000000
-55,6,37,1625921379.0,32.000000
-55,6,37,1625921379.0,32.000000
-55,6,37,1625921379.0,32.000000
-55,6,36,1625921379.0,32.000000
-55,6,37,1625921379.0,32.000000
-55,6,37,1625921379.0,32.000000
-55,6,37,1625921379.0,32.000000
-55,6,36,1625921379.0,32.000000
-55,6,37,1625921379.0,32.000000
-55,6,37,1625921379.0,32.000000
-55,6,36,1625921379.0,32.000000
-55,6,37,1625921379.0,32.000000
-55,6,37,1625921379.0,32.000000
-55,6,36,1625921379.0,32.000000
-55,6,36,1625921379.0,32.000000
-55,6,36,1625921379.0,32.000000
-55,6,37,1625921379.0,32.000000
-55,6,36,1625921379.0,32.000000
-55,6,37,1625921379.0,32.000000
-55,6,36,1625921379.0,32.000000
-55,6,36,1625921379.0,32.000000
-55,6,36,1625921379.0,32.000000
-55,6,36,1625921379.0,32.000000
-55,6,36,1625921379.0,32.000000
-55,6,36,1625921379.0,32.000000
-55,6,36,1625921379.0,32.000000
-55,6,36,1625921379.0,32.000000
-55,6,36,1625921379.0,32.000000
-55,6,36,1625921379.0,32.000000
-55,6,36,1625921379.0,32.000000
-55,6,36,1625921379.0,32.000000
-55,6,36,1625921379.0,32.000000
-55,6,36,1625921379.0,32.000000
-55,6,36,1625921379.0,32.000000
-55,6,36,1625921379.0,32.000000
-55,6,36,1625921379.0,32.000000
-56,6,36,1625921379.0,32.000000
-55,6,36,1625921379.0,32.000000
-56,6,36,1625921379.0,32.000000
-55,6,36,1625921379.0,32.000000
-56,6,36,1625921379.0,32.000000
-56,6,36,1625921379.0,32.000000
-55,6,36,1625921379.0,32.000000
-55,6,36,1625921379.0,32.000000
-55,6,36,1625921379.0,32.000000
-56,6,36,1625921379.0,32.000000
-55,6,36,1625921379.0,32.000000
-55,6,36,1625921379.0,32.000000
-56,6,36,1625921379.0,32.000000
-55,6,36,1625921379.0,32.000000
-55,6,36,1625921379.0,32.000000
-55,6,36,1625921379.0,32.000000
-55,6,36,1625921379.0,32.000000
-55,6,36,1625921379.0,32.000000
-56,6,36,1625921379.0,32.000000
-56,6,36,1625921379.0,32.000000
-56,6,36,1625921379.0,32.000000
-55,6,36,1625921379.0,32.000000
-55,6,35,1625921379.0,32.000000
-55,6,36,1625921379.0,32.000000
-55,6,36,1625921379.0,32.000000
-55,6,36,1625921379.0,32.000000
-55,7,35,1625921379.0,32.000000
-57,6,33,1625921379.0,32.000000
-55,6,37,1625921379.0,32.000000
-55,6,37,1625921379.0,32.000000
-56,6,35,1625921379.0,32.000000
-55,6,36,1625921379.0,32.000000
-55,6,36,1625921379.0,32.000000
-56,6,36,1625921379.0,32.000000
-55,6,36,1625921379.0,32.000000
-56,6,36,1625921379.0,32.000000
-55,6,36,1625921379.0,32.000000
-55,6,36,1625921379.0,32.000000
-55,6,36,1625921379.0,32.000000
-56,6,36,1625921379.0,32.000000
-55,6,36,1625921379.0,32.000000
-55,6,36,1625921379.0,32.000000
-55,6,36,1625921379.0,32.000000
-55,6,36,1625921379.0,32.000000
-55,6,36,1625921379.0,32.000000
-55,6,36,1625921379.0,32.000000
-56,6,36,1625921379.0,32.000000
-55,6,36,1625921379.0,32.000000
-55,6,36,1625921379.0,32.000000
-55,6,36,1625921379.0,32.000000
-55,6,36,1625921379.0,32.000000
-55,6,36,1625921379.0,32.000000
-56,7,36,1625921379.0,32.000000
-55,6,37,1625921379.0,32.000000
-55,6,37,1625921379.0,32.000000
-55,6,36,1625921379.0,32.000000
-56,6,36,1625921379.0,32.000000
-55,6,36,1625921379.0,32.000000
-55,6,37,1625921379.0,32.000000
-56,6,36,1625921379.0,32.000000
-56,6,36,1625921379.0,32.000000
-55,6,36,1625921379.0,32.000000
-55,6,36,1625921379.0,32.000000
-55,6,37,1625921379.0,32.000000
-55,6,37,1625921379.0,32.000000
-55,6,37,1625921379.0,32.000000
-54,5,36,1625921379.0,32.000000
-55,6,36,1625921379.0,32.000000
-55,6,35,1625921379.0,32.000000
-55,6,37,1625921379.0,32.000000
-55,6,36,1625921379.0,32.000000
-55,6,36,1625921379.0,32.000000
-55,5,36,1625921379.0,32.000000
-56,6,36,1625921379.0,32.000000
-55,6,37,1625921379.0,32.000000
-55,6,36,1625921379.0,32.000000
-56,6,36,1625921379.0,32.000000
-55,6,36,1625921379.0,32.000000
-56,6,36,1625921379.0,32.000000
-55,6,36,1625921379.0,32.000000
-56,6,35,1625921379.0,32.000000
-55,6,37,1625921379.0,32.000000
-56,6,36,1625921379.0,32.000000
-56,6,36,1625921379.0,32.000000
-56,6,36,1625921379.0,32.000000
-55,5,36,1625921379.0,32.000000
-56,5,36,1625921379.0,32.000000
-55,5,36,1625921379.0,32.000000
-55,6,36,1625921379.0,32.000000
-54,6,38,1625921379.0,32.000000
-55,6,36,1625921379.0,32.000000
-57,6,35,1625921379.0,32.000000
-55,6,36,1625921379.0,32.000000
-55,6,37,1625921379.0,32.000000
-56,6,36,1625921379.0,32.000000
-55,6,36,1625921379.0,32.000000
-54,6,37,1625921379.0,32.000000
-55,6,36,1625921379.0,32.000000
-55,6,36,1625921379.0,32.000000
-54,6,37,1625921379.0,32.000000
-54,6,37,1625921379.0,32.000000
-55,6,37,1625921379.0,32.000000
-55,6,37,1625921379.0,32.000000
-55,6,36,1625921379.0,32.000000
-56,6,36,1625921379.0,32.000000
-54,6,36,1625921379.0,32.000000
-54,5,37,1625921379.0,32.000000
-54,5,37,1625921379.0,32.000000
-54,6,37,1625921379.0,32.000000
-55,6,37,1625921379.0,32.000000
-55,6,37,1625921379.0,32.000000
-55,6,36,1625921379.0,32.000000
-55,5,36,1625921379.0,32.000000
-55,5,37,1625921379.0,32.000000
-55,6,37,1625921379.0,32.000000
-54,6,38,1625921379.0,32.000000
-55,5,36,1625921379.0,32.000000
-55,6,37,1625921379.0,32.000000
-55,6,36,1625921379.0,32.000000
-55,6,36,1625921379.0,32.000000
-55,6,37,1625921379.0,32.000000
-55,5,37,1625921379.0,32.000000
-55,6,37,1625921379.0,32.000000
-55,6,36,1625921379.0,32.000000
-55,6,36,1625921379.0,32.000000
-55,6,37,1625921379.0,32.000000
-55,6,36,1625921379.0,32.000000
-55,6,36,1625921379.0,32.000000
-55,6,37,1625921379.0,32.000000
-55,5,37,1625921379.0,32.000000
-56,6,37,1625921379.0,32.000000
-55,6,36,1625921379.0,32.000000
-55,6,36,1625921379.0,32.000000
-55,6,37,1625921379.0,32.000000
-55,6,37,1625921379.0,32.000000
-55,6,36,1625921379.0,32.000000
-56,6,36,1625921379.0,32.000000
-55,6,36,1625921379.0,32.000000
-55,6,36,1625921379.0,32.000000
-55,6,36,1625921379.0,32.000000
-55,6,36,1625921379.0,32.000000
-55,6,37,1625921379.0,32.000000
-55,6,36,1625921379.0,32.000000
-55,6,36,1625921379.0,32.000000
-55,6,36,1625921379.0,32.000000
-55,6,37,1625921379.0,32.000000
-56,6,36,1625921379.0,32.000000
-55,6,36,1625921379.0,32.000000
-55,6,36,1625921379.0,32.000000
-55,5,36,1625921379.0,32.000000
-55,6,36,1625921379.0,32.000000
-55,6,36,1625921379.0,32.000000
-55,6,37,1625921379.0,32.000000
-55,6,37,1625921379.0,32.000000
-55,6,36,1625921379.0,32.000000
-55,6,37,1625921379.0,32.000000
-55,6,37,1625921379.0,32.000000
-55,6,37,1625921379.0,32.000000
-55,6,36,1625921379.0,32.000000
-55,6,36,1625921379.0,32.000000
-55,6,36,1625921379.0,32.000000
-54,6,37,1625921379.0,32.000000
-55,6,36,1625921379.0,32.000000
-55,5,37,1625921379.0,32.000000
-55,6,37,1625921379.0,32.000000
-55,6,37,1625921379.0,32.000000
-55,6,36,1625921379.0,32.000000
-55,6,37,1625921379.0,32.000000
-55,6,37,1625921379.0,32.000000
-55,6,37,1625921379.0,32.000000
-55,6,37,1625921379.0,32.000000
-55,6,37,1625921379.0,32.000000
-54,6,37,1625921379.0,32.000000
-56,6,35,1625921379.0,32.000000
-55,6,37,1625921379.0,32.000000
-54,6,37,1625921379.0,32.000000
-55,6,36,1625921379.0,32.000000
-55,6,36,1625921379.0,32.000000
-55,6,37,1625921379.0,32.000000
-55,6,36,1625921379.0,32.000000
-55,6,36,1625921379.0,32.000000
-55,6,37,1625921379.0,32.000000
-55,6,37,1625921379.0,32.000000
-55,6,36,1625921379.0,32.000000
-55,6,36,1625921379.0,32.000000
-55,6,36,1625921379.0,32.000000
-55,6,37,1625921379.0,32.000000
-55,6,37,1625921379.0,32.000000
-55,6,37,1625921379.0,32.000000
-55,6,37,1625921379.0,32.000000
-55,6,37,1625921379.0,32.000000
-55,6,37,1625921379.0,32.000000
-55,6,37,1625921379.0,32.000000
-56,6,36,1625921379.0,32.000000
-55,6,36,1625921379.0,32.000000
-55,6,37,1625921379.0,32.000000
-55,6,37,1625921379.0,32.000000
-55,5,36,1625921379.0,32.000000
-55,6,36,1625921379.0,32.000000
-55,6,37,1625921379.0,32.000000
-55,6,37,1625921379.0,32.000000
-55,6,37,1625921379.0,32.000000
-55,6,36,1625921379.0,32.000000
-55,6,37,1625921379.0,32.000000
-55,6,37,1625921379.0,32.000000
-55,6,37,1625921379.0,32.000000
-55,6,36,1625921379.0,32.000000
-55,6,36,1625921379.0,32.000000
-55,6,36,1625921379.0,32.000000
-55,6,36,1625921379.0,32.000000
-55,6,36,1625921379.0,32.000000
-55,6,37,1625921379.0,32.000000
-55,6,36,1625921379.0,32.000000
-55,6,36,1625921379.0,32.000000
-55,6,36,1625921379.0,32.000000
-54,6,37,1625921379.0,32.000000
-56,6,36,1625921379.0,32.000000
-55,6,36,1625921379.0,32.000000
-55,6,37,1625921379.0,32.000000
-55,6,36,1625921379.0,32.000000
-55,6,37,1625921379.0,32.000000
-55,6,37,1625921379.0,32.000000
-55,6,37,1625921379.0,32.000000
-55,6,37,1625921379.0,32.000000
-55,6,37,1625921379.0,32.000000
-56,6,37,1625921379.0,32.000000
-55,6,37,1625921379.0,32.000000
-55,6,37,1625921379.0,32.000000
-55,6,37,1625921379.0,32.000000
-55,6,37,1625921379.0,32.000000
-55,5,37,1625921379.0,32.000000
-55,5,36,1625921379.0,32.000000
-55,6,37,1625921379.0,32.000000
-56,6,36,1625921379.0,32.000000
-56,6,36,1625921379.0,32.000000
-55,6,37,1625921379.0,32.000000
-55,6,37,1625921379.0,32.000000
-55,6,37,1625921379.0,32.000000
-55,6,36,1625921379.0,32.000000
-55,6,36,1625921379.0,32.000000
-55,6,37,1625921379.0,32.000000
-55,6,37,1625921379.0,32.000000
-55,6,37,1625921379.0,32.000000
-55,6,37,1625921379.0,32.000000
-55,6,37,1625921379.0,32.000000
-55,6,37,1625921379.0,32.000000
-55,6,37,1625921379.0,32.000000
-55,6,37,1625921379.0,32.000000
-55,6,37,1625921379.0,32.000000
-55,6,37,1625921379.0,32.000000
-55,6,36,1625921379.0,32.000000
-55,6,37,1625921379.0,32.000000
-55,6,36,1625921379.0,32.000000
-55,6,36,1625921379.0,32.000000
-55,6,37,1625921379.0,32.000000
-55,6,36,1625921379.0,32.000000
-54,6,37,1625921379.0,32.000000
-56,6,37,1625921379.0,32.000000
-55,6,36,1625921379.0,32.000000
-55,6,37,1625921379.0,32.000000
-54,5,37,1625921379.0,32.000000
-55,6,37,1625921379.0,32.000000
-55,6,36,1625921379.0,32.000000
-55,6,37,1625921379.0,32.000000
-54,5,37,1625921379.0,32.000000
-55,6,37,1625921379.0,32.000000
-55,6,37,1625921379.0,32.000000
-55,6,37,1625921379.0,32.000000
-55,6,36,1625921379.0,32.000000
-55,6,37,1625921379.0,32.000000
-55,6,37,1625921379.0,32.000000
-55,6,37,1625921379.0,32.000000
-55,6,37,1625921379.0,32.000000
-55,6,36,1625921379.0,32.000000
-55,6,37,1625921379.0,32.000000
-55,6,37,1625921379.0,32.000000
-55,6,37,1625921379.0,32.000000
-55,6,37,1625921379.0,32.000000
-55,6,37,1625921379.0,32.000000
-55,6,37,1625921379.0,32.000000
-55,6,37,1625921379.0,32.000000
-55,6,37,1625921379.0,32.000000
-55,6,37,1625921379.0,32.000000
-55,6,37,1625921379.0,32.000000
-56,6,36,1625921379.0,32.000000
-55,6,36,1625921379.0,32.000000
-54,6,37,1625921379.0,32.000000
-56,6,36,1625921379.0,32.000000
-54,6,37,1625921379.0,32.000000
-55,6,37,1625921379.0,32.000000
-55,6,36,1625921379.0,32.000000
-55,6,37,1625921379.0,32.000000
-55,6,37,1625921379.0,32.000000
-55,6,37,1625921379.0,32.000000
-55,6,37,1625921379.0,32.000000
-54,6,37,1625921379.0,32.000000
-55,6,37,1625921379.0,32.000000
-55,6,36,1625921379.0,32.000000
-55,6,36,1625921379.0,32.000000
-55,6,36,1625921379.0,32.000000
-55,5,37,1625921379.0,32.000000
-55,6,36,1625921379.0,32.000000
-55,6,36,1625921379.0,32.000000
-55,6,37,1625921379.0,32.000000
-55,6,36,1625921379.0,32.000000
-55,6,36,1625921379.0,32.000000
-55,6,36,1625921379.0,32.000000
-55,6,36,1625921379.0,32.000000
-55,6,37,1625921379.0,32.000000
-55,6,36,1625921379.0,32.000000
-55,6,36,1625921379.0,32.000000
-55,6,36,1625921379.0,32.000000
-55,6,36,1625921379.0,32.000000
-55,6,36,1625921379.0,32.000000
-55,6,36,1625921379.0,32.000000
-55,6,37,1625921379.0,32.000000
-55,6,36,1625921379.0,32.000000
-55,6,36,1625921379.0,32.000000
-55,6,36,1625921379.0,32.000000
-55,6,37,1625921379.0,32.000000
-55,6,36,1625921379.0,32.000000
-55,6,36,1625921379.0,32.000000
-55,6,37,1625921379.0,32.000000
-55,6,37,1625921379.0,32.000000
-55,6,36,1625921379.0,32.000000
-55,6,37,1625921379.0,32.000000
-55,6,36,1625921379.0,32.000000
-55,6,37,1625921379.0,32.000000
-55,6,37,1625921379.0,32.000000
-55,6,36,1625921379.0,32.000000
-55,6,36,1625921379.0,32.000000
-55,6,37,1625921379.0,32.000000
-55,6,36,1625921379.0,32.000000
-55,6,36,1625921379.0,32.000000
-55,6,37,1625921379.0,32.000000
-55,6,36,1625921379.0,32.000000
-55,6,36,1625921379.0,32.000000
-55,6,37,1625921379.0,32.000000
-55,6,37,1625921379.0,32.000000
-55,6,36,1625921379.0,32.000000
-55,6,36,1625921379.0,32.000000
-55,6,36,1625921379.0,32.000000
-55,6,37,1625921379.0,32.000000
-55,6,36,1625921379.0,32.000000
-55,6,36,1625921379.0,32.000000
-55,6,37,1625921379.0,32.000000
-55,6,36,1625921379.0,32.000000
-55,6,36,1625921379.0,32.000000
-55,6,37,1625921379.0,32.000000
-55,6,36,1625921379.0,32.000000
-55,6,36,1625921379.0,32.000000
-55,6,37,1625921379.0,32.000000
-55,6,36,1625921379.0,32.000000
-55,6,37,1625921379.0,32.000000
-55,6,37,1625921379.0,32.000000
-55,6,37,1625921379.0,32.000000
-55,6,37,1625921379.0,32.000000
-55,6,36,1625921379.0,32.000000
-55,6,37,1625921379.0,32.000000
-55,6,36,1625921379.0,32.000000
-55,6,37,1625921379.0,32.000000
-55,6,37,1625921379.0,32.000000
-55,6,36,1625921379.0,32.000000
-55,6,36,1625921379.0,32.000000
-55,6,37,1625921379.0,32.000000
-54,5,37,1625921379.0,32.000000
-58,6,34,1625921379.0,32.000000
-56,7,37,1625921379.0,32.000000
-54,6,37,1625921379.0,32.000000
-55,5,37,1625921379.0,32.000000
-55,6,37,1625921379.0,32.000000
-55,6,37,1625921379.0,32.000000
-55,6,37,1625921379.0,32.000000
-55,6,36,1625921379.0,32.000000
-55,6,37,1625921379.0,32.000000
-55,6,37,1625921379.0,32.000000
-55,6,36,1625921379.0,32.000000
-55,6,36,1625921379.0,32.000000
-55,6,37,1625921379.0,32.000000
-55,6,37,1625921379.0,32.000000
-57,5,36,1625921379.0,32.000000
-54,6,36,1625921379.0,32.000000
-55,6,37,1625921379.0,32.000000
-55,6,37,1625921379.0,32.000000
-55,6,37,1625921379.0,32.000000
-54,6,37,1625921379.0,32.000000
-54,5,38,1625921379.0,32.000000
-55,6,37,1625921379.0,32.000000
-55,6,37,1625921379.0,32.000000
-54,5,37,1625921379.0,32.000000
-55,6,37,1625921379.0,32.000000
-55,6,37,1625921379.0,32.000000
-54,6,38,1625921379.0,32.000000
-55,5,37,1625921379.0,32.000000
-55,6,36,1625921379.0,32.000000
-55,6,37,1625921379.0,32.000000
-55,6,36,1625921379.0,32.000000
-55,6,37,1625921379.0,32.000000
-55,6,37,1625921379.0,32.000000
-56,5,36,1625921379.0,32.000000
-56,6,36,1625921379.0,32.000000
-55,6,37,1625921379.0,32.000000
-54,5,38,1625921379.0,32.000000
-55,6,37,1625921379.0,32.000000
-55,6,37,1625921379.0,32.000000
-55,6,37,1625921379.0,32.000000
-56,6,36,1625921379.0,32.000000
-55,6,37,1625921379.0,32.000000
-55,6,37,1625921379.0,32.000000
-55,5,37,1625921379.0,32.000000
-55,6,37,1625921379.0,32.000000
-55,5,37,1625921379.0,32.000000
-52,6,38,1625921379.0,32.000000
-54,6,37,1625921379.0,32.000000
-55,6,37,1625921379.0,32.000000
-55,6,37,1625921379.0,32.000000
-54,6,37,1625921379.0,32.000000
-55,6,36,1625921379.0,32.000000
-55,6,37,1625921379.0,32.000000
-55,6,37,1625921379.0,32.000000
-55,6,37,1625921379.0,32.000000
-55,6,36,1625921379.0,32.000000
-56,5,37,1625921379.0,32.000000
-55,6,37,1625921379.0,32.000000
-54,6,37,1625921379.0,32.000000
-56,6,35,1625921379.0,32.000000
-54,6,37,1625921379.0,32.000000
-53,6,38,1625921379.0,32.000000
-54,5,37,1625921379.0,32.000000
-55,6,37,1625921379.0,32.000000
-55,6,37,1625921379.0,32.000000
-55,6,37,1625921379.0,32.000000
-55,6,37,1625921379.0,32.000000
-55,6,37,1625921379.0,32.000000
-55,6,37,1625921379.0,32.000000
-56,5,37,1625921379.0,32.000000
-54,6,37,1625921379.0,32.000000
-55,6,37,1625921379.0,32.000000
-55,6,37,1625921379.0,32.000000
-55,6,37,1625921379.0,32.000000
-55,6,36,1625921379.0,32.000000
-54,5,38,1625921379.0,32.000000
-55,6,37,1625921379.0,32.000000
-55,6,37,1625921379.0,32.000000
-55,6,36,1625921379.0,32.000000
-54,6,38,1625921379.0,32.000000
-55,6,36,1625921379.0,32.000000
-55,6,37,1625921379.0,32.000000
-55,6,37,1625921379.0,32.000000
-55,5,36,1625921379.0,32.000000
-55,6,37,1625921379.0,32.000000
-55,6,37,1625921379.0,32.000000
-55,6,37,1625921379.0,32.000000
-55,6,37,1625921379.0,32.000000
-55,6,37,1625921379.0,32.000000
-55,6,37,1625921379.0,32.000000
-55,6,37,1625921379.0,32.000000
-55,6,37,1625921379.0,32.000000
-55,6,36,1625921379.0,32.000000
-55,6,37,1625921379.0,32.000000
-55,6,37,1625921379.0,32.000000
-55,6,36,1625921379.0,32.000000
-54,6,37,1625921379.0,32.000000
-55,6,36,1625921379.0,32.000000
-55,6,37,1625921379.0,32.000000
-55,6,37,1625921379.0,32.000000
-55,6,37,1625921379.0,32.000000
-55,6,37,1625921379.0,32.000000
-55,5,37,1625921379.0,32.000000
-55,6,37,1625921379.0,32.000000
-56,6,35,1625921379.0,32.000000
-54,6,37,1625921379.0,32.000000
-55,5,37,1625921379.0,32.000000
-55,6,37,1625921379.0,32.000000
-55,6,36,1625921379.0,32.000000
-55,6,37,1625921379.0,32.000000
-55,6,37,1625921379.0,32.000000
-55,6,37,1625921379.0,32.000000
-55,6,37,1625921379.0,32.000000
-55,6,37,1625921379.0,32.000000
-55,6,37,1625921379.0,32.000000
-55,6,37,1625921379.0,32.000000
-55,6,37,1625921379.0,32.000000
-55,6,37,1625921379.0,32.000000
-55,6,37,1625921379.0,32.000000
-55,6,36,1625921379.0,32.000000
-55,6,37,1625921379.0,32.000000
-54,6,37,1625921379.0,32.000000
-56,6,36,1625921379.0,32.000000
-55,5,38,1625921379.0,32.000000
-55,6,37,1625921379.0,32.000000
-55,6,37,1625921379.0,32.000000
-55,6,37,1625921379.0,32.000000
-55,6,37,1625921379.0,32.000000
-55,6,37,1625921379.0,32.000000
-55,6,37,1625921379.0,32.000000
-55,6,37,1625921379.0,32.000000
-54,6,37,1625921379.0,32.000000
-55,6,37,1625921379.0,32.000000
-55,6,37,1625921379.0,32.000000
-55,5,37,1625921379.0,32.000000
-55,6,37,1625921379.0,32.000000
-55,6,37,1625921379.0,32.000000
-55,6,37,1625921379.0,32.000000
-55,6,37,1625921379.0,32.000000
-55,6,37,1625921379.0,32.000000
-55,6,37,1625921379.0,32.000000
-55,6,37,1625921379.0,32.000000
-55,6,37,1625921379.0,32.000000
-55,6,37,1625921379.0,32.000000
-55,6,37,1625921379.0,32.000000
-54,6,37,1625921379.0,32.000000
-55,6,37,1625921379.0,32.000000
-55,6,37,1625921379.0,32.000000
-54,6,37,1625921379.0,32.000000
-55,6,37,1625921379.0,32.000000
-55,6,37,1625921379.0,32.000000
-55,6,37,1625921379.0,32.000000
-54,6,36,1625921379.0,32.000000
-55,5,37,1625921379.0,32.000000
-56,5,37,1625921379.0,32.000000
-55,6,37,1625921379.0,32.000000
-55,6,37,1625921379.0,32.000000
-54,6,37,1625921379.0,32.000000
-54,6,38,1625921379.0,32.000000
-55,6,37,1625921379.0,32.000000
-54,6,37,1625921379.0,32.000000
-54,5,37,1625921379.0,32.000000
-55,6,37,1625921379.0,32.000000
-54,6,37,1625921379.0,32.000000
-55,6,37,1625921379.0,32.000000
-55,6,37,1625921379.0,32.000000
-54,6,37,1625921379.0,32.000000
-54,6,37,1625921379.0,32.000000
-55,6,37,1625921379.0,32.000000
-54,6,38,1625921379.0,32.000000
-54,6,37,1625921379.0,32.000000
-55,6,37,1625921379.0,32.000000
-55,6,37,1625921379.0,32.000000
-55,6,37,1625921379.0,32.000000
-54,6,37,1625921379.0,32.000000
-55,6,37,1625921379.0,32.000000
-55,6,37,1625921379.0,32.000000
-55,6,37,1625921379.0,32.000000
-55,6,37,1625921379.0,32.000000
-55,6,37,1625921379.0,32.000000
-54,6,38,1625921379.0,32.000000
-55,6,37,1625921379.0,32.000000
-55,6,37,1625921379.0,32.000000
-55,6,37,1625921379.0,32.000000
-54,6,37,1625921379.0,32.000000
-55,6,37,1625921379.0,32.000000
-55,6,37,1625921379.0,32.000000
-55,6,37,1625921379.0,32.000000
-55,6,37,1625921379.0,32.000000
-54,6,37,1625921379.0,32.000000
-55,6,37,1625921379.0,32.000000
-54,6,37,1625921379.0,32.000000
-55,6,37,1625921379.0,32.000000
-55,5,37,1625921379.0,32.000000
-55,5,37,1625921379.0,32.000000
-55,6,37,1625921379.0,32.000000
-55,6,37,1625921379.0,32.000000
-54,6,38,1625921379.0,32.000000
-55,6,37,1625921379.0,32.000000
-55,6,36,1625921379.0,32.000000
-54,6,38,1625921379.0,32.000000
-54,6,37,1625921379.0,32.000000
-55,6,37,1625921379.0,32.000000
-54,6,37,1625921379.0,32.000000
-55,6,37,1625921379.0,32.000000
-55,6,37,1625921379.0,32.000000
-55,6,37,1625921379.0,32.000000
-55,6,37,1625921379.0,32.000000
-55,6,37,1625921379.0,32.000000
-54,5,38,1625921379.0,32.000000
-55,6,37,1625921379.0,32.000000
-55,6,37,1625921379.0,32.000000
-55,6,37,1625921379.0,32.000000
-55,5,37,1625921379.0,32.000000
-54,6,38,1625921379.0,32.000000
-55,6,36,1625921379.0,32.000000
-55,6,36,1625921379.0,32.000000
-54,6,37,1625921379.0,32.000000
-55,6,37,1625921379.0,32.000000
-55,5,37,1625921379.0,32.000000
-55,6,37,1625921379.0,32.000000
-55,6,37,1625921379.0,32.000000
-55,6,37,1625921379.0,32.000000
-54,6,37,1625921379.0,32.000000
-55,6,37,1625921379.0,32.000000
-55,6,36,1625921379.0,32.000000
-55,6,37,1625921379.0,32.000000
-55,6,37,1625921379.0,32.000000
-55,6,37,1625921379.0,32.000000
-55,5,37,1625921379.0,32.000000
-55,6,36,1625921379.0,32.000000
-55,6,36,1625921379.0,32.000000
-54,5,37,1625921379.0,32.000000
-55,6,37,1625921379.0,32.000000
-55,6,37,1625921379.0,32.000000
-54,6,37,1625921379.0,32.000000
-55,6,37,1625921379.0,32.000000
-55,6,37,1625921379.0,32.000000
-55,5,37,1625921379.0,32.000000
-55,5,37,1625921379.0,32.000000
-55,6,37,1625921379.0,32.000000
-54,6,37,1625921379.0,32.000000
-55,5,37,1625921379.0,32.000000
-55,6,36,1625921379.0,32.000000
-55,6,37,1625921379.0,32.000000
-55,6,37,1625921379.0,32.000000
-55,6,37,1625921379.0,32.000000
-55,6,36,1625921379.0,32.000000
-55,6,37,1625921379.0,32.000000
-55,6,37,1625921379.0,32.000000
-55,6,37,1625921379.0,32.000000
-55,6,37,1625921379.0,32.000000
-54,6,38,1625921379.0,32.000000
-55,6,37,1625921379.0,32.000000
-55,6,37,1625921379.0,32.000000
-55,6,37,1625921379.0,32.000000
-55,6,37,1625921379.0,32.000000
-54,6,37,1625921379.0,32.000000
-55,6,37,1625921379.0,32.000000
-55,6,37,1625921379.0,32.000000
-55,6,37,1625921379.0,32.000000
-55,6,37,1625921379.0,32.000000
-55,6,37,1625921379.0,32.000000
-55,6,37,1625921379.0,32.000000
-55,6,37,1625921379.0,32.000000
-55,6,37,1625921379.0,32.000000
-55,6,37,1625921379.0,32.000000
-55,6,37,1625921379.0,32.000000
-55,6,37,1625921379.0,32.000000
-55,6,37,1625921379.0,32.000000
-55,6,37,1625921379.0,32.000000
-55,6,37,1625921379.0,32.000000
-55,6,37,1625921379.0,32.000000
-55,6,37,1625921379.0,32.000000
-55,6,37,1625921379.0,32.000000
-55,5,37,1625921379.0,32.000000
-55,6,37,1625921379.0,32.000000
-55,6,37,1625921379.0,32.000000
-55,6,37,1625921379.0,32.000000
-55,6,37,1625921379.0,32.000000
-55,6,37,1625921379.0,32.000000
-55,6,37,1625921379.0,32.000000
-54,6,37,1625921379.0,32.000000
-55,6,37,1625921379.0,32.000000
-55,6,37,1625921379.0,32.000000
-55,6,37,1625921379.0,32.000000
-54,6,37,1625921379.0,32.000000
-55,6,37,1625921379.0,32.000000
-55,6,37,1625921379.0,32.000000
-55,6,37,1625921379.0,32.000000
-55,6,37,1625921379.0,32.000000
-54,6,38,1625921379.0,32.000000
-55,6,37,1625921379.0,32.000000
-55,6,37,1625921379.0,32.000000
-55,6,37,1625921379.0,32.000000
-54,5,37,1625921379.0,32.000000
-55,6,37,1625921379.0,32.000000
-55,6,37,1625921379.0,32.000000
-55,6,37,1625921379.0,32.000000
-54,6,37,1625921379.0,32.000000
-55,6,37,1625921379.0,32.000000
-55,6,37,1625921379.0,32.000000
-55,6,37,1625921379.0,32.000000
-54,6,37,1625921379.0,32.000000
-55,6,37,1625921379.0,32.000000
-55,6,37,1625921379.0,32.000000
-55,6,37,1625921379.0,32.000000
-54,6,37,1625921379.0,32.000000
-55,6,37,1625921379.0,32.000000
-55,6,37,1625921379.0,32.000000
-55,6,37,1625921379.0,32.000000
-55,6,37,1625921379.0,32.000000
-55,6,37,1625921379.0,32.000000
-55,6,37,1625921379.0,32.000000
-55,6,37,1625921379.0,32.000000
-54,6,37,1625921379.0,32.000000
-55,6,37,1625921379.0,32.000000
-55,6,37,1625921379.0,32.000000
-54,6,37,1625921379.0,32.000000
-55,6,37,1625921379.0,32.000000
-55,6,37,1625921379.0,32.000000
-55,6,37,1625921379.0,32.000000
-55,6,37,1625921379.0,32.000000
-55,6,37,1625921379.0,32.000000
-55,6,37,1625921379.0,32.000000
-55,6,37,1625921379.0,32.000000
-54,6,37,1625921379.0,32.000000
-55,6,37,1625921379.0,32.000000
-56,5,37,1625921379.0,32.000000
-54,6,37,1625921379.0,32.000000
-55,6,37,1625921379.0,32.000000
-55,6,37,1625921379.0,32.000000
-55,6,37,1625921379.0,32.000000
-55,6,37,1625921379.0,32.000000
-54,6,37,1625921379.0,32.000000
-55,6,37,1625921379.0,32.000000
-55,6,37,1625921379.0,32.000000
-55,6,37,1625921379.0,32.000000
-55,6,37,1625921379.0,32.000000
-55,6,37,1625921379.0,32.000000
-55,6,37,1625921379.0,32.000000
-55,6,37,1625921379.0,32.000000
-55,6,37,1625921379.0,32.000000
-55,6,37,1625921379.0,32.000000
-55,6,37,1625921379.0,32.000000
-55,6,37,1625921379.0,32.000000
-55,6,37,1625921379.0,32.000000
-55,6,37,1625921379.0,32.000000
-55,6,37,1625921379.0,32.000000
-55,6,37,1625921379.0,32.000000
-55,6,37,1625921379.0,32.000000
-55,6,37,1625921379.0,32.000000
-55,6,37,1625921379.0,32.000000
-55,6,37,1625921379.0,32.000000
-55,6,37,1625921379.0,32.000000
-55,6,37,1625921379.0,32.000000
-55,6,36,1625921379.0,32.000000
-55,6,37,1625921379.0,32.000000
-55,6,37,1625921379.0,32.000000
-55,6,36,1625921379.0,32.000000
-55,6,37,1625921379.0,32.000000
-55,6,37,1625921379.0,32.000000
-55,6,37,1625921379.0,32.000000
-55,6,37,1625921379.0,32.000000
-55,6,36,1625921379.0,32.000000
-55,6,37,1625921379.0,32.000000
-55,6,36,1625921379.0,32.000000
-54,6,37,1625921379.0,32.000000
-55,6,37,1625921379.0,32.000000
-55,6,37,1625921379.0,32.000000
-55,6,37,1625921379.0,32.000000
-55,6,37,1625921379.0,32.000000
-55,6,37,1625921379.0,32.000000
-55,6,37,1625921379.0,32.000000
-55,6,37,1625921379.0,32.000000
-55,6,37,1625921379.0,32.000000
-54,6,37,1625921379.0,32.000000
-55,6,37,1625921379.0,32.000000
-55,6,37,1625921379.0,32.000000
-55,6,37,1625921379.0,32.000000
-55,6,37,1625921379.0,32.000000
-55,6,37,1625921379.0,32.000000
-55,6,37,1625921379.0,32.000000
-55,6,37,1625921379.0,32.000000
-55,6,37,1625921379.0,32.000000
-55,6,37,1625921379.0,32.000000
-55,6,37,1625921379.0,32.000000
-55,6,37,1625921379.0,32.000000
-55,6,37,1625921379.0,32.000000
-55,6,37,1625921379.0,32.000000
-55,6,37,1625921379.0,32.000000
-55,6,37,1625921379.0,32.000000
-55,6,37,1625921379.0,32.000000
-55,6,37,1625921379.0,32.000000
-55,6,37,1625921379.0,32.000000
-54,6,37,1625921379.0,32.000000
-55,6,37,1625921379.0,32.000000
-55,6,37,1625921379.0,32.000000
-55,6,37,1625921379.0,32.000000
-55,6,37,1625921379.0,32.000000
-55,6,37,1625921379.0,32.000000
-55,6,37,1625921379.0,32.000000
-55,6,37,1625921379.0,32.000000
-55,6,37,1625921379.0,32.000000
-55,6,37,1625921379.0,32.000000
-55,6,37,1625921379.0,32.000000
-54,6,37,1625921379.0,32.000000
-55,6,37,1625921379.0,32.000000
-55,6,37,1625921379.0,32.000000
-55,6,37,1625921379.0,32.000000
-55,6,37,1625921379.0,32.000000
-55,6,37,1625921379.0,32.000000
-55,6,37,1625921379.0,32.000000
-55,6,37,1625921379.0,32.000000
-54,6,37,1625921379.0,32.000000
-55,6,37,1625921379.0,32.000000
-55,6,37,1625921379.0,32.000000
-55,6,37,1625921379.0,32.000000
-55,6,37,1625921379.0,32.000000
-55,6,37,1625921379.0,32.000000
-54,6,37,1625921379.0,32.000000
-55,6,37,1625921379.0,32.000000
-55,6,37,1625921379.0,32.000000
-55,6,37,1625921379.0,32.000000
-55,6,37,1625921379.0,32.000000
-55,6,37,1625921379.0,32.000000
-54,6,38,1625921379.0,32.000000
-55,6,37,1625921379.0,32.000000
-55,6,37,1625921379.0,32.000000
-54,6,37,1625921379.0,32.000000
-54,6,38,1625921379.0,32.000000
-55,6,37,1625921379.0,32.000000
-55,6,36,1625921379.0,32.000000
-55,6,37,1625921379.0,32.000000
-54,6,38,1625921379.0,32.000000
-54,6,38,1625921379.0,32.000000
-55,6,36,1625921379.0,32.000000
-54,6,37,1625921379.0,32.000000
-54,6,38,1625921379.0,32.000000
-55,6,37,1625921379.0,32.000000
-55,6,37,1625921379.0,32.000000
-55,6,37,1625921379.0,32.000000
-55,6,37,1625921379.0,32.000000
-54,5,38,1625921379.0,32.000000
-55,6,37,1625921379.0,32.000000
-55,6,37,1625921379.0,32.000000
-55,6,37,1625921379.0,32.000000
-55,6,37,1625921379.0,32.000000
-54,6,38,1625921379.0,32.000000
-55,6,37,1625921379.0,32.000000
-54,6,37,1625921379.0,32.000000
-55,6,37,1625921379.0,32.000000
-54,6,37,1625921379.0,32.000000
-54,6,37,1625921379.0,32.000000
-55,6,37,1625921379.0,32.000000
-55,6,37,1625921379.0,32.000000
-55,6,37,1625921379.0,32.000000
-55,6,37,1625921379.0,32.000000
-55,6,37,1625921379.0,32.000000
-54,6,37,1625921379.0,32.000000
-55,6,37,1625921379.0,32.000000
-55,6,37,1625921379.0,32.000000
-55,6,37,1625921379.0,32.000000
-55,6,37,1625921379.0,32.000000
-54,6,37,1625921379.0,32.000000
-55,6,37,1625921379.0,32.000000
-55,6,37,1625921379.0,32.000000
-54,6,38,1625921379.0,32.000000
-55,6,37,1625921379.0,32.000000
-55,5,37,1625921379.0,32.000000
-55,6,37,1625921379.0,32.000000
-55,6,37,1625921379.0,32.000000
-55,6,37,1625921379.0,32.000000
-55,6,37,1625921379.0,32.000000
-55,5,37,1625921379.0,32.000000
-55,6,38,1625921379.0,32.000000
-55,6,37,1625921379.0,32.000000
-55,6,37,1625921379.0,32.000000
-55,6,37,1625921379.0,32.000000
-55,6,37,1625921379.0,32.000000
-55,6,37,1625921379.0,32.000000
-55,6,37,1625921379.0,32.000000
-55,6,37,1625921379.0,32.000000
-55,6,37,1625921379.0,32.000000
-55,6,37,1625921379.0,32.000000
-55,6,37,1625921379.0,32.000000
-55,6,37,1625921379.0,32.000000
-55,6,37,1625921379.0,32.000000
-55,6,37,1625921379.0,32.000000
-55,6,37,1625921379.0,32.000000
-55,6,37,1625921379.0,32.000000
-55,6,37,1625921379.0,32.000000
-55,6,37,1625921379.0,32.000000
-54,6,37,1625921379.0,32.000000
-55,6,37,1625921379.0,32.000000
-55,6,37,1625921379.0,32.000000
-55,6,37,1625921379.0,32.000000
-55,6,37,1625921379.0,32.000000
-55,6,36,1625921379.0,32.000000
-54,6,37,1625921379.0,32.000000
-54,6,37,1625921379.0,32.000000
-55,6,37,1625921379.0,32.000000
-55,6,37,1625921379.0,32.000000
-55,6,37,1625921379.0,32.000000
-55,6,37,1625921379.0,32.000000
-54,6,37,1625921379.0,32.000000
-55,6,37,1625921379.0,32.000000
-55,6,37,1625921379.0,32.000000
-55,6,37,1625921379.0,32.000000
-54,6,37,1625921379.0,32.000000
-55,6,37,1625921379.0,32.000000
-55,6,37,1625921379.0,32.000000
-55,6,37,1625921379.0,32.000000
-55,6,37,1625921379.0,32.000000
-54,6,37,1625921379.0,32.000000
-55,6,37,1625921379.0,32.000000
-55,6,37,1625921379.0,32.000000
-55,6,37,1625921379.0,32.000000
-55,6,37,1625921379.0,32.000000
-54,6,38,1625921379.0,32.000000
-55,6,37,1625921379.0,32.000000
-55,6,37,1625921379.0,32.000000
-55,6,37,1625921379.0,32.000000
-54,6,37,1625921379.0,32.000000
-55,6,37,1625921379.0,32.000000
-55,6,37,1625921379.0,32.000000
-54,6,37,1625921379.0,32.000000
-55,6,37,1625921379.0,32.000000
-54,6,38,1625921379.0,32.000000
-55,6,37,1625921379.0,32.000000
-55,6,37,1625921379.0,32.000000
-55,6,38,1625921379.0,32.000000
-55,6,37,1625921379.0,32.000000
-54,6,37,1625921379.0,32.000000
-55,6,37,1625921379.0,32.000000
-55,6,37,1625921379.0,32.000000
-55,6,37,1625921379.0,32.000000
-54,6,37,1625921379.0,32.000000
-54,6,37,1625921379.0,32.000000
-55,6,37,1625921379.0,32.000000
-55,6,37,1625921379.0,32.000000
-54,6,37,1625921379.0,32.000000
-55,6,37,1625921379.0,32.000000
-55,6,37,1625921379.0,32.000000
-54,6,37,1625921379.0,32.000000
-54,6,37,1625921379.0,32.000000
-54,6,37,1625921379.0,32.000000
-54,6,37,1625921379.0,32.000000
-54,6,37,1625921379.0,32.000000
-55,6,37,1625921379.0,32.000000
-54,5,38,1625921379.0,32.000000
-54,6,37,1625921379.0,32.000000
-55,6,37,1625921379.0,32.000000
-54,6,38,1625921379.0,32.000000
-55,6,37,1625921379.0,32.000000
-55,6,37,1625921379.0,32.000000
-55,6,37,1625921379.0,32.000000
-54,5,38,1625921379.0,32.000000
-54,6,37,1625921379.0,32.000000
-55,6,37,1625921379.0,32.000000
-54,6,37,1625921379.0,32.000000
-54,6,37,1625921379.0,32.000000
-55,6,37,1625921379.0,32.000000
-54,6,38,1625921379.0,32.000000
-54,6,37,1625921379.0,32.000000
-55,5,38,1625921379.0,32.000000
-55,6,37,1625921379.0,32.000000
-54,6,38,1625921379.0,32.000000
-54,6,38,1625921379.0,32.000000
-54,6,38,1625921379.0,32.000000
-55,6,37,1625921379.0,32.000000
-55,6,37,1625921379.0,32.000000
-55,6,37,1625921379.0,32.000000
-55,6,37,1625921379.0,32.000000
-54,6,37,1625921379.0,32.000000
-54,6,37,1625921379.0,32.000000
-55,6,37,1625921379.0,32.000000
-55,6,37,1625921379.0,32.000000
-54,6,37,1625921379.0,32.000000
-54,6,37,1625921379.0,32.000000
-55,6,37,1625921379.0,32.000000
-55,6,36,1625921379.0,32.000000
-55,6,37,1625921379.0,32.000000
-55,6,37,1625921379.0,32.000000
-55,6,37,1625921379.0,32.000000
-55,6,37,1625921379.0,32.000000
-55,6,37,1625921379.0,32.000000
-55,6,37,1625921379.0,32.000000
-55,6,37,1625921379.0,32.000000
-55,6,37,1625921379.0,32.000000
-54,6,37,1625921379.0,32.000000
-54,6,37,1625921379.0,32.000000
-55,6,36,1625921379.0,32.000000
-55,6,37,1625921379.0,32.000000
-54,6,37,1625921379.0,32.000000
-54,6,38,1625921379.0,32.000000
-55,6,37,1625921379.0,32.000000
-55,6,36,1625921379.0,32.000000
-55,6,37,1625921379.0,32.000000
-55,6,38,1625921379.0,32.000000
-55,6,37,1625921379.0,32.000000
-55,6,37,1625921379.0,32.000000
-54,6,37,1625921379.0,32.000000
-55,6,36,1625921379.0,32.000000
-54,5,37,1625921379.0,32.000000
-55,6,37,1625921379.0,32.000000
-55,6,36,1625921379.0,32.000000
-55,5,37,1625921379.0,32.000000
-55,6,37,1625921379.0,32.000000
-55,6,37,1625921379.0,32.000000
-54,5,37,1625921379.0,32.000000
-55,5,37,1625921379.0,32.000000
-55,6,37,1625921379.0,32.000000
-54,5,37,1625921379.0,32.000000
-55,6,37,1625921379.0,32.000000
-55,6,37,1625921379.0,32.000000
-55,5,37,1625921379.0,32.000000
-55,6,37,1625921379.0,32.000000
-55,6,37,1625921379.0,32.000000
-55,6,37,1625921379.0,32.000000
-55,6,36,1625921379.0,32.000000
-55,5,37,1625921379.0,32.000000
-55,5,37,1625921379.0,32.000000
-55,6,37,1625921379.0,32.000000
-55,6,37,1625921379.0,32.000000
-54,6,37,1625921379.0,32.000000
-55,6,37,1625921379.0,32.000000
-55,6,37,1625921379.0,32.000000
-55,6,37,1625921379.0,32.000000
-55,6,37,1625921379.0,32.000000
-55,6,37,1625921379.0,32.000000
-55,6,37,1625921379.0,32.000000
-55,6,37,1625921379.0,32.000000
-55,6,37,1625921379.0,32.000000
-55,6,37,1625921379.0,32.000000
-55,6,37,1625921379.0,32.000000
-55,5,37,1625921379.0,32.000000
-54,6,37,1625921379.0,32.000000
-55,6,37,1625921379.0,32.000000
-55,6,37,1625921379.0,32.000000
-54,6,37,1625921379.0,32.000000
-55,6,37,1625921379.0,32.000000
-54,6,37,1625921379.0,32.000000
-55,6,37,1625921379.0,32.000000
-55,6,37,1625921379.0,32.000000
-55,6,37,1625921379.0,32.000000
-55,6,37,1625921379.0,32.000000
-55,6,37,1625921379.0,32.000000
-55,6,37,1625921379.0,32.000000
-55,6,37,1625921379.0,32.000000
-54,6,37,1625921379.0,32.000000
-55,6,37,1625921379.0,32.000000
-55,6,37,1625921379.0,32.000000
-55,5,37,1625921379.0,32.000000
-54,5,38,1625921379.0,32.000000
-55,6,37,1625921379.0,32.000000
-55,6,37,1625921379.0,32.000000
-54,6,37,1625921379.0,32.000000
-55,5,37,1625921379.0,32.000000
-54,5,37,1625921379.0,32.000000
-55,6,37,1625921379.0,32.000000
-55,6,37,1625921379.0,32.000000
-55,6,37,1625921379.0,32.000000
-55,6,37,1625921379.0,32.000000
-55,6,37,1625921379.0,32.000000
-55,6,37,1625921379.0,32.000000
-54,6,37,1625921379.0,32.000000
-55,5,38,1625921379.0,32.000000
-55,6,37,1625921379.0,32.000000
-55,6,37,1625921379.0,32.000000
-54,6,37,1625921379.0,32.000000
-54,6,37,1625921379.0,32.000000
-55,6,37,1625921379.0,32.000000
-54,6,37,1625921379.0,32.000000
-54,6,37,1625921379.0,32.000000
-55,6,37,1625921379.0,32.000000
-54,6,38,1625921379.0,32.000000
-55,6,37,1625921379.0,32.000000
-55,6,37,1625921379.0,32.000000
-55,6,37,1625921379.0,32.000000
-55,6,37,1625921379.0,32.000000
-55,6,36,1625921379.0,32.000000
-55,6,37,1625921379.0,32.000000
-54,6,37,1625921379.0,32.000000
-55,6,37,1625921379.0,32.000000
-55,6,37,1625921379.0,32.000000
-54,6,38,1625921379.0,32.000000
-54,6,37,1625921379.0,32.000000
-55,6,37,1625921379.0,32.000000
-55,6,37,1625921379.0,32.000000
-54,6,38,1625921379.0,32.000000
-54,6,38,1625921379.0,32.000000
-55,6,37,1625921379.0,32.000000
-55,6,37,1625921379.0,32.000000
-55,6,37,1625921379.0,32.000000
-55,6,37,1625921379.0,32.000000
-55,6,37,1625921379.0,32.000000
-55,6,37,1625921379.0,32.000000
-55,6,37,1625921379.0,32.000000
-54,6,37,1625921379.0,32.000000
-54,6,37,1625921379.0,32.000000
-54,6,37,1625921379.0,32.000000
-54,6,38,1625921379.0,32.000000
-54,6,38,1625921379.0,32.000000
-55,6,37,1625921379.0,32.000000
-54,6,37,1625921379.0,32.000000
-55,6,37,1625921379.0,32.000000
-55,6,37,1625921379.0,32.000000
-55,6,37,1625921379.0,32.000000
-55,6,37,1625921379.0,32.000000
-55,6,37,1625921379.0,32.000000
-55,6,37,1625921379.0,32.000000
-54,6,37,1625921379.0,32.000000
-54,6,37,1625921379.0,32.000000
-54,6,37,1625921379.0,32.000000
-55,6,37,1625921379.0,32.000000
-54,6,37,1625921379.0,32.000000
-55,6,37,1625921379.0,32.000000
-55,6,37,1625921379.0,32.000000
-54,6,37,1625921379.0,32.000000
-54,6,37,1625921379.0,32.000000
-55,6,37,1625921379.0,32.000000
-55,6,37,1625921379.0,32.000000
-54,6,37,1625921379.0,32.000000
-55,6,37,1625921379.0,32.000000
-55,6,37,1625921379.0,32.000000
-54,6,37,1625921379.0,32.000000
-54,6,37,1625921379.0,32.000000
-55,6,37,1625921379.0,32.000000
-54,6,37,1625921379.0,32.000000
-54,6,37,1625921379.0,32.000000
-55,6,37,1625921379.0,32.000000
-55,6,37,1625921379.0,32.000000
-55,6,37,1625921379.0,32.000000
-54,6,37,1625921379.0,32.000000
-54,6,37,1625921379.0,32.000000
-54,6,38,1625921379.0,32.000000
-55,6,38,1625921379.0,32.000000
-54,5,37,1625921379.0,32.000000
-55,6,37,1625921379.0,32.000000
-55,6,37,1625921379.0,32.000000
-55,6,37,1625921379.0,32.000000
-55,6,37,1625921379.0,32.000000
-55,6,37,1625921379.0,32.000000
-55,6,37,1625921379.0,32.000000
-55,6,37,1625921379.0,32.000000
-55,6,37,1625921379.0,32.000000
-55,6,37,1625921379.0,32.000000
-54,5,37,1625921379.0,32.000000
-55,6,37,1625921379.0,32.000000
-55,6,37,1625921379.0,32.000000
-54,6,37,1625921379.0,32.000000
-55,6,37,1625921379.0,32.000000
-55,6,37,1625921379.0,32.000000
-55,6,37,1625921379.0,32.000000
-55,6,37,1625921379.0,32.000000
-55,5,37,1625921379.0,32.000000
-55,6,37,1625921379.0,32.000000
-55,6,37,1625921379.0,32.000000
-54,6,37,1625921379.0,32.000000
-55,6,37,1625921379.0,32.000000
-55,6,37,1625921379.0,32.000000
-55,6,37,1625921379.0,32.000000
-55,5,37,1625921379.0,32.000000
-55,6,37,1625921379.0,32.000000
-55,6,37,1625921379.0,32.000000
-54,6,37,1625921379.0,32.000000
-54,6,37,1625921379.0,32.000000
-54,6,38,1625921379.0,32.000000
-55,6,37,1625921379.0,32.000000
-55,5,36,1625921379.0,32.000000
-55,6,37,1625921379.0,32.000000
-56,6,36,1625921379.0,32.000000
-55,6,37,1625921379.0,32.000000
-55,5,37,1625921379.0,32.000000
-55,6,37,1625921379.0,32.000000
-55,5,37,1625921379.0,32.000000
-55,6,37,1625921379.0,32.000000
-55,6,37,1625921379.0,32.000000
-55,6,37,1625921379.0,32.000000
-55,6,37,1625921379.0,32.000000
-55,6,37,1625921379.0,32.000000
-55,5,37,1625921379.0,32.000000
-55,6,37,1625921379.0,32.000000
-55,6,37,1625921379.0,32.000000
-55,6,37,1625921379.0,32.000000
-55,6,37,1625921379.0,32.000000
-55,6,37,1625921379.0,32.000000
-55,6,37,1625921379.0,32.000000
-55,6,37,1625921379.0,32.000000
-55,6,37,1625921379.0,32.000000
-55,6,37,1625921379.0,32.000000
-55,6,37,1625921379.0,32.000000
-55,6,37,1625921379.0,32.000000
-55,6,37,1625921379.0,32.000000
-55,6,37,1625921379.0,32.000000
-55,6,37,1625921379.0,32.000000
-55,6,37,1625921379.0,32.000000
-55,6,37,1625921379.0,32.000000
-55,6,37,1625921379.0,32.000000
-55,6,37,1625921379.0,32.000000
-55,6,37,1625921379.0,32.000000
-55,6,37,1625921379.0,32.000000
-55,6,37,1625921379.0,32.000000
-55,6,37,1625921379.0,32.000000
-54,6,37,1625921379.0,32.000000
-55,6,37,1625921379.0,32.000000
-55,5,37,1625921379.0,32.000000
-55,6,37,1625921379.0,32.000000
-54,6,37,1625921379.0,32.000000
-55,6,37,1625921379.0,32.000000
-55,6,37,1625921379.0,32.000000
-55,6,36,1625921379.0,32.000000
-55,6,37,1625921379.0,32.000000
-54,5,38,1625921379.0,32.000000
-54,5,38,1625921379.0,32.000000
-55,5,37,1625921379.0,32.000000
-55,6,37,1625921379.0,32.000000
-55,6,37,1625921379.0,32.000000
-55,6,37,1625921379.0,32.000000
-55,5,37,1625921379.0,32.000000
-55,5,37,1625921379.0,32.000000
-54,6,38,1625921379.0,32.000000
-55,6,37,1625921379.0,32.000000
-55,6,37,1625921379.0,32.000000
-54,6,37,1625921379.0,32.000000
-55,6,37,1625921379.0,32.000000
-55,6,37,1625921379.0,32.000000
-55,6,37,1625921379.0,32.000000
-55,6,37,1625921379.0,32.000000
-55,6,37,1625921379.0,32.000000
-55,6,37,1625921379.0,32.000000
-54,6,37,1625921379.0,32.000000
-55,6,37,1625921379.0,32.000000
-55,6,37,1625921379.0,32.000000
-55,6,37,1625921379.0,32.000000
-55,6,37,1625921379.0,32.000000
-54,6,37,1625921379.0,32.000000
-55,6,37,1625921379.0,32.000000
-54,6,37,1625921379.0,32.000000
-55,6,37,1625921379.0,32.000000
-55,6,37,1625921379.0,32.000000
-55,6,37,1625921379.0,32.000000
-54,5,37,1625921379.0,32.000000
-55,6,37,1625921379.0,32.000000
-55,6,37,1625921379.0,32.000000
-55,6,37,1625921379.0,32.000000
-55,6,37,1625921379.0,32.000000
-54,5,37,1625921379.0,32.000000
-55,6,37,1625921379.0,32.000000
-54,6,37,1625921379.0,32.000000
-55,6,37,1625921379.0,32.000000
-55,6,37,1625921379.0,32.000000
-55,6,37,1625921379.0,32.000000
-55,5,37,1625921379.0,32.000000
-55,6,37,1625921379.0,32.000000
-55,6,37,1625921379.0,32.000000
-55,6,37,1625921379.0,32.000000
-55,6,37,1625921379.0,32.000000
-55,6,37,1625921379.0,32.000000
-55,6,37,1625921379.0,32.000000
-55,6,37,1625921379.0,32.000000
-55,6,37,1625921379.0,32.000000
-55,6,36,1625921379.0,32.000000
-55,5,37,1625921379.0,32.000000
-55,6,37,1625921379.0,32.000000
-54,5,37,1625921379.0,32.000000
-55,6,37,1625921379.0,32.000000
-55,6,37,1625921379.0,32.000000
-55,6,37,1625921379.0,32.000000
-55,5,37,1625921379.0,32.000000
-55,6,37,1625921379.0,32.000000
-55,6,37,1625921379.0,32.000000
-55,6,37,1625921379.0,32.000000
-55,6,37,1625921379.0,32.000000
-55,5,37,1625921379.0,32.000000
-55,6,37,1625921379.0,32.000000
-55,6,37,1625921379.0,32.000000
-55,6,37,1625921379.0,32.000000
-55,6,37,1625921379.0,32.000000
-55,6,37,1625921379.0,32.000000
-55,6,37,1625921379.0,32.000000
-55,6,37,1625921379.0,32.000000
-55,6,37,1625921379.0,32.000000
-55,5,37,1625921379.0,32.000000
-55,6,37,1625921379.0,32.000000
-55,6,37,1625921379.0,32.000000
-55,6,37,1625921379.0,32.000000
-55,6,37,1625921379.0,32.000000
-55,6,37,1625921379.0,32.000000
-55,5,37,1625921379.0,32.000000
-54,6,37,1625921379.0,32.000000
-55,6,37,1625921379.0,32.000000
-55,6,37,1625921379.0,32.000000
-55,6,37,1625921379.0,32.000000
-55,6,37,1625921379.0,32.000000
-55,6,37,1625921379.0,32.000000
-55,5,37,1625921379.0,32.000000
-55,6,37,1625921379.0,32.000000
-54,6,37,1625921379.0,32.000000
-55,6,37,1625921379.0,32.000000
-55,6,37,1625921379.0,32.000000
-55,6,37,1625921379.0,32.000000
-55,6,37,1625921379.0,32.000000
-55,6,37,1625921379.0,32.000000
-54,5,37,1625921379.0,32.000000
-55,6,36,1625921379.0,32.000000
-55,6,37,1625921379.0,32.000000
-55,6,37,1625921379.0,32.000000
-55,6,37,1625921379.0,32.000000
-55,6,37,1625921379.0,32.000000
-55,6,37,1625921379.0,32.000000
-54,6,37,1625921379.0,32.000000
-55,6,37,1625921379.0,32.000000
-55,6,37,1625921379.0,32.000000
-55,6,37,1625921379.0,32.000000
-55,5,37,1625921379.0,32.000000
-55,6,37,1625921379.0,32.000000
-55,6,37,1625921379.0,32.000000
-55,5,37,1625921379.0,32.000000
-54,5,38,1625921379.0,32.000000
-54,6,38,1625921379.0,32.000000
-55,6,37,1625921379.0,32.000000
-54,6,37,1625921379.0,32.000000
-54,5,37,1625921379.0,32.000000
-55,5,37,1625921379.0,32.000000
-55,6,37,1625921379.0,32.000000
-55,6,37,1625921379.0,32.000000
-54,6,38,1625921379.0,32.000000
-55,6,37,1625921379.0,32.000000
-54,6,37,1625921379.0,32.000000
-55,6,38,1625921379.0,32.000000
-55,6,37,1625921379.0,32.000000
-55,6,37,1625921379.0,32.000000
-55,6,37,1625921379.0,32.000000
-54,6,37,1625921379.0,32.000000
-54,6,38,1625921379.0,32.000000
-55,6,37,1625921379.0,32.000000
-55,6,37,1625921379.0,32.000000
-54,6,38,1625921379.0,32.000000
-54,5,37,1625921379.0,32.000000
-55,6,37,1625921379.0,32.000000
-54,6,38,1625921379.0,32.000000
-54,6,37,1625921379.0,32.000000
-55,6,37,1625921379.0,32.000000
-54,6,38,1625921379.0,32.000000
-54,6,37,1625921379.0,32.000000
-54,6,37,1625921379.0,32.000000
-54,6,37,1625921379.0,32.000000
-55,6,37,1625921379.0,32.000000
-54,5,37,1625921379.0,32.000000
-54,6,38,1625921379.0,32.000000
-55,5,37,1625921379.0,32.000000
-55,5,37,1625921379.0,32.000000
-54,5,37,1625921379.0,32.000000
-55,6,37,1625921379.0,32.000000
-55,6,37,1625921379.0,32.000000
-54,6,37,1625921379.0,32.000000
-55,6,38,1625921379.0,32.000000
-54,5,37,1625921379.0,32.000000
-54,6,37,1625921379.0,32.000000
-55,6,37,1625921379.0,32.000000
-55,6,37,1625921379.0,32.000000
-55,6,37,1625921379.0,32.000000
-55,6,37,1625921379.0,32.000000
-54,6,37,1625921379.0,32.000000
-55,6,37,1625921379.0,32.000000
-55,6,37,1625921379.0,32.000000
-54,6,37,1625921379.0,32.000000
-55,6,37,1625921379.0,32.000000
-55,6,37,1625921379.0,32.000000
-55,6,37,1625921379.0,32.000000
-55,5,37,1625921379.0,32.000000
-55,5,37,1625921379.0,32.000000
-54,6,37,1625921379.0,32.000000
-55,6,37,1625921379.0,32.000000
-55,5,37,1625921379.0,32.000000
-54,6,37,1625921379.0,32.000000
-54,5,37,1625921379.0,32.000000
-55,5,37,1625921379.0,32.000000
-55,6,37,1625921379.0,32.000000
-55,5,37,1625921379.0,32.000000
-55,6,37,1625921379.0,32.000000
-55,6,37,1625921379.0,32.000000
-55,6,37,1625921379.0,32.000000
-55,6,37,1625921379.0,32.000000
-55,5,37,1625921379.0,32.000000
-55,5,37,1625921379.0,32.000000
-55,6,37,1625921379.0,32.000000
-55,6,37,1625921379.0,32.000000
-55,6,37,1625921379.0,32.000000
-54,5,37,1625921379.0,32.000000
-55,5,37,1625921379.0,32.000000
-55,6,37,1625921379.0,32.000000
-55,6,37,1625921379.0,32.000000
-55,6,37,1625921379.0,32.000000
-55,5,37,1625921379.0,32.000000
-55,6,37,1625921379.0,32.000000
-55,6,37,1625921379.0,32.000000
-55,6,37,1625921379.0,32.000000
-55,5,37,1625921379.0,32.000000
-55,6,37,1625921379.0,32.000000
-55,6,37,1625921379.0,32.000000
-55,6,37,1625921379.0,32.000000
-55,6,37,1625921379.0,32.000000
-55,6,37,1625921379.0,32.000000
-55,6,37,1625921379.0,32.000000
-55,5,37,1625921379.0,32.000000
-55,6,37,1625921379.0,32.000000
-55,6,37,1625921379.0,32.000000
-55,6,37,1625921379.0,32.000000
-55,5,37,1625921379.0,32.000000
-55,6,37,1625921379.0,32.000000
-55,6,37,1625921379.0,32.000000
-55,6,37,1625921379.0,32.000000
-55,6,37,1625921379.0,32.000000
-55,6,37,1625921379.0,32.000000
-55,6,37,1625921379.0,32.000000
-55,5,37,1625921379.0,32.000000
-54,6,37,1625921379.0,32.000000
-54,6,37,1625921379.0,32.000000
-55,6,37,1625921379.0,32.000000
-55,6,37,1625921379.0,32.000000
-55,5,37,1625921379.0,32.000000
-55,6,37,1625921379.0,32.000000
-55,6,37,1625921379.0,32.000000
-55,6,37,1625921379.0,32.000000
-55,6,37,1625921379.0,32.000000
-54,6,37,1625921379.0,32.000000
-55,6,37,1625921379.0,32.000000
-54,6,37,1625921379.0,32.000000
-55,6,37,1625921379.0,32.000000
-55,6,37,1625921379.0,32.000000
-54,5,37,1625921379.0,32.000000
-54,5,37,1625921379.0,32.000000
-54,5,37,1625921379.0,32.000000
-55,6,38,1625921379.0,32.000000
-54,6,37,1625921379.0,32.000000
-54,5,37,1625921379.0,32.000000
-52,6,37,1625921379.0,32.000000
-58,6,34,1625921379.0,32.000000
-54,7,36,1625921379.0,32.000000
-54,6,37,1625921379.0,32.000000
-55,5,37,1625921379.0,32.000000
-55,6,37,1625921379.0,32.000000
-54,6,37,1625921379.0,32.000000
-54,6,38,1625921379.0,32.000000
-54,6,37,1625921379.0,32.000000
-54,6,38,1625921379.0,32.000000
-54,6,38,1625921379.0,32.000000
-54,6,37,1625921379.0,32.000000
-55,6,37,1625921379.0,32.000000
-54,6,38,1625921379.0,32.000000
-54,6,38,1625921379.0,32.000000
-55,6,37,1625921379.0,32.000000
-55,6,37,1625921379.0,32.000000
-55,5,37,1625921379.0,32.000000
-55,6,37,1625921379.0,32.000000
-54,6,37,1625921379.0,32.000000
-54,6,37,1625921379.0,32.000000
-54,6,37,1625921379.0,32.000000
-54,6,38,1625921379.0,32.000000
-54,6,38,1625921379.0,32.000000
-55,6,37,1625921379.0,32.000000
-54,6,37,1625921379.0,32.000000
-54,6,37,1625921379.0,32.000000
-54,6,37,1625921379.0,32.000000
-55,6,37,1625921379.0,32.000000
-55,6,37,1625921379.0,32.000000
-54,6,37,1625921379.0,32.000000
-54,6,38,1625921379.0,32.000000
-54,5,38,1625921379.0,32.000000
-54,6,37,1625921379.0,32.000000
-54,6,37,1625921379.0,32.000000
-54,6,38,1625921379.0,32.000000
-54,6,38,1625921379.0,32.000000
-54,6,37,1625921379.0,32.000000
-55,6,37,1625921379.0,32.000000
-54,6,37,1625921379.0,32.000000
-55,5,37,1625921379.0,32.000000
-55,6,37,1625921379.0,32.000000
-55,6,37,1625921379.0,32.000000
-54,6,37,1625921379.0,32.000000
-54,6,37,1625921379.0,32.000000
-55,6,37,1625921379.0,32.000000
-55,5,37,1625921379.0,32.000000
-55,6,37,1625921379.0,32.000000
-55,6,37,1625921379.0,32.000000
-55,5,37,1625921379.0,32.000000
-55,5,37,1625921379.0,32.000000
-54,6,37,1625921379.0,32.000000
-55,6,37,1625921379.0,32.000000
-55,6,37,1625921379.0,32.000000
-54,6,37,1625921379.0,32.000000
-55,6,37,1625921379.0,32.000000
-55,6,37,1625921379.0,32.000000
-55,6,38,1625921379.0,32.000000
-54,6,38,1625921379.0,32.000000
-55,6,37,1625921379.0,32.000000
-55,6,37,1625921379.0,32.000000
-55,5,37,1625921379.0,32.000000
-55,6,37,1625921379.0,32.000000
-55,6,37,1625921379.0,32.000000
-55,6,37,1625921379.0,32.000000
-55,5,37,1625921379.0,32.000000
-54,5,37,1625921379.0,32.000000
-55,6,36,1625921379.0,32.000000
-55,6,37,1625921379.0,32.000000
-55,6,37,1625921379.0,32.000000
-55,6,37,1625921379.0,32.000000
-55,5,37,1625921379.0,32.000000
-55,5,37,1625921379.0,32.000000
-55,5,37,1625921379.0,32.000000
-55,6,37,1625921379.0,32.000000
-55,6,37,1625921379.0,32.000000
-55,6,37,1625921379.0,32.000000
-55,5,37,1625921379.0,32.000000
-54,6,37,1625921379.0,32.000000
-55,6,37,1625921379.0,32.000000
-55,6,37,1625921379.0,32.000000
-55,6,37,1625921379.0,32.000000
-55,5,37,1625921379.0,32.000000
-55,6,37,1625921379.0,32.000000
-55,6,37,1625921379.0,32.000000
-55,5,37,1625921379.0,32.000000
-54,6,37,1625921379.0,32.000000
-55,6,37,1625921379.0,32.000000
-54,6,37,1625921379.0,32.000000
-55,6,37,1625921379.0,32.000000
-55,6,37,1625921379.0,32.000000
-55,6,37,1625921379.0,32.000000
-54,6,37,1625921379.0,32.000000
-55,6,37,1625921379.0,32.000000
-55,6,37,1625921379.0,32.000000
-54,5,37,1625921379.0,32.000000
-55,5,37,1625921379.0,32.000000
-55,6,37,1625921379.0,32.000000
-55,6,37,1625921379.0,32.000000
-54,6,37,1625921379.0,32.000000
-55,6,37,1625921379.0,32.000000
-55,6,37,1625921379.0,32.000000
-55,5,37,1625921379.0,32.000000
-54,5,37,1625921379.0,32.000000
-55,6,37,1625921379.0,32.000000
-55,6,37,1625921379.0,32.000000
-55,6,37,1625921379.0,32.000000
-54,6,37,1625921379.0,32.000000
-54,6,37,1625921379.0,32.000000
-55,6,37,1625921379.0,32.000000
-55,6,37,1625921379.0,32.000000
-54,6,37,1625921379.0,32.000000
-55,6,37,1625921379.0,32.000000
-55,6,37,1625921379.0,32.000000
-55,6,37,1625921379.0,32.000000
-54,6,37,1625921379.0,32.000000
-55,6,37,1625921379.0,32.000000
-55,6,37,1625921379.0,32.000000
-55,6,37,1625921379.0,32.000000
-55,6,37,1625921379.0,32.000000
-55,5,37,1625921379.0,32.000000
-55,6,37,1625921379.0,32.000000
-54,6,38,1625921379.0,32.000000
-55,6,37,1625921379.0,32.000000
-55,6,37,1625921379.0,32.000000
-55,6,37,1625921379.0,32.000000
-55,6,37,1625921379.0,32.000000
-54,5,37,1625921379.0,32.000000
-55,6,37,1625921379.0,32.000000
-55,6,37,1625921379.0,32.000000
-55,6,37,1625921379.0,32.000000
-54,6,37,1625921379.0,32.000000
-55,6,37,1625921379.0,32.000000
-54,6,38,1625921379.0,32.000000
-54,6,37,1625921379.0,32.000000
-54,6,37,1625921379.0,32.000000
-55,6,37,1625921379.0,32.000000
-55,6,37,1625921379.0,32.000000
-55,6,37,1625921379.0,32.000000
-55,6,37,1625921379.0,32.000000
-54,6,37,1625921379.0,32.000000
-55,6,37,1625921379.0,32.000000
-55,5,37,1625921379.0,32.000000
-54,6,38,1625921379.0,32.000000
-55,6,37,1625921379.0,32.000000
-54,6,37,1625921379.0,32.000000
-55,6,37,1625921379.0,32.000000
-54,5,38,1625921379.0,32.000000
-55,6,37,1625921379.0,32.000000
-55,6,37,1625921379.0,32.000000
-54,6,37,1625921379.0,32.000000
-55,5,37,1625921379.0,32.000000
-55,6,37,1625921379.0,32.000000
-54,6,37,1625921379.0,32.000000
-54,6,38,1625921379.0,32.000000
-54,6,37,1625921379.0,32.000000
-54,6,37,1625921379.0,32.000000
-55,6,37,1625921379.0,32.000000
-54,6,37,1625921379.0,32.000000
-54,6,37,1625921379.0,32.000000
-55,6,37,1625921379.0,32.000000
-55,6,37,1625921379.0,32.000000
-54,6,38,1625921379.0,32.000000
-55,6,37,1625921379.0,32.000000
-55,6,37,1625921379.0,32.000000
-54,6,37,1625921379.0,32.000000
-54,5,38,1625921379.0,32.000000
-54,5,37,1625921379.0,32.000000
-54,6,37,1625921379.0,32.000000
-55,6,37,1625921379.0,32.000000
-55,6,37,1625921379.0,32.000000
-55,6,37,1625921379.0,32.000000
-54,6,37,1625921379.0,32.000000
-55,6,37,1625921379.0,32.000000
-55,6,37,1625921379.0,32.000000
-55,6,37,1625921379.0,32.000000
-54,6,37,1625921379.0,32.000000
-55,6,37,1625921379.0,32.000000
-55,6,37,1625921379.0,32.000000
-55,6,37,1625921379.0,32.000000
-54,5,37,1625921379.0,32.000000
-55,6,37,1625921379.0,32.000000
-55,6,37,1625921379.0,32.000000
-55,6,37,1625921379.0,32.000000
-55,6,37,1625921379.0,32.000000
-55,6,37,1625921379.0,32.000000
-55,6,37,1625921379.0,32.000000
-55,6,37,1625921379.0,32.000000
-55,6,37,1625921379.0,32.000000
-55,6,37,1625921379.0,32.000000
-55,6,37,1625921379.0,32.000000
-55,6,37,1625921379.0,32.000000
-54,6,37,1625921379.0,32.000000
-54,5,38,1625921379.0,32.000000
-55,5,37,1625921379.0,32.000000
-55,6,37,1625921379.0,32.000000
-55,6,37,1625921379.0,32.000000
-55,6,37,1625921379.0,32.000000
-54,6,37,1625921379.0,32.000000
-55,6,37,1625921379.0,32.000000
-55,6,37,1625921379.0,32.000000
-55,6,38,1625921379.0,32.000000
-55,6,37,1625921379.0,32.000000
-54,6,37,1625921379.0,32.000000
-55,6,37,1625921379.0,32.000000
-55,6,37,1625921379.0,32.000000
-54,6,37,1625921379.0,32.000000
-55,6,37,1625921379.0,32.000000
-55,6,37,1625921379.0,32.000000
-55,6,38,1625921379.0,32.000000
-55,6,37,1625921379.0,32.000000
-55,6,37,1625921379.0,32.000000
-55,6,37,1625921379.0,32.000000
-54,5,38,1625921379.0,32.000000
-55,5,37,1625921379.0,32.000000
-55,6,37,1625921379.0,32.000000
-54,6,38,1625921379.0,32.000000
-54,6,37,1625921379.0,32.000000
-55,6,37,1625921379.0,32.000000
-54,6,38,1625921379.0,32.000000
-54,6,37,1625921379.0,32.000000
-55,6,37,1625921379.0,32.000000
-54,6,38,1625921379.0,32.000000
-54,6,37,1625921379.0,32.000000
-55,6,37,1625921379.0,32.000000
-55,6,37,1625921379.0,32.000000
-55,5,37,1625921379.0,32.000000
-54,5,37,1625921379.0,32.000000
-54,6,37,1625921379.0,32.000000
-54,6,37,1625921379.0,32.000000
-54,6,38,1625921379.0,32.000000
-55,6,37,1625921379.0,32.000000
-54,6,37,1625921379.0,32.000000
-54,6,38,1625921379.0,32.000000
-54,6,38,1625921379.0,32.000000
-55,6,38,1625921379.0,32.000000
-55,6,37,1625921379.0,32.000000
-55,6,37,1625921379.0,32.000000
-55,6,37,1625921379.0,32.000000
-55,6,37,1625921379.0,32.000000
-55,6,37,1625921379.0,32.000000
-55,6,37,1625921379.0,32.000000
-55,6,37,1625921379.0,32.000000
-54,6,37,1625921379.0,32.000000
-55,6,37,1625921379.0,32.000000
-54,6,37,1625921379.0,32.000000
-54,5,38,1625921379.0,32.000000
-54,6,38,1625921379.0,32.000000
-54,6,38,1625921379.0,32.000000
-54,6,37,1625921379.0,32.000000
-55,6,37,1625921379.0,32.000000
-55,6,37,1625921379.0,32.000000
-55,6,37,1625921379.0,32.000000
-54,6,37,1625921379.0,32.000000
-55,6,38,1625921379.0,32.000000
-55,6,37,1625921379.0,32.000000
-55,6,37,1625921379.0,32.000000
-54,6,37,1625921379.0,32.000000
-54,5,38,1625921379.0,32.000000
-54,6,37,1625921379.0,32.000000
-54,6,37,1625921379.0,32.000000
-54,6,38,1625921379.0,32.000000
-54,6,38,1625921379.0,32.000000
-55,6,37,1625921379.0,32.000000
-55,6,37,1625921379.0,32.000000
-55,6,37,1625921379.0,32.000000
-55,5,37,1625921379.0,32.000000
-54,5,37,1625921379.0,32.000000
-54,5,37,1625921379.0,32.000000
-55,6,37,1625921379.0,32.000000
-55,6,37,1625921379.0,32.000000
-54,6,37,1625921379.0,32.000000
-55,6,37,1625921379.0,32.000000
-54,5,38,1625921379.0,32.000000
-55,6,37,1625921379.0,32.000000
-54,6,37,1625921379.0,32.000000
-55,6,37,1625921379.0,32.000000
-55,5,37,1625921379.0,32.000000
-55,5,37,1625921379.0,32.000000
-55,6,37,1625921379.0,32.000000
-54,6,37,1625921379.0,32.000000
-54,6,37,1625921379.0,32.000000
-54,6,37,1625921379.0,32.000000
-55,6,37,1625921379.0,32.000000
-54,6,37,1625921379.0,32.000000
-54,6,37,1625921379.0,32.000000
-55,6,37,1625921379.0,32.000000
-55,6,37,1625921379.0,32.000000
-55,6,37,1625921379.0,32.000000
-55,6,37,1625921379.0,32.000000
-55,6,37,1625921379.0,32.000000
-55,6,37,1625921379.0,32.000000
-55,6,37,1625921379.0,32.000000
-55,6,37,1625921379.0,32.000000
-54,6,37,1625921379.0,32.000000
-55,6,37,1625921379.0,32.000000
-55,6,37,1625921379.0,32.000000
-54,7,37,1625921379.0,32.000000
-54,6,37,1625921379.0,32.000000
-54,6,37,1625921379.0,32.000000
-54,6,37,1625921379.0,32.000000
-55,6,37,1625921379.0,32.000000
-55,6,37,1625921379.0,32.000000
-54,7,37,1625921379.0,32.000000
-55,6,36,1625921379.0,32.000000
-55,6,36,1625921379.0,32.000000
-55,6,37,1625921379.0,32.000000
-54,7,37,1625921379.0,32.000000
-55,6,37,1625921379.0,32.000000
-55,6,37,1625921379.0,32.000000
-55,6,37,1625921379.0,32.000000
-55,6,37,1625921379.0,32.000000
-55,6,37,1625921379.0,32.000000
-55,6,37,1625921379.0,32.000000
-55,6,37,1625921379.0,32.000000
-54,6,37,1625921379.0,32.000000
-54,6,37,1625921379.0,32.000000
-54,6,37,1625921379.0,32.000000
-54,6,37,1625921379.0,32.000000
-54,6,37,1625921379.0,32.000000
-55,6,37,1625921379.0,32.000000
-55,6,37,1625921379.0,32.000000
-55,6,36,1625921379.0,32.000000
-55,6,37,1625921379.0,32.000000
-55,6,37,1625921379.0,32.000000
-55,6,37,1625921379.0,32.000000
-55,6,37,1625921379.0,32.000000
-55,6,37,1625921379.0,32.000000
-55,6,37,1625921379.0,32.000000
-55,6,37,1625921379.0,32.000000
-55,6,37,1625921379.0,32.000000
-55,6,37,1625921379.0,32.000000
-54,6,37,1625921379.0,32.000000
-55,6,37,1625921379.0,32.000000
-55,6,37,1625921379.0,32.000000
-55,6,37,1625921379.0,32.000000
-55,6,37,1625921379.0,32.000000
-55,6,37,1625921379.0,32.000000
-55,6,37,1625921379.0,32.000000
-55,6,37,1625921379.0,32.000000
-55,6,37,1625921379.0,32.000000
-54,6,37,1625921379.0,32.000000
-54,6,37,1625921379.0,32.000000
-54,6,37,1625921379.0,32.000000
-55,6,37,1625921379.0,32.000000
-55,6,37,1625921379.0,32.000000
-55,6,37,1625921379.0,32.000000
-55,6,37,1625921379.0,32.000000
-55,6,37,1625921379.0,32.000000
-55,6,37,1625921379.0,32.000000
-55,6,37,1625921379.0,32.000000
-55,6,37,1625921379.0,32.000000
-55,6,37,1625921379.0,32.000000
-55,6,37,1625921379.0,32.000000
-55,6,37,1625921379.0,32.000000
-55,6,37,1625921379.0,32.000000
-55,6,37,1625921379.0,32.000000
-55,6,37,1625921379.0,32.000000
-55,6,37,1625921379.0,32.000000
-55,6,37,1625921379.0,32.000000
-55,6,37,1625921379.0,32.000000
-54,6,37,1625921379.0,32.000000
-54,6,37,1625921379.0,32.000000
-54,6,37,1625921379.0,32.000000
-55,6,37,1625921379.0,32.000000
-55,6,36,1625921379.0,32.000000
-55,6,37,1625921379.0,32.000000
-55,6,37,1625921379.0,32.000000
-55,6,36,1625921379.0,32.000000
-55,6,37,1625921379.0,32.000000
-54,6,37,1625921379.0,32.000000
-55,6,37,1625921379.0,32.000000
-55,6,37,1625921379.0,32.000000
-54,6,37,1625921379.0,32.000000
-54,6,37,1625921379.0,32.000000
-54,6,37,1625921379.0,32.000000
-55,6,37,1625921379.0,32.000000
-55,6,36,1625921379.0,32.000000
-55,6,37,1625921379.0,32.000000
-55,6,37,1625921379.0,32.000000
-55,6,36,1625921379.0,32.000000
-55,6,37,1625921379.0,32.000000
-55,6,37,1625921379.0,32.000000
-55,6,37,1625921379.0,32.000000
-55,6,37,1625921379.0,32.000000
-55,6,37,1625921379.0,32.000000
-54,6,37,1625921379.0,32.000000
-55,6,37,1625921379.0,32.000000
-55,6,37,1625921379.0,32.000000
-55,6,37,1625921379.0,32.000000
-55,6,37,1625921379.0,32.000000
-55,6,37,1625921379.0,32.000000
-55,6,37,1625921379.0,32.000000
-55,6,37,1625921379.0,32.000000
-55,6,37,1625921379.0,32.000000
-55,6,37,1625921379.0,32.000000
-55,6,36,1625921379.0,32.000000
-55,6,37,1625921379.0,32.000000
-55,6,37,1625921379.0,32.000000
-55,6,37,1625921379.0,32.000000
-55,6,37,1625921379.0,32.000000
-54,6,37,1625921379.0,32.000000
-55,6,37,1625921379.0,32.000000
-55,6,37,1625921379.0,32.000000
-55,6,37,1625921379.0,32.000000
-55,6,37,1625921379.0,32.000000
-55,6,37,1625921379.0,32.000000
-55,6,37,1625921379.0,32.000000
-55,6,37,1625921379.0,32.000000
-55,6,37,1625921379.0,32.000000
-55,6,37,1625921379.0,32.000000
-55,6,37,1625921379.0,32.000000
-55,6,37,1625921379.0,32.000000
-55,6,37,1625921379.0,32.000000
-55,7,36,1625921379.0,32.000000
-54,6,36,1625921379.0,32.000000
-55,6,38,1625921379.0,32.000000
-53,5,39,1625921379.0,32.000000
-54,5,39,1625921379.0,32.000000
-54,6,37,1625921379.0,32.000000
-55,6,37,1625921379.0,32.000000
-55,6,37,1625921379.0,32.000000
-54,5,37,1625921379.0,32.000000
-54,5,37,1625921379.0,32.000000
-54,6,37,1625921379.0,32.000000
-54,6,37,1625921379.0,32.000000
-54,6,37,1625921379.0,32.000000
-54,6,37,1625921379.0,32.000000
-54,6,37,1625921379.0,32.000000
-54,6,37,1625921379.0,32.000000
-55,6,37,1625921379.0,32.000000
-54,6,38,1625921379.0,32.000000
-55,6,37,1625921379.0,32.000000
-55,6,37,1625921379.0,32.000000
-55,6,37,1625921379.0,32.000000
-55,6,37,1625921379.0,32.000000
-55,6,37,1625921379.0,32.000000
-55,6,37,1625921379.0,32.000000
-54,6,37,1625921379.0,32.000000
-54,6,37,1625921379.0,32.000000
-54,6,37,1625921379.0,32.000000
-54,6,37,1625921379.0,32.000000
-54,6,37,1625921379.0,32.000000
-54,6,37,1625921379.0,32.000000
-55,6,37,1625921379.0,32.000000
-55,6,37,1625921379.0,32.000000
-54,6,37,1625921379.0,32.000000
-55,6,37,1625921379.0,32.000000
-55,6,37,1625921379.0,32.000000
-54,6,37,1625921379.0,32.000000
-54,6,37,1625921379.0,32.000000
-55,6,37,1625921379.0,32.000000
-54,6,37,1625921379.0,32.000000
-54,6,37,1625921379.0,32.000000
-54,6,37,1625921379.0,32.000000
-54,6,37,1625921379.0,32.000000
-55,6,38,1625921379.0,32.000000
-55,6,37,1625921379.0,32.000000
-55,6,37,1625921379.0,32.000000
-55,6,37,1625921379.0,32.000000
-54,6,37,1625921379.0,32.000000
-54,6,37,1625921379.0,32.000000
-55,6,37,1625921379.0,32.000000
-54,6,37,1625921379.0,32.000000
-54,6,38,1625921379.0,32.000000
-54,6,37,1625921379.0,32.000000
-55,6,37,1625921379.0,32.000000
-54,6,37,1625921379.0,32.000000
-54,6,37,1625921379.0,32.000000
-55,6,37,1625921379.0,32.000000
-55,6,37,1625921379.0,32.000000
-55,6,37,1625921379.0,32.000000
-55,6,37,1625921379.0,32.000000
-54,6,37,1625921379.0,32.000000
-55,6,37,1625921379.0,32.000000
-54,6,37,1625921379.0,32.000000
-54,6,37,1625921379.0,32.000000
-54,6,37,1625921379.0,32.000000
-55,6,37,1625921379.0,32.000000
-54,6,38,1625921379.0,32.000000
-55,6,37,1625921379.0,32.000000
-55,6,37,1625921379.0,32.000000
-55,6,37,1625921379.0,32.000000
-55,6,37,1625921379.0,32.000000
-55,6,37,1625921379.0,32.000000
-55,6,37,1625921379.0,32.000000
-55,6,37,1625921379.0,32.000000
-55,6,37,1625921379.0,32.000000
-55,6,36,1625921379.0,32.000000
-54,6,37,1625921379.0,32.000000
-55,6,37,1625921379.0,32.000000
-54,6,37,1625921379.0,32.000000
-55,6,37,1625921379.0,32.000000
-54,6,38,1625921379.0,32.000000
-55,6,38,1625921379.0,32.000000
-54,6,38,1625921379.0,32.000000
-55,6,37,1625921379.0,32.000000
-55,6,37,1625921379.0,32.000000
-55,6,37,1625921379.0,32.000000
-55,6,37,1625921379.0,32.000000
-55,6,37,1625921379.0,32.000000
-55,6,37,1625921379.0,32.000000
-54,6,37,1625921379.0,32.000000
-54,6,37,1625921379.0,32.000000
-54,6,37,1625921379.0,32.000000
-54,6,37,1625921379.0,32.000000
-54,6,38,1625921379.0,32.000000
-54,6,37,1625921379.0,32.000000
-55,6,37,1625921379.0,32.000000
-54,6,37,1625921379.0,32.000000
-55,6,37,1625921379.0,32.000000
-54,6,37,1625921379.0,32.000000
-54,6,37,1625921379.0,32.000000
-55,6,37,1625921379.0,32.000000
-54,6,37,1625921379.0,32.000000
-54,6,37,1625921379.0,32.000000
-55,6,37,1625921379.0,32.000000
-54,6,37,1625921379.0,32.000000
-54,6,37,1625921379.0,32.000000
-55,6,38,1625921379.0,32.000000
-55,6,37,1625921379.0,32.000000
-55,6,37,1625921379.0,32.000000
-54,6,37,1625921379.0,32.000000
-54,6,37,1625921379.0,32.000000
-54,6,37,1625921379.0,32.000000
-54,6,37,1625921379.0,32.000000
-54,6,37,1625921379.0,32.000000
-54,6,38,1625921379.0,32.000000
-55,6,37,1625921379.0,32.000000
-54,6,37,1625921379.0,32.000000
-54,6,37,1625921379.0,32.000000
-54,6,38,1625921379.0,32.000000
-55,6,37,1625921379.0,32.000000
-54,6,38,1625921379.0,32.000000
-54,6,37,1625921379.0,32.000000
-54,6,37,1625921379.0,32.000000
-54,6,38,1625921379.0,32.000000
-54,6,38,1625921379.0,32.000000
-54,6,37,1625921379.0,32.000000
-54,6,38,1625921379.0,32.000000
-54,6,38,1625921379.0,32.000000
-54,6,38,1625921379.0,32.000000
-54,6,38,1625921379.0,32.000000
-54,6,37,1625921379.0,32.000000
