ACC_X,ACC_Y,ACC_Z,start_time_unix,sampling_rate
-24,11,56,1624876821.0,32.000000
-21,9,60,1624876821.0,32.000000
-23,10,60,1624876821.0,32.000000
-23,10,60,1624876821.0,32.000000
-23,10,59,1624876821.0,32.000000
-23,10,59,1624876821.0,32.000000
-23,10,59,1624876821.0,32.000000
-24,10,59,1624876821.0,32.000000
-24,10,58,1624876821.0,32.000000
-24,10,59,1624876821.0,32.000000
-23,10,59,1624876821.0,32.000000
-24,10,59,1624876821.0,32.000000
-24,10,59,1624876821.0,32.000000
-24,10,59,1624876821.0,32.000000
-24,10,59,1624876821.0,32.000000
-24,10,59,1624876821.0,32.000000
-24,10,59,1624876821.0,32.000000
-24,10,59,1624876821.0,32.000000
-24,10,59,1624876821.0,32.000000
-24,10,59,1624876821.0,32.000000
-24,10,59,1624876821.0,32.000000
-25,10,59,1624876821.0,32.000000
-24,10,59,1624876821.0,32.000000
-24,10,59,1624876821.0,32.000000
-24,10,59,1624876821.0,32.000000
-25,10,59,1624876821.0,32.000000
-25,10,59,1624876821.0,32.000000
-24,10,59,1624876821.0,32.000000
-24,10,59,1624876821.0,32.000000
-24,10,59,1624876821.0,32.000000
-24,10,59,1624876821.0,32.000000
-25,10,59,1624876821.0,32.000000
-25,10,59,1624876821.0,32.000000
-24,10,59,1624876821.0,32.000000
-24,10,59,1624876821.0,32.000000
-24,10,59,1624876821.0,32.000000
-25,10,59,1624876821.0,32.000000
-24,10,58,1624876821.0,32.000000
-23,11,58,1624876821.0,32.000000
-25,11,60,1624876821.0,32.000000
-25,10,59,1624876821.0,32.000000
-25,10,59,1624876821.0,32.000000
-24,10,59,1624876821.0,32.000000
-24,10,59,1624876821.0,32.000000
-24,10,59,1624876821.0,32.000000
-24,10,59,1624876821.0,32.000000
-24,10,58,1624876821.0,32.000000
-24,10,59,1624876821.0,32.000000
-25,10,59,1624876821.0,32.000000
-25,10,59,1624876821.0,32.000000
-25,10,59,1624876821.0,32.000000
-24,10,59,1624876821.0,32.000000
-24,10,59,1624876821.0,32.000000
-24,10,59,1624876821.0,32.000000
-24,10,59,1624876821.0,32.000000
-24,10,59,1624876821.0,32.000000
-24,10,59,1624876821.0,32.000000
-25,10,59,1624876821.0,32.000000
-24,10,59,1624876821.0,32.000000
-24,10,59,1624876821.0,32.000000
-25,10,59,1624876821.0,32.000000
-24,10,59,1624876821.0,32.000000
-25,10,58,1624876821.0,32.000000
-24,10,59,1624876821.0,32.000000
-25,10,59,1624876821.0,32.000000
-24,10,59,1624876821.0,32.000000
-24,10,59,1624876821.0,32.000000
-25,10,59,1624876821.0,32.000000
-25,11,59,1624876821.0,32.000000
-25,11,59,1624876821.0,32.000000
-24,10,59,1624876821.0,32.000000
-24,11,59,1624876821.0,32.000000
-25,10,59,1624876821.0,32.000000
-24,10,59,1624876821.0,32.000000
-25,10,59,1624876821.0,32.000000
-24,10,59,1624876821.0,32.000000
-24,10,59,1624876821.0,32.000000
-24,10,59,1624876821.0,32.000000
-24,10,59,1624876821.0,32.000000
-24,10,59,1624876821.0,32.000000
-24,10,59,1624876821.0,32.000000
-24,10,59,1624876821.0,32.000000
-24,10,59,1624876821.0,32.000000
-24,10,59,1624876821.0,32.000000
-24,10,59,1624876821.0,32.000000
-24,10,59,1624876821.0,32.000000
-25,10,59,1624876821.0,32.000000
-24,10,59,1624876821.0,32.000000
-25,10,59,1624876821.0,32.000000
-22,11,59,1624876821.0,32.000000
-28,10,58,1624876821.0,32.000000
-26,12,58,1624876821.0,32.000000
-26,10,58,1624876821.0,32.000000
-22,11,59,1624876821.0,32.000000
-27,11,58,1624876821.0,32.000000
-24,9,59,1624876821.0,32.000000
-26,11,58,1624876821.0,32.000000
-23,10,59,1624876821.0,32.000000
-25,10,58,1624876821.0,32.000000
-24,10,59,1624876821.0,32.000000
-24,10,59,1624876821.0,32.000000
-24,10,59,1624876821.0,32.000000
-24,10,59,1624876821.0,32.000000
-25,10,59,1624876821.0,32.000000
-25,10,59,1624876821.0,32.000000
-24,10,59,1624876821.0,32.000000
-24,10,59,1624876821.0,32.000000
-25,10,59,1624876821.0,32.000000
-25,10,59,1624876821.0,32.000000
-24,10,59,1624876821.0,32.000000
-25,10,59,1624876821.0,32.000000
-25,10,59,1624876821.0,32.000000
-24,10,59,1624876821.0,32.000000
-24,10,59,1624876821.0,32.000000
-25,10,59,1624876821.0,32.000000
-25,10,59,1624876821.0,32.000000
-24,10,59,1624876821.0,32.000000
-24,10,59,1624876821.0,32.000000
-24,10,59,1624876821.0,32.000000
-25,10,59,1624876821.0,32.000000
-25,10,59,1624876821.0,32.000000
-25,10,59,1624876821.0,32.000000
-25,11,59,1624876821.0,32.000000
-24,10,59,1624876821.0,32.000000
-25,10,59,1624876821.0,32.000000
-24,10,59,1624876821.0,32.000000
-24,10,59,1624876821.0,32.000000
-25,10,59,1624876821.0,32.000000
-25,10,58,1624876821.0,32.000000
-24,10,59,1624876821.0,32.000000
-25,10,59,1624876821.0,32.000000
-25,10,59,1624876821.0,32.000000
-24,10,58,1624876821.0,32.000000
-25,10,58,1624876821.0,32.000000
-25,10,60,1624876821.0,32.000000
-26,9,57,1624876821.0,32.000000
-24,9,57,1624876821.0,32.000000
-22,9,60,1624876821.0,32.000000
-23,10,59,1624876821.0,32.000000
-26,9,58,1624876821.0,32.000000
-27,10,58,1624876821.0,32.000000
-26,10,58,1624876821.0,32.000000
-27,9,57,1624876821.0,32.000000
-29,9,56,1624876821.0,32.000000
-26,8,58,1624876821.0,32.000000
-27,10,58,1624876821.0,32.000000
-26,8,59,1624876821.0,32.000000
-25,8,58,1624876821.0,32.000000
-27,9,59,1624876821.0,32.000000
-31,8,58,1624876821.0,32.000000
-24,7,59,1624876821.0,32.000000
-22,7,58,1624876821.0,32.000000
-25,7,59,1624876821.0,32.000000
-25,7,60,1624876821.0,32.000000
-30,6,62,1624876821.0,32.000000
-28,6,58,1624876821.0,32.000000
-27,6,60,1624876821.0,32.000000
-22,6,60,1624876821.0,32.000000
-22,6,59,1624876821.0,32.000000
-21,6,60,1624876821.0,32.000000
-20,7,61,1624876821.0,32.000000
-20,8,58,1624876821.0,32.000000
-26,4,60,1624876821.0,32.000000
-19,7,62,1624876821.0,32.000000
-29,6,59,1624876821.0,32.000000
-25,5,59,1624876821.0,32.000000
-25,6,58,1624876821.0,32.000000
-22,8,60,1624876821.0,32.000000
-24,8,59,1624876821.0,32.000000
-24,7,60,1624876821.0,32.000000
-24,7,60,1624876821.0,32.000000
-24,7,60,1624876821.0,32.000000
-24,7,60,1624876821.0,32.000000
-25,7,59,1624876821.0,32.000000
-24,7,58,1624876821.0,32.000000
-23,8,60,1624876821.0,32.000000
-23,7,61,1624876821.0,32.000000
-23,7,60,1624876821.0,32.000000
-26,7,60,1624876821.0,32.000000
-25,7,59,1624876821.0,32.000000
-23,7,59,1624876821.0,32.000000
-24,7,60,1624876821.0,32.000000
-25,7,59,1624876821.0,32.000000
-24,7,60,1624876821.0,32.000000
-25,7,59,1624876821.0,32.000000
-25,7,59,1624876821.0,32.000000
-26,7,59,1624876821.0,32.000000
-26,7,59,1624876821.0,32.000000
-26,7,59,1624876821.0,32.000000
-25,7,59,1624876821.0,32.000000
-26,7,59,1624876821.0,32.000000
-26,7,59,1624876821.0,32.000000
-26,7,59,1624876821.0,32.000000
-26,7,59,1624876821.0,32.000000
-26,7,59,1624876821.0,32.000000
-26,7,59,1624876821.0,32.000000
-27,7,59,1624876821.0,32.000000
-27,7,58,1624876821.0,32.000000
-27,7,58,1624876821.0,32.000000
-27,7,58,1624876821.0,32.000000
-27,7,59,1624876821.0,32.000000
-27,7,58,1624876821.0,32.000000
-27,7,58,1624876821.0,32.000000
-27,7,58,1624876821.0,32.000000
-27,7,58,1624876821.0,32.000000
-27,7,58,1624876821.0,32.000000
-27,7,58,1624876821.0,32.000000
-27,7,58,1624876821.0,32.000000
-27,7,58,1624876821.0,32.000000
-27,7,58,1624876821.0,32.000000
-27,7,58,1624876821.0,32.000000
-27,7,58,1624876821.0,32.000000
-27,7,58,1624876821.0,32.000000
-28,7,58,1624876821.0,32.000000
-28,7,58,1624876821.0,32.000000
-27,7,58,1624876821.0,32.000000
-28,7,58,1624876821.0,32.000000
-27,7,58,1624876821.0,32.000000
-28,7,58,1624876821.0,32.000000
-28,7,58,1624876821.0,32.000000
-28,7,58,1624876821.0,32.000000
-27,7,58,1624876821.0,32.000000
-27,7,58,1624876821.0,32.000000
-27,7,58,1624876821.0,32.000000
-28,7,58,1624876821.0,32.000000
-27,7,58,1624876821.0,32.000000
-28,7,58,1624876821.0,32.000000
-28,7,58,1624876821.0,32.000000
-27,7,58,1624876821.0,32.000000
-28,7,58,1624876821.0,32.000000
-27,7,58,1624876821.0,32.000000
-28,7,58,1624876821.0,32.000000
-28,7,58,1624876821.0,32.000000
-28,7,58,1624876821.0,32.000000
-28,7,58,1624876821.0,32.000000
-28,7,58,1624876821.0,32.000000
-28,7,58,1624876821.0,32.000000
-28,7,58,1624876821.0,32.000000
-28,7,58,1624876821.0,32.000000
-28,7,58,1624876821.0,32.000000
-28,7,58,1624876821.0,32.000000
-28,7,58,1624876821.0,32.000000
-28,7,58,1624876821.0,32.000000
-27,7,58,1624876821.0,32.000000
-28,7,58,1624876821.0,32.000000
-28,7,58,1624876821.0,32.000000
-28,7,58,1624876821.0,32.000000
-28,7,58,1624876821.0,32.000000
-28,7,58,1624876821.0,32.000000
-28,7,58,1624876821.0,32.000000
-28,7,58,1624876821.0,32.000000
-28,7,58,1624876821.0,32.000000
-28,7,58,1624876821.0,32.000000
-28,7,58,1624876821.0,32.000000
-28,7,58,1624876821.0,32.000000
-28,7,58,1624876821.0,32.000000
-28,7,58,1624876821.0,32.000000
-28,7,58,1624876821.0,32.000000
-28,7,58,1624876821.0,32.000000
-28,7,58,1624876821.0,32.000000
-28,7,58,1624876821.0,32.000000
-28,7,58,1624876821.0,32.000000
-28,7,58,1624876821.0,32.000000
-28,7,58,1624876821.0,32.000000
-28,7,58,1624876821.0,32.000000
-28,7,58,1624876821.0,32.000000
-28,7,58,1624876821.0,32.000000
-28,7,58,1624876821.0,32.000000
-28,7,58,1624876821.0,32.000000
-28,7,58,1624876821.0,32.000000
-28,7,58,1624876821.0,32.000000
-28,7,58,1624876821.0,32.000000
-28,7,58,1624876821.0,32.000000
-28,7,58,1624876821.0,32.000000
-28,7,58,1624876821.0,32.000000
-28,7,58,1624876821.0,32.000000
-28,7,58,1624876821.0,32.000000
-28,7,58,1624876821.0,32.000000
-28,7,58,1624876821.0,32.000000
-28,7,58,1624876821.0,32.000000
-28,7,58,1624876821.0,32.000000
-28,7,58,1624876821.0,32.000000
-28,7,58,1624876821.0,32.000000
-28,7,58,1624876821.0,32.000000
-28,7,58,1624876821.0,32.000000
-28,7,58,1624876821.0,32.000000
-28,7,58,1624876821.0,32.000000
-28,7,58,1624876821.0,32.000000
-28,7,58,1624876821.0,32.000000
-28,7,58,1624876821.0,32.000000
-28,7,58,1624876821.0,32.000000
-28,7,58,1624876821.0,32.000000
-28,7,58,1624876821.0,32.000000
-28,7,58,1624876821.0,32.000000
-28,7,58,1624876821.0,32.000000
-28,7,58,1624876821.0,32.000000
-28,7,58,1624876821.0,32.000000
-28,7,58,1624876821.0,32.000000
-28,7,58,1624876821.0,32.000000
-28,7,58,1624876821.0,32.000000
-28,8,58,1624876821.0,32.000000
-28,7,58,1624876821.0,32.000000
-28,7,58,1624876821.0,32.000000
-28,7,58,1624876821.0,32.000000
-28,7,58,1624876821.0,32.000000
-28,7,58,1624876821.0,32.000000
-28,7,58,1624876821.0,32.000000
-28,7,58,1624876821.0,32.000000
-28,7,58,1624876821.0,32.000000
-28,7,58,1624876821.0,32.000000
-28,7,58,1624876821.0,32.000000
-28,7,58,1624876821.0,32.000000
-28,7,58,1624876821.0,32.000000
-28,7,58,1624876821.0,32.000000
-28,7,58,1624876821.0,32.000000
-28,7,58,1624876821.0,32.000000
-28,7,58,1624876821.0,32.000000
-28,7,58,1624876821.0,32.000000
-28,7,58,1624876821.0,32.000000
-28,7,58,1624876821.0,32.000000
-28,7,58,1624876821.0,32.000000
-28,7,58,1624876821.0,32.000000
-28,7,58,1624876821.0,32.000000
-28,7,58,1624876821.0,32.000000
-28,7,58,1624876821.0,32.000000
-28,7,58,1624876821.0,32.000000
-28,7,58,1624876821.0,32.000000
-28,7,58,1624876821.0,32.000000
-28,7,58,1624876821.0,32.000000
-28,7,58,1624876821.0,32.000000
-28,7,58,1624876821.0,32.000000
-28,7,58,1624876821.0,32.000000
-28,7,58,1624876821.0,32.000000
-28,7,58,1624876821.0,32.000000
-28,7,58,1624876821.0,32.000000
-28,7,58,1624876821.0,32.000000
-28,7,58,1624876821.0,32.000000
-28,7,58,1624876821.0,32.000000
-28,7,58,1624876821.0,32.000000
-28,7,58,1624876821.0,32.000000
-28,7,58,1624876821.0,32.000000
-28,7,58,1624876821.0,32.000000
-28,7,58,1624876821.0,32.000000
-28,7,58,1624876821.0,32.000000
-28,7,58,1624876821.0,32.000000
-28,7,58,1624876821.0,32.000000
-29,8,58,1624876821.0,32.000000
-28,7,58,1624876821.0,32.000000
-28,7,58,1624876821.0,32.000000
-28,7,58,1624876821.0,32.000000
-28,7,58,1624876821.0,32.000000
-28,7,58,1624876821.0,32.000000
-28,7,58,1624876821.0,32.000000
-28,7,58,1624876821.0,32.000000
-28,7,58,1624876821.0,32.000000
-28,7,58,1624876821.0,32.000000
-28,7,58,1624876821.0,32.000000
-28,7,58,1624876821.0,32.000000
-29,8,58,1624876821.0,32.000000
-28,7,58,1624876821.0,32.000000
-28,7,58,1624876821.0,32.000000
-28,7,58,1624876821.0,32.000000
-28,7,58,1624876821.0,32.000000
-28,7,58,1624876821.0,32.000000
-28,7,58,1624876821.0,32.000000
-28,7,58,1624876821.0,32.000000
-28,7,58,1624876821.0,32.000000
-28,7,58,1624876821.0,32.000000
-28,7,58,1624876821.0,32.000000
-28,7,58,1624876821.0,32.000000
-28,8,58,1624876821.0,32.000000
-28,7,57,1624876821.0,32.000000
-29,7,58,1624876821.0,32.000000
-29,8,58,1624876821.0,32.000000
-27,7,58,1624876821.0,32.000000
-28,7,57,1624876821.0,32.000000
-29,7,58,1624876821.0,32.000000
-29,7,58,1624876821.0,32.000000
-27,8,58,1624876821.0,32.000000
-28,7,57,1624876821.0,32.000000
-29,7,57,1624876821.0,32.000000
-28,8,58,1624876821.0,32.000000
-27,8,58,1624876821.0,32.000000
-28,7,58,1624876821.0,32.000000
-29,7,58,1624876821.0,32.000000
-28,7,58,1624876821.0,32.000000
-28,7,58,1624876821.0,32.000000
-28,7,58,1624876821.0,32.000000
-29,7,58,1624876821.0,32.000000
-29,7,58,1624876821.0,32.000000
-28,7,58,1624876821.0,32.000000
-28,7,57,1624876821.0,32.000000
-28,7,58,1624876821.0,32.000000
-28,7,58,1624876821.0,32.000000
-28,7,58,1624876821.0,32.000000
-28,8,58,1624876821.0,32.000000
-28,7,58,1624876821.0,32.000000
-28,7,58,1624876821.0,32.000000
-28,7,58,1624876821.0,32.000000
-28,8,57,1624876821.0,32.000000
-28,7,58,1624876821.0,32.000000
-28,7,58,1624876821.0,32.000000
-28,7,58,1624876821.0,32.000000
-28,7,58,1624876821.0,32.000000
-29,7,58,1624876821.0,32.000000
-28,7,58,1624876821.0,32.000000
-27,7,58,1624876821.0,32.000000
-28,7,58,1624876821.0,32.000000
-28,7,58,1624876821.0,32.000000
-28,7,58,1624876821.0,32.000000
-28,7,58,1624876821.0,32.000000
-28,7,58,1624876821.0,32.000000
-28,7,58,1624876821.0,32.000000
-28,8,57,1624876821.0,32.000000
-28,7,59,1624876821.0,32.000000
-28,7,58,1624876821.0,32.000000
-28,7,58,1624876821.0,32.000000
-29,8,57,1624876821.0,32.000000
-28,8,58,1624876821.0,32.000000
-27,7,58,1624876821.0,32.000000
-28,7,57,1624876821.0,32.000000
-29,8,58,1624876821.0,32.000000
-29,8,58,1624876821.0,32.000000
-27,7,58,1624876821.0,32.000000
-28,7,57,1624876821.0,32.000000
-29,7,58,1624876821.0,32.000000
-28,8,58,1624876821.0,32.000000
-27,7,58,1624876821.0,32.000000
-28,7,58,1624876821.0,32.000000
-28,7,58,1624876821.0,32.000000
-28,8,58,1624876821.0,32.000000
-29,7,58,1624876821.0,32.000000
-29,7,58,1624876821.0,32.000000
-28,7,58,1624876821.0,32.000000
-28,7,58,1624876821.0,32.000000
-28,7,58,1624876821.0,32.000000
-28,8,58,1624876821.0,32.000000
-28,7,58,1624876821.0,32.000000
-28,7,58,1624876821.0,32.000000
-28,7,58,1624876821.0,32.000000
-28,7,58,1624876821.0,32.000000
-28,7,58,1624876821.0,32.000000
-29,7,58,1624876821.0,32.000000
-29,7,58,1624876821.0,32.000000
-28,7,58,1624876821.0,32.000000
-28,7,58,1624876821.0,32.000000
-28,7,58,1624876821.0,32.000000
-28,7,58,1624876821.0,32.000000
-28,8,58,1624876821.0,32.000000
-28,8,58,1624876821.0,32.000000
-29,7,58,1624876821.0,32.000000
-28,7,58,1624876821.0,32.000000
-29,7,58,1624876821.0,32.000000
-28,7,58,1624876821.0,32.000000
-28,7,58,1624876821.0,32.000000
-29,7,57,1624876821.0,32.000000
-28,7,58,1624876821.0,32.000000
-28,7,58,1624876821.0,32.000000
-28,7,58,1624876821.0,32.000000
-29,7,58,1624876821.0,32.000000
-29,7,58,1624876821.0,32.000000
-29,7,58,1624876821.0,32.000000
-28,7,58,1624876821.0,32.000000
-28,7,58,1624876821.0,32.000000
-28,7,58,1624876821.0,32.000000
-28,7,58,1624876821.0,32.000000
-28,7,58,1624876821.0,32.000000
-28,7,58,1624876821.0,32.000000
-28,7,58,1624876821.0,32.000000
-28,7,58,1624876821.0,32.000000
-28,7,58,1624876821.0,32.000000
-28,7,58,1624876821.0,32.000000
-28,7,58,1624876821.0,32.000000
-28,7,58,1624876821.0,32.000000
-28,7,58,1624876821.0,32.000000
-28,7,58,1624876821.0,32.000000
-28,7,58,1624876821.0,32.000000
-28,7,58,1624876821.0,32.000000
-28,8,58,1624876821.0,32.000000
-28,7,58,1624876821.0,32.000000
-28,7,58,1624876821.0,32.000000
-28,7,58,1624876821.0,32.000000
-29,8,58,1624876821.0,32.000000
-28,8,57,1624876821.0,32.000000
-28,7,58,1624876821.0,32.000000
-28,8,58,1624876821.0,32.000000
-28,7,58,1624876821.0,32.000000
-28,7,58,1624876821.0,32.000000
-28,7,58,1624876821.0,32.000000
-29,7,58,1624876821.0,32.000000
-28,7,58,1624876821.0,32.000000
-28,7,58,1624876821.0,32.000000
-28,7,58,1624876821.0,32.000000
-28,7,58,1624876821.0,32.000000
-28,8,58,1624876821.0,32.000000
-28,7,58,1624876821.0,32.000000
-28,7,58,1624876821.0,32.000000
-28,7,58,1624876821.0,32.000000
-28,8,58,1624876821.0,32.000000
-28,7,58,1624876821.0,32.000000
-29,7,58,1624876821.0,32.000000
-29,7,58,1624876821.0,32.000000
-28,8,58,1624876821.0,32.000000
-28,7,58,1624876821.0,32.000000
-28,7,58,1624876821.0,32.000000
-29,8,58,1624876821.0,32.000000
-29,7,58,1624876821.0,32.000000
-28,8,57,1624876821.0,32.000000
-29,8,58,1624876821.0,32.000000
-29,8,58,1624876821.0,32.000000
-28,7,58,1624876821.0,32.000000
-28,7,58,1624876821.0,32.000000
-28,7,58,1624876821.0,32.000000
-28,7,58,1624876821.0,32.000000
-29,7,58,1624876821.0,32.000000
-29,8,58,1624876821.0,32.000000
-28,7,58,1624876821.0,32.000000
-29,8,58,1624876821.0,32.000000
-29,7,58,1624876821.0,32.000000
-28,7,58,1624876821.0,32.000000
-29,7,58,1624876821.0,32.000000
-29,7,58,1624876821.0,32.000000
-29,7,57,1624876821.0,32.000000
-28,8,58,1624876821.0,32.000000
-29,7,58,1624876821.0,32.000000
-29,7,58,1624876821.0,32.000000
-29,7,58,1624876821.0,32.000000
-29,7,58,1624876821.0,32.000000
-28,7,58,1624876821.0,32.000000
-29,8,58,1624876821.0,32.000000
-29,7,58,1624876821.0,32.000000
-29,7,58,1624876821.0,32.000000
-28,8,58,1624876821.0,32.000000
-28,7,57,1624876821.0,32.000000
-29,7,58,1624876821.0,32.000000
-29,7,58,1624876821.0,32.000000
-28,7,58,1624876821.0,32.000000
-28,8,58,1624876821.0,32.000000
-29,7,58,1624876821.0,32.000000
-28,8,58,1624876821.0,32.000000
-28,8,58,1624876821.0,32.000000
-28,7,58,1624876821.0,32.000000
-29,7,58,1624876821.0,32.000000
-28,7,58,1624876821.0,32.000000
-29,7,58,1624876821.0,32.000000
-28,7,58,1624876821.0,32.000000
-29,8,58,1624876821.0,32.000000
-28,7,58,1624876821.0,32.000000
-28,7,58,1624876821.0,32.000000
-29,8,58,1624876821.0,32.000000
-28,8,58,1624876821.0,32.000000
-28,7,57,1624876821.0,32.000000
-28,8,58,1624876821.0,32.000000
-28,8,58,1624876821.0,32.000000
-28,8,58,1624876821.0,32.000000
-29,7,58,1624876821.0,32.000000
-28,7,58,1624876821.0,32.000000
-29,7,58,1624876821.0,32.000000
-28,8,58,1624876821.0,32.000000
-28,7,58,1624876821.0,32.000000
-28,7,58,1624876821.0,32.000000
-28,8,58,1624876821.0,32.000000
-28,7,58,1624876821.0,32.000000
-29,8,58,1624876821.0,32.000000
-28,8,58,1624876821.0,32.000000
-28,7,58,1624876821.0,32.000000
-29,8,58,1624876821.0,32.000000
-28,7,58,1624876821.0,32.000000
-28,8,58,1624876821.0,32.000000
-29,7,58,1624876821.0,32.000000
-29,7,58,1624876821.0,32.000000
-28,7,58,1624876821.0,32.000000
-28,7,58,1624876821.0,32.000000
-29,7,58,1624876821.0,32.000000
-28,8,58,1624876821.0,32.000000
-28,8,58,1624876821.0,32.000000
-29,8,58,1624876821.0,32.000000
-29,7,58,1624876821.0,32.000000
-29,8,58,1624876821.0,32.000000
-28,7,58,1624876821.0,32.000000
-28,8,58,1624876821.0,32.000000
-28,8,58,1624876821.0,32.000000
-29,7,58,1624876821.0,32.000000
-29,8,58,1624876821.0,32.000000
-28,8,58,1624876821.0,32.000000
-29,7,57,1624876821.0,32.000000
-29,7,57,1624876821.0,32.000000
-28,8,58,1624876821.0,32.000000
-27,8,58,1624876821.0,32.000000
-29,8,58,1624876821.0,32.000000
-29,7,58,1624876821.0,32.000000
-29,7,58,1624876821.0,32.000000
-28,8,58,1624876821.0,32.000000
-28,8,58,1624876821.0,32.000000
-29,8,58,1624876821.0,32.000000
-28,8,58,1624876821.0,32.000000
-28,8,58,1624876821.0,32.000000
-29,7,58,1624876821.0,32.000000
-29,7,58,1624876821.0,32.000000
-29,7,57,1624876821.0,32.000000
-28,8,58,1624876821.0,32.000000
-28,8,58,1624876821.0,32.000000
-27,8,58,1624876821.0,32.000000
-28,8,58,1624876821.0,32.000000
-31,6,57,1624876821.0,32.000000
-29,8,58,1624876821.0,32.000000
-27,8,58,1624876821.0,32.000000
-28,7,58,1624876821.0,32.000000
-30,7,58,1624876821.0,32.000000
-29,8,58,1624876821.0,32.000000
-28,7,57,1624876821.0,32.000000
-29,7,58,1624876821.0,32.000000
-29,8,58,1624876821.0,32.000000
-29,8,58,1624876821.0,32.000000
-28,7,58,1624876821.0,32.000000
-28,8,57,1624876821.0,32.000000
-28,8,58,1624876821.0,32.000000
-29,7,58,1624876821.0,32.000000
-31,7,57,1624876821.0,32.000000
-31,8,58,1624876821.0,32.000000
-26,8,58,1624876821.0,32.000000
-26,7,58,1624876821.0,32.000000
-28,8,57,1624876821.0,32.000000
-29,8,58,1624876821.0,32.000000
-29,7,58,1624876821.0,32.000000
-29,7,58,1624876821.0,32.000000
-29,7,57,1624876821.0,32.000000
-26,7,59,1624876821.0,32.000000
-24,6,58,1624876821.0,32.000000
-25,4,64,1624876821.0,32.000000
-20,3,63,1624876821.0,32.000000
-20,5,61,1624876821.0,32.000000
-18,5,61,1624876821.0,32.000000
-21,9,62,1624876821.0,32.000000
-18,10,62,1624876821.0,32.000000
-18,14,59,1624876821.0,32.000000
-17,15,57,1624876821.0,32.000000
-26,18,55,1624876821.0,32.000000
-27,18,54,1624876821.0,32.000000
-27,19,54,1624876821.0,32.000000
-27,19,55,1624876821.0,32.000000
-26,15,57,1624876821.0,32.000000
-23,13,60,1624876821.0,32.000000
-21,13,59,1624876821.0,32.000000
-20,13,60,1624876821.0,32.000000
-18,13,62,1624876821.0,32.000000
-18,13,61,1624876821.0,32.000000
-18,13,61,1624876821.0,32.000000
-20,12,61,1624876821.0,32.000000
-20,13,58,1624876821.0,32.000000
-22,12,60,1624876821.0,32.000000
-22,12,60,1624876821.0,32.000000
-23,12,60,1624876821.0,32.000000
-22,12,58,1624876821.0,32.000000
-21,13,59,1624876821.0,32.000000
-21,13,58,1624876821.0,32.000000
-22,13,58,1624876821.0,32.000000
-22,13,60,1624876821.0,32.000000
-22,12,59,1624876821.0,32.000000
-22,12,59,1624876821.0,32.000000
-22,12,60,1624876821.0,32.000000
-22,11,60,1624876821.0,32.000000
-22,11,59,1624876821.0,32.000000
-22,12,60,1624876821.0,32.000000
-21,12,60,1624876821.0,32.000000
-22,12,59,1624876821.0,32.000000
-22,12,59,1624876821.0,32.000000
-22,12,60,1624876821.0,32.000000
-22,12,59,1624876821.0,32.000000
-22,11,59,1624876821.0,32.000000
-22,11,60,1624876821.0,32.000000
-22,11,60,1624876821.0,32.000000
-22,11,59,1624876821.0,32.000000
-22,12,59,1624876821.0,32.000000
-22,11,59,1624876821.0,32.000000
-22,11,60,1624876821.0,32.000000
-22,11,60,1624876821.0,32.000000
-22,11,59,1624876821.0,32.000000
-22,11,59,1624876821.0,32.000000
-22,11,59,1624876821.0,32.000000
-22,11,59,1624876821.0,32.000000
-22,11,59,1624876821.0,32.000000
-22,11,60,1624876821.0,32.000000
-22,11,60,1624876821.0,32.000000
-21,11,59,1624876821.0,32.000000
-22,11,60,1624876821.0,32.000000
-23,11,60,1624876821.0,32.000000
-22,11,60,1624876821.0,32.000000
-23,11,59,1624876821.0,32.000000
-22,11,59,1624876821.0,32.000000
-22,11,59,1624876821.0,32.000000
-22,11,59,1624876821.0,32.000000
-22,11,59,1624876821.0,32.000000
-22,11,59,1624876821.0,32.000000
-22,11,59,1624876821.0,32.000000
-22,11,59,1624876821.0,32.000000
-22,11,59,1624876821.0,32.000000
-22,11,59,1624876821.0,32.000000
-22,12,59,1624876821.0,32.000000
-22,11,60,1624876821.0,32.000000
-22,11,60,1624876821.0,32.000000
-22,11,60,1624876821.0,32.000000
-22,11,59,1624876821.0,32.000000
-23,11,59,1624876821.0,32.000000
-22,11,59,1624876821.0,32.000000
-22,11,59,1624876821.0,32.000000
-22,11,59,1624876821.0,32.000000
-22,11,59,1624876821.0,32.000000
-23,11,60,1624876821.0,32.000000
-22,11,59,1624876821.0,32.000000
-22,11,60,1624876821.0,32.000000
-22,11,59,1624876821.0,32.000000
-22,11,59,1624876821.0,32.000000
-22,11,59,1624876821.0,32.000000
-22,11,59,1624876821.0,32.000000
-22,11,60,1624876821.0,32.000000
-22,11,59,1624876821.0,32.000000
-22,11,59,1624876821.0,32.000000
-22,11,59,1624876821.0,32.000000
-23,11,60,1624876821.0,32.000000
-22,11,59,1624876821.0,32.000000
-22,11,59,1624876821.0,32.000000
-22,11,59,1624876821.0,32.000000
-22,11,59,1624876821.0,32.000000
-22,11,59,1624876821.0,32.000000
-22,11,59,1624876821.0,32.000000
-22,11,59,1624876821.0,32.000000
-22,11,59,1624876821.0,32.000000
-22,11,59,1624876821.0,32.000000
-23,11,59,1624876821.0,32.000000
-23,11,59,1624876821.0,32.000000
-23,11,59,1624876821.0,32.000000
-22,11,59,1624876821.0,32.000000
-23,12,59,1624876821.0,32.000000
-23,11,59,1624876821.0,32.000000
-23,12,59,1624876821.0,32.000000
-23,11,59,1624876821.0,32.000000
-22,11,59,1624876821.0,32.000000
-22,11,59,1624876821.0,32.000000
-23,11,59,1624876821.0,32.000000
-22,11,59,1624876821.0,32.000000
-23,12,60,1624876821.0,32.000000
-23,11,59,1624876821.0,32.000000
-22,11,59,1624876821.0,32.000000
-23,11,59,1624876821.0,32.000000
-23,12,59,1624876821.0,32.000000
-23,11,59,1624876821.0,32.000000
-22,11,59,1624876821.0,32.000000
-22,11,60,1624876821.0,32.000000
-22,12,59,1624876821.0,32.000000
-23,11,59,1624876821.0,32.000000
-23,11,59,1624876821.0,32.000000
-23,11,59,1624876821.0,32.000000
-23,11,59,1624876821.0,32.000000
-23,11,59,1624876821.0,32.000000
-23,11,59,1624876821.0,32.000000
-23,11,59,1624876821.0,32.000000
-22,11,59,1624876821.0,32.000000
-22,11,60,1624876821.0,32.000000
-22,11,59,1624876821.0,32.000000
-22,11,59,1624876821.0,32.000000
-23,11,59,1624876821.0,32.000000
-23,11,59,1624876821.0,32.000000
-23,11,59,1624876821.0,32.000000
-23,11,59,1624876821.0,32.000000
-23,11,59,1624876821.0,32.000000
-23,11,59,1624876821.0,32.000000
-23,11,59,1624876821.0,32.000000
-22,11,59,1624876821.0,32.000000
-22,11,59,1624876821.0,32.000000
-23,11,59,1624876821.0,32.000000
-23,12,59,1624876821.0,32.000000
-23,11,59,1624876821.0,32.000000
-23,11,59,1624876821.0,32.000000
-23,11,59,1624876821.0,32.000000
-23,12,59,1624876821.0,32.000000
-22,11,59,1624876821.0,32.000000
-22,11,59,1624876821.0,32.000000
-22,11,59,1624876821.0,32.000000
-23,11,59,1624876821.0,32.000000
-23,11,59,1624876821.0,32.000000
-23,11,59,1624876821.0,32.000000
-23,11,59,1624876821.0,32.000000
-23,11,59,1624876821.0,32.000000
-23,11,59,1624876821.0,32.000000
-23,11,59,1624876821.0,32.000000
-22,12,59,1624876821.0,32.000000
-22,11,59,1624876821.0,32.000000
-23,11,59,1624876821.0,32.000000
-23,11,59,1624876821.0,32.000000
-23,11,60,1624876821.0,32.000000
-23,11,59,1624876821.0,32.000000
-23,11,60,1624876821.0,32.000000
-23,11,59,1624876821.0,32.000000
-22,11,59,1624876821.0,32.000000
-23,11,59,1624876821.0,32.000000
-23,11,59,1624876821.0,32.000000
-22,11,59,1624876821.0,32.000000
-23,11,59,1624876821.0,32.000000
-23,11,59,1624876821.0,32.000000
-23,11,59,1624876821.0,32.000000
-23,11,59,1624876821.0,32.000000
-23,11,59,1624876821.0,32.000000
-23,11,59,1624876821.0,32.000000
-23,11,59,1624876821.0,32.000000
-23,11,59,1624876821.0,32.000000
-22,11,59,1624876821.0,32.000000
-23,11,59,1624876821.0,32.000000
-23,11,59,1624876821.0,32.000000
-20,11,61,1624876821.0,32.000000
-20,10,60,1624876821.0,32.000000
-23,10,59,1624876821.0,32.000000
-23,10,60,1624876821.0,32.000000
-24,11,59,1624876821.0,32.000000
-25,11,58,1624876821.0,32.000000
-26,11,57,1624876821.0,32.000000
-24,11,60,1624876821.0,32.000000
-25,11,60,1624876821.0,32.000000
-23,11,60,1624876821.0,32.000000
-23,11,60,1624876821.0,32.000000
-19,12,61,1624876821.0,32.000000
-19,12,61,1624876821.0,32.000000
-18,13,60,1624876821.0,32.000000
-20,13,59,1624876821.0,32.000000
-20,13,59,1624876821.0,32.000000
-20,14,58,1624876821.0,32.000000
-20,14,58,1624876821.0,32.000000
-19,14,59,1624876821.0,32.000000
-16,14,60,1624876821.0,32.000000
-15,14,60,1624876821.0,32.000000
-15,15,61,1624876821.0,32.000000
-15,14,60,1624876821.0,32.000000
-14,14,61,1624876821.0,32.000000
-14,14,61,1624876821.0,32.000000
-14,14,61,1624876821.0,32.000000
-16,14,60,1624876821.0,32.000000
-14,14,62,1624876821.0,32.000000
-14,14,61,1624876821.0,32.000000
-15,14,61,1624876821.0,32.000000
-15,14,61,1624876821.0,32.000000
-14,14,61,1624876821.0,32.000000
-15,14,60,1624876821.0,32.000000
-15,14,60,1624876821.0,32.000000
-14,14,61,1624876821.0,32.000000
-14,14,61,1624876821.0,32.000000
-15,14,60,1624876821.0,32.000000
-15,14,61,1624876821.0,32.000000
-14,14,61,1624876821.0,32.000000
-15,14,60,1624876821.0,32.000000
-13,14,61,1624876821.0,32.000000
-13,14,61,1624876821.0,32.000000
-13,13,61,1624876821.0,32.000000
-14,13,61,1624876821.0,32.000000
-13,14,62,1624876821.0,32.000000
-14,14,61,1624876821.0,32.000000
-14,13,61,1624876821.0,32.000000
-14,14,61,1624876821.0,32.000000
-14,14,61,1624876821.0,32.000000
-14,14,61,1624876821.0,32.000000
-14,14,61,1624876821.0,32.000000
-14,14,61,1624876821.0,32.000000
-14,13,61,1624876821.0,32.000000
-14,13,62,1624876821.0,32.000000
-14,14,61,1624876821.0,32.000000
-14,14,61,1624876821.0,32.000000
-14,14,61,1624876821.0,32.000000
-15,14,60,1624876821.0,32.000000
-14,14,61,1624876821.0,32.000000
-13,14,62,1624876821.0,32.000000
-13,14,61,1624876821.0,32.000000
-13,14,61,1624876821.0,32.000000
-12,13,62,1624876821.0,32.000000
-12,14,62,1624876821.0,32.000000
-14,14,61,1624876821.0,32.000000
-13,14,60,1624876821.0,32.000000
-12,14,61,1624876821.0,32.000000
-11,15,61,1624876821.0,32.000000
-12,15,60,1624876821.0,32.000000
-13,16,60,1624876821.0,32.000000
-11,15,61,1624876821.0,32.000000
-11,16,61,1624876821.0,32.000000
-10,15,61,1624876821.0,32.000000
-11,15,61,1624876821.0,32.000000
-12,15,61,1624876821.0,32.000000
-11,15,61,1624876821.0,32.000000
-11,15,61,1624876821.0,32.000000
-12,15,61,1624876821.0,32.000000
-11,15,61,1624876821.0,32.000000
-10,15,62,1624876821.0,32.000000
-10,16,62,1624876821.0,32.000000
-8,15,62,1624876821.0,32.000000
-7,16,62,1624876821.0,32.000000
-7,16,62,1624876821.0,32.000000
-8,16,61,1624876821.0,32.000000
-13,17,60,1624876821.0,32.000000
-11,18,62,1624876821.0,32.000000
-10,19,61,1624876821.0,32.000000
-9,20,59,1624876821.0,32.000000
-7,21,57,1624876821.0,32.000000
-10,22,59,1624876821.0,32.000000
-9,22,59,1624876821.0,32.000000
-10,23,58,1624876821.0,32.000000
-11,24,55,1624876821.0,32.000000
-10,24,56,1624876821.0,32.000000
-9,23,58,1624876821.0,32.000000
-10,23,58,1624876821.0,32.000000
-8,22,59,1624876821.0,32.000000
-8,22,59,1624876821.0,32.000000
-8,21,59,1624876821.0,32.000000
-11,21,60,1624876821.0,32.000000
-11,20,59,1624876821.0,32.000000
-9,21,59,1624876821.0,32.000000
-11,20,59,1624876821.0,32.000000
-11,20,61,1624876821.0,32.000000
-10,20,61,1624876821.0,32.000000
-11,19,59,1624876821.0,32.000000
-11,19,60,1624876821.0,32.000000
-10,19,62,1624876821.0,32.000000
-12,19,61,1624876821.0,32.000000
-12,19,58,1624876821.0,32.000000
-11,20,59,1624876821.0,32.000000
-9,19,61,1624876821.0,32.000000
-9,19,59,1624876821.0,32.000000
-10,19,59,1624876821.0,32.000000
-10,19,60,1624876821.0,32.000000
-8,19,60,1624876821.0,32.000000
-8,19,60,1624876821.0,32.000000
-11,17,60,1624876821.0,32.000000
-12,17,60,1624876821.0,32.000000
-14,17,60,1624876821.0,32.000000
-14,17,59,1624876821.0,32.000000
-15,15,60,1624876821.0,32.000000
-19,13,58,1624876821.0,32.000000
-18,16,59,1624876821.0,32.000000
-18,17,59,1624876821.0,32.000000
-15,18,59,1624876821.0,32.000000
-19,17,64,1624876821.0,32.000000
-13,17,62,1624876821.0,32.000000
-14,16,60,1624876821.0,32.000000
-13,14,59,1624876821.0,32.000000
-13,14,61,1624876821.0,32.000000
-15,13,62,1624876821.0,32.000000
-13,13,62,1624876821.0,32.000000
-11,15,60,1624876821.0,32.000000
-16,15,59,1624876821.0,32.000000
-15,14,60,1624876821.0,32.000000
-11,16,59,1624876821.0,32.000000
-13,16,58,1624876821.0,32.000000
-14,16,59,1624876821.0,32.000000
-15,15,60,1624876821.0,32.000000
-13,15,61,1624876821.0,32.000000
-12,13,64,1624876821.0,32.000000
-10,13,62,1624876821.0,32.000000
-10,13,62,1624876821.0,32.000000
-11,11,61,1624876821.0,32.000000
-10,12,61,1624876821.0,32.000000
-13,12,60,1624876821.0,32.000000
-12,11,63,1624876821.0,32.000000
-12,11,63,1624876821.0,32.000000
-15,9,65,1624876821.0,32.000000
-13,10,64,1624876821.0,32.000000
-17,7,63,1624876821.0,32.000000
-15,8,58,1624876821.0,32.000000
-11,9,64,1624876821.0,32.000000
-12,10,60,1624876821.0,32.000000
-16,11,55,1624876821.0,32.000000
-17,10,56,1624876821.0,32.000000
-20,9,61,1624876821.0,32.000000
-19,10,63,1624876821.0,32.000000
-19,9,63,1624876821.0,32.000000
-19,8,63,1624876821.0,32.000000
-17,10,60,1624876821.0,32.000000
-13,10,61,1624876821.0,32.000000
-8,5,63,1624876821.0,32.000000
-10,4,63,1624876821.0,32.000000
-9,0,64,1624876821.0,32.000000
-11,0,60,1624876821.0,32.000000
-7,2,56,1624876821.0,32.000000
-7,1,58,1624876821.0,32.000000
-10,1,63,1624876821.0,32.000000
-13,0,68,1624876821.0,32.000000
-11,-1,77,1624876821.0,32.000000
-8,1,68,1624876821.0,32.000000
-5,3,61,1624876821.0,32.000000
-7,3,56,1624876821.0,32.000000
-9,3,63,1624876821.0,32.000000
-7,3,64,1624876821.0,32.000000
-8,3,65,1624876821.0,32.000000
-8,4,64,1624876821.0,32.000000
-10,4,62,1624876821.0,32.000000
-10,5,62,1624876821.0,32.000000
-11,5,60,1624876821.0,32.000000
-13,4,65,1624876821.0,32.000000
-10,5,63,1624876821.0,32.000000
-9,5,65,1624876821.0,32.000000
-10,8,59,1624876821.0,32.000000
-13,7,61,1624876821.0,32.000000
-10,5,64,1624876821.0,32.000000
-10,5,63,1624876821.0,32.000000
-10,6,61,1624876821.0,32.000000
-14,5,62,1624876821.0,32.000000
-11,6,64,1624876821.0,32.000000
-13,6,65,1624876821.0,32.000000
-10,6,63,1624876821.0,32.000000
-10,6,62,1624876821.0,32.000000
-9,6,62,1624876821.0,32.000000
-10,6,62,1624876821.0,32.000000
-11,4,63,1624876821.0,32.000000
-11,7,62,1624876821.0,32.000000
-11,7,62,1624876821.0,32.000000
-14,6,63,1624876821.0,32.000000
-14,6,64,1624876821.0,32.000000
-13,7,60,1624876821.0,32.000000
-11,6,62,1624876821.0,32.000000
-5,7,63,1624876821.0,32.000000
-8,5,63,1624876821.0,32.000000
-8,6,63,1624876821.0,32.000000
-4,5,64,1624876821.0,32.000000
-5,5,65,1624876821.0,32.000000
-8,5,63,1624876821.0,32.000000
-8,5,62,1624876821.0,32.000000
-6,5,63,1624876821.0,32.000000
-7,6,61,1624876821.0,32.000000
-6,5,62,1624876821.0,32.000000
-8,3,62,1624876821.0,32.000000
-5,5,64,1624876821.0,32.000000
-5,6,64,1624876821.0,32.000000
-4,5,62,1624876821.0,32.000000
-6,4,63,1624876821.0,32.000000
-4,4,65,1624876821.0,32.000000
-4,4,64,1624876821.0,32.000000
-4,4,63,1624876821.0,32.000000
-7,4,63,1624876821.0,32.000000
-7,4,63,1624876821.0,32.000000
-7,5,63,1624876821.0,32.000000
-7,5,63,1624876821.0,32.000000
-7,4,63,1624876821.0,32.000000
-6,4,64,1624876821.0,32.000000
-6,4,62,1624876821.0,32.000000
-7,4,64,1624876821.0,32.000000
-5,5,63,1624876821.0,32.000000
-6,4,63,1624876821.0,32.000000
-9,5,61,1624876821.0,32.000000
-7,4,63,1624876821.0,32.000000
-3,5,64,1624876821.0,32.000000
-3,5,67,1624876821.0,32.000000
1,5,64,1624876821.0,32.000000
-2,5,64,1624876821.0,32.000000
-6,5,63,1624876821.0,32.000000
-8,6,62,1624876821.0,32.000000
-6,6,62,1624876821.0,32.000000
-8,5,63,1624876821.0,32.000000
-7,5,63,1624876821.0,32.000000
-7,4,64,1624876821.0,32.000000
-8,5,64,1624876821.0,32.000000
-9,4,63,1624876821.0,32.000000
-8,5,62,1624876821.0,32.000000
-4,4,63,1624876821.0,32.000000
-6,4,63,1624876821.0,32.000000
-11,6,61,1624876821.0,32.000000
-8,5,63,1624876821.0,32.000000
-4,4,64,1624876821.0,32.000000
-12,4,61,1624876821.0,32.000000
-7,4,64,1624876821.0,32.000000
-5,5,65,1624876821.0,32.000000
-8,4,63,1624876821.0,32.000000
-12,5,61,1624876821.0,32.000000
-7,4,63,1624876821.0,32.000000
-12,5,63,1624876821.0,32.000000
-14,5,62,1624876821.0,32.000000
-12,5,62,1624876821.0,32.000000
-10,5,62,1624876821.0,32.000000
-12,5,62,1624876821.0,32.000000
-11,5,63,1624876821.0,32.000000
-11,5,63,1624876821.0,32.000000
-10,5,63,1624876821.0,32.000000
-11,5,63,1624876821.0,32.000000
-11,5,62,1624876821.0,32.000000
-10,5,63,1624876821.0,32.000000
-10,5,63,1624876821.0,32.000000
-11,5,62,1624876821.0,32.000000
-11,5,63,1624876821.0,32.000000
-11,6,62,1624876821.0,32.000000
-11,6,62,1624876821.0,32.000000
-10,5,63,1624876821.0,32.000000
-10,6,63,1624876821.0,32.000000
-11,6,62,1624876821.0,32.000000
-11,5,63,1624876821.0,32.000000
-11,5,62,1624876821.0,32.000000
-11,5,63,1624876821.0,32.000000
-11,5,63,1624876821.0,32.000000
-11,5,63,1624876821.0,32.000000
-11,5,63,1624876821.0,32.000000
-13,6,62,1624876821.0,32.000000
-13,6,63,1624876821.0,32.000000
-10,6,63,1624876821.0,32.000000
-11,5,62,1624876821.0,32.000000
-13,5,62,1624876821.0,32.000000
-11,6,63,1624876821.0,32.000000
-12,6,63,1624876821.0,32.000000
-13,5,62,1624876821.0,32.000000
-13,6,62,1624876821.0,32.000000
-12,6,62,1624876821.0,32.000000
-12,6,62,1624876821.0,32.000000
-11,5,63,1624876821.0,32.000000
-12,6,64,1624876821.0,32.000000
-12,6,63,1624876821.0,32.000000
-12,6,63,1624876821.0,32.000000
-12,6,62,1624876821.0,32.000000
-12,6,62,1624876821.0,32.000000
-12,6,62,1624876821.0,32.000000
-12,6,62,1624876821.0,32.000000
-12,6,62,1624876821.0,32.000000
-12,5,63,1624876821.0,32.000000
-12,6,63,1624876821.0,32.000000
-12,6,63,1624876821.0,32.000000
-12,6,63,1624876821.0,32.000000
-12,6,62,1624876821.0,32.000000
-12,6,62,1624876821.0,32.000000
-12,6,62,1624876821.0,32.000000
-12,6,62,1624876821.0,32.000000
-12,6,63,1624876821.0,32.000000
-12,6,62,1624876821.0,32.000000
-12,6,62,1624876821.0,32.000000
-13,6,62,1624876821.0,32.000000
-13,6,62,1624876821.0,32.000000
-11,6,63,1624876821.0,32.000000
-11,6,63,1624876821.0,32.000000
-11,6,62,1624876821.0,32.000000
-12,6,63,1624876821.0,32.000000
-12,6,63,1624876821.0,32.000000
-11,6,63,1624876821.0,32.000000
-12,6,62,1624876821.0,32.000000
-12,6,62,1624876821.0,32.000000
-12,6,62,1624876821.0,32.000000
-12,6,63,1624876821.0,32.000000
-11,5,63,1624876821.0,32.000000
-11,5,63,1624876821.0,32.000000
-12,6,62,1624876821.0,32.000000
-11,6,63,1624876821.0,32.000000
-12,6,62,1624876821.0,32.000000
-13,5,62,1624876821.0,32.000000
-11,5,63,1624876821.0,32.000000
-11,5,61,1624876821.0,32.000000
-11,6,62,1624876821.0,32.000000
-12,6,63,1624876821.0,32.000000
-15,6,62,1624876821.0,32.000000
-13,5,63,1624876821.0,32.000000
-9,5,66,1624876821.0,32.000000
-8,3,68,1624876821.0,32.000000
-15,6,57,1624876821.0,32.000000
-20,5,55,1624876821.0,32.000000
-16,5,60,1624876821.0,32.000000
-4,9,64,1624876821.0,32.000000
-5,8,64,1624876821.0,32.000000
-13,5,62,1624876821.0,32.000000
-11,4,65,1624876821.0,32.000000
-11,4,66,1624876821.0,32.000000
-12,4,62,1624876821.0,32.000000
-14,4,62,1624876821.0,32.000000
-10,5,62,1624876821.0,32.000000
-7,6,64,1624876821.0,32.000000
-9,5,63,1624876821.0,32.000000
-13,5,62,1624876821.0,32.000000
-12,5,62,1624876821.0,32.000000
-13,6,62,1624876821.0,32.000000
-11,5,63,1624876821.0,32.000000
-10,5,63,1624876821.0,32.000000
-11,5,63,1624876821.0,32.000000
-11,5,63,1624876821.0,32.000000
-12,5,62,1624876821.0,32.000000
-12,5,62,1624876821.0,32.000000
-12,5,63,1624876821.0,32.000000
-11,5,63,1624876821.0,32.000000
-11,5,62,1624876821.0,32.000000
-11,5,62,1624876821.0,32.000000
-12,6,62,1624876821.0,32.000000
-12,6,63,1624876821.0,32.000000
-11,5,63,1624876821.0,32.000000
-10,5,63,1624876821.0,32.000000
-11,5,63,1624876821.0,32.000000
-11,5,63,1624876821.0,32.000000
-11,5,63,1624876821.0,32.000000
-11,5,63,1624876821.0,32.000000
-11,5,63,1624876821.0,32.000000
-11,5,62,1624876821.0,32.000000
-11,5,63,1624876821.0,32.000000
-11,5,63,1624876821.0,32.000000
-11,5,63,1624876821.0,32.000000
-11,5,63,1624876821.0,32.000000
-11,5,63,1624876821.0,32.000000
-11,5,63,1624876821.0,32.000000
-11,5,62,1624876821.0,32.000000
-11,5,63,1624876821.0,32.000000
-12,4,63,1624876821.0,32.000000
-11,5,63,1624876821.0,32.000000
-11,5,62,1624876821.0,32.000000
-12,4,62,1624876821.0,32.000000
-10,5,63,1624876821.0,32.000000
-11,5,63,1624876821.0,32.000000
-13,6,61,1624876821.0,32.000000
-10,5,64,1624876821.0,32.000000
-10,4,66,1624876821.0,32.000000
-12,2,66,1624876821.0,32.000000
-15,8,58,1624876821.0,32.000000
-13,7,59,1624876821.0,32.000000
-7,4,60,1624876821.0,32.000000
-6,5,61,1624876821.0,32.000000
-5,6,58,1624876821.0,32.000000
-7,6,61,1624876821.0,32.000000
-13,5,66,1624876821.0,32.000000
-16,5,64,1624876821.0,32.000000
-15,5,63,1624876821.0,32.000000
-12,4,65,1624876821.0,32.000000
-9,4,62,1624876821.0,32.000000
-8,4,62,1624876821.0,32.000000
-10,5,62,1624876821.0,32.000000
-12,5,61,1624876821.0,32.000000
-13,5,63,1624876821.0,32.000000
-11,4,65,1624876821.0,32.000000
-12,4,62,1624876821.0,32.000000
-11,5,62,1624876821.0,32.000000
-11,5,62,1624876821.0,32.000000
-11,5,64,1624876821.0,32.000000
-12,5,62,1624876821.0,32.000000
-13,5,62,1624876821.0,32.000000
-11,5,63,1624876821.0,32.000000
-11,5,63,1624876821.0,32.000000
-11,5,62,1624876821.0,32.000000
-11,5,63,1624876821.0,32.000000
-11,5,63,1624876821.0,32.000000
-11,5,63,1624876821.0,32.000000
-11,5,62,1624876821.0,32.000000
-11,5,62,1624876821.0,32.000000
-11,5,63,1624876821.0,32.000000
-11,5,62,1624876821.0,32.000000
-12,5,63,1624876821.0,32.000000
-11,5,62,1624876821.0,32.000000
-11,5,62,1624876821.0,32.000000
-11,5,63,1624876821.0,32.000000
-11,5,62,1624876821.0,32.000000
-11,5,63,1624876821.0,32.000000
-12,5,63,1624876821.0,32.000000
-11,5,63,1624876821.0,32.000000
-11,5,62,1624876821.0,32.000000
-11,5,63,1624876821.0,32.000000
-11,5,63,1624876821.0,32.000000
-11,5,62,1624876821.0,32.000000
-12,5,62,1624876821.0,32.000000
-11,5,63,1624876821.0,32.000000
-11,5,63,1624876821.0,32.000000
-11,5,63,1624876821.0,32.000000
-11,5,62,1624876821.0,32.000000
-12,5,63,1624876821.0,32.000000
-11,5,63,1624876821.0,32.000000
-11,5,62,1624876821.0,32.000000
-11,5,63,1624876821.0,32.000000
-12,5,62,1624876821.0,32.000000
-11,5,63,1624876821.0,32.000000
-12,5,63,1624876821.0,32.000000
-12,5,65,1624876821.0,32.000000
-16,7,69,1624876821.0,32.000000
-15,9,57,1624876821.0,32.000000
-11,2,56,1624876821.0,32.000000
-7,4,63,1624876821.0,32.000000
-7,5,63,1624876821.0,32.000000
-10,6,60,1624876821.0,32.000000
-11,5,60,1624876821.0,32.000000
-15,6,64,1624876821.0,32.000000
-15,5,65,1624876821.0,32.000000
-14,4,65,1624876821.0,32.000000
-12,4,63,1624876821.0,32.000000
-11,4,63,1624876821.0,32.000000
-10,4,62,1624876821.0,32.000000
-12,5,62,1624876821.0,32.000000
-12,5,62,1624876821.0,32.000000
-13,6,62,1624876821.0,32.000000
-13,5,63,1624876821.0,32.000000
-13,5,62,1624876821.0,32.000000
-12,5,62,1624876821.0,32.000000
-12,5,62,1624876821.0,32.000000
-12,5,63,1624876821.0,32.000000
-12,5,63,1624876821.0,32.000000
-12,5,62,1624876821.0,32.000000
-13,5,63,1624876821.0,32.000000
-12,5,62,1624876821.0,32.000000
-12,5,62,1624876821.0,32.000000
-12,5,62,1624876821.0,32.000000
-12,5,63,1624876821.0,32.000000
-12,5,63,1624876821.0,32.000000
-13,5,62,1624876821.0,32.000000
-12,5,62,1624876821.0,32.000000
-12,5,62,1624876821.0,32.000000
-13,5,62,1624876821.0,32.000000
-13,5,62,1624876821.0,32.000000
-12,5,63,1624876821.0,32.000000
-13,5,62,1624876821.0,32.000000
-12,5,63,1624876821.0,32.000000
-13,5,62,1624876821.0,32.000000
-13,5,62,1624876821.0,32.000000
-13,5,62,1624876821.0,32.000000
-12,5,62,1624876821.0,32.000000
-12,5,63,1624876821.0,32.000000
-12,5,63,1624876821.0,32.000000
-13,5,62,1624876821.0,32.000000
-13,5,62,1624876821.0,32.000000
-13,5,62,1624876821.0,32.000000
-12,5,62,1624876821.0,32.000000
-13,5,62,1624876821.0,32.000000
-12,5,62,1624876821.0,32.000000
-12,5,62,1624876821.0,32.000000
-13,5,62,1624876821.0,32.000000
-13,5,62,1624876821.0,32.000000
-13,5,62,1624876821.0,32.000000
-13,5,63,1624876821.0,32.000000
-13,6,62,1624876821.0,32.000000
-12,5,62,1624876821.0,32.000000
-13,5,63,1624876821.0,32.000000
-13,5,63,1624876821.0,32.000000
-7,6,69,1624876821.0,32.000000
-7,6,67,1624876821.0,32.000000
-18,3,56,1624876821.0,32.000000
-15,6,56,1624876821.0,32.000000
-14,8,59,1624876821.0,32.000000
-11,7,66,1624876821.0,32.000000
-14,5,66,1624876821.0,32.000000
-11,4,63,1624876821.0,32.000000
-11,4,63,1624876821.0,32.000000
-13,5,62,1624876821.0,32.000000
-12,5,64,1624876821.0,32.000000
-11,5,63,1624876821.0,32.000000
-12,4,62,1624876821.0,32.000000
-13,5,62,1624876821.0,32.000000
-12,5,63,1624876821.0,32.000000
-12,5,62,1624876821.0,32.000000
-13,5,63,1624876821.0,32.000000
-11,5,63,1624876821.0,32.000000
-13,5,62,1624876821.0,32.000000
-13,5,62,1624876821.0,32.000000
-12,5,63,1624876821.0,32.000000
-12,5,62,1624876821.0,32.000000
-12,5,63,1624876821.0,32.000000
-12,5,62,1624876821.0,32.000000
-12,5,63,1624876821.0,32.000000
-12,5,62,1624876821.0,32.000000
-13,5,62,1624876821.0,32.000000
-12,5,63,1624876821.0,32.000000
-12,5,62,1624876821.0,32.000000
-12,5,62,1624876821.0,32.000000
-12,5,62,1624876821.0,32.000000
-12,6,63,1624876821.0,32.000000
-12,5,62,1624876821.0,32.000000
-13,5,62,1624876821.0,32.000000
-12,6,63,1624876821.0,32.000000
-12,5,63,1624876821.0,32.000000
-12,5,63,1624876821.0,32.000000
-12,5,62,1624876821.0,32.000000
-12,5,62,1624876821.0,32.000000
-12,5,62,1624876821.0,32.000000
-12,5,63,1624876821.0,32.000000
-13,5,63,1624876821.0,32.000000
-12,6,62,1624876821.0,32.000000
-12,5,62,1624876821.0,32.000000
-12,5,62,1624876821.0,32.000000
-12,5,62,1624876821.0,32.000000
-12,5,62,1624876821.0,32.000000
-12,6,62,1624876821.0,32.000000
-12,5,62,1624876821.0,32.000000
-12,5,62,1624876821.0,32.000000
-12,5,62,1624876821.0,32.000000
-12,4,63,1624876821.0,32.000000
-12,5,63,1624876821.0,32.000000
-12,5,63,1624876821.0,32.000000
-12,5,62,1624876821.0,32.000000
-13,5,61,1624876821.0,32.000000
-13,6,62,1624876821.0,32.000000
-12,6,63,1624876821.0,32.000000
-11,5,62,1624876821.0,32.000000
-13,6,61,1624876821.0,32.000000
-10,6,79,1624876821.0,32.000000
-12,11,51,1624876821.0,32.000000
-12,2,58,1624876821.0,32.000000
-15,3,60,1624876821.0,32.000000
-8,3,60,1624876821.0,32.000000
-8,7,64,1624876821.0,32.000000
-9,4,58,1624876821.0,32.000000
-10,3,62,1624876821.0,32.000000
-13,4,67,1624876821.0,32.000000
-10,6,65,1624876821.0,32.000000
-13,5,65,1624876821.0,32.000000
-13,4,62,1624876821.0,32.000000
-12,5,61,1624876821.0,32.000000
-10,5,63,1624876821.0,32.000000
-11,5,63,1624876821.0,32.000000
-12,5,62,1624876821.0,32.000000
-12,5,62,1624876821.0,32.000000
-11,6,63,1624876821.0,32.000000
-11,5,63,1624876821.0,32.000000
-11,5,62,1624876821.0,32.000000
-12,5,62,1624876821.0,32.000000
-12,5,63,1624876821.0,32.000000
-12,5,62,1624876821.0,32.000000
-12,5,62,1624876821.0,32.000000
-12,5,62,1624876821.0,32.000000
-11,5,63,1624876821.0,32.000000
-12,5,63,1624876821.0,32.000000
-12,5,62,1624876821.0,32.000000
-11,5,62,1624876821.0,32.000000
-12,5,63,1624876821.0,32.000000
-12,5,62,1624876821.0,32.000000
-12,5,62,1624876821.0,32.000000
-12,6,62,1624876821.0,32.000000
-12,6,62,1624876821.0,32.000000
-12,6,63,1624876821.0,32.000000
-12,5,62,1624876821.0,32.000000
-11,5,63,1624876821.0,32.000000
-12,6,63,1624876821.0,32.000000
-12,5,62,1624876821.0,32.000000
-12,6,62,1624876821.0,32.000000
-12,5,62,1624876821.0,32.000000
-12,5,63,1624876821.0,32.000000
-11,5,63,1624876821.0,32.000000
-12,6,62,1624876821.0,32.000000
-12,5,62,1624876821.0,32.000000
-12,6,62,1624876821.0,32.000000
-12,5,62,1624876821.0,32.000000
-12,5,62,1624876821.0,32.000000
-12,6,62,1624876821.0,32.000000
-12,5,62,1624876821.0,32.000000
-11,5,63,1624876821.0,32.000000
-12,5,63,1624876821.0,32.000000
-12,5,62,1624876821.0,32.000000
-12,6,62,1624876821.0,32.000000
-12,6,62,1624876821.0,32.000000
-12,5,62,1624876821.0,32.000000
-12,5,63,1624876821.0,32.000000
-12,5,63,1624876821.0,32.000000
-12,5,61,1624876821.0,32.000000
-15,4,66,1624876821.0,32.000000
-10,3,76,1624876821.0,32.000000
-11,9,59,1624876821.0,32.000000
-17,5,49,1624876821.0,32.000000
-16,3,58,1624876821.0,32.000000
-9,8,62,1624876821.0,32.000000
-5,9,62,1624876821.0,32.000000
-10,6,63,1624876821.0,32.000000
-9,6,63,1624876821.0,32.000000
-12,5,67,1624876821.0,32.000000
-14,4,64,1624876821.0,32.000000
-13,4,63,1624876821.0,32.000000
-11,5,63,1624876821.0,32.000000
-11,6,62,1624876821.0,32.000000
-13,6,62,1624876821.0,32.000000
-12,6,62,1624876821.0,32.000000
-12,6,62,1624876821.0,32.000000
-12,6,63,1624876821.0,32.000000
-12,6,62,1624876821.0,32.000000
-12,5,63,1624876821.0,32.000000
-13,6,63,1624876821.0,32.000000
-12,5,62,1624876821.0,32.000000
-13,6,62,1624876821.0,32.000000
-13,6,62,1624876821.0,32.000000
-12,6,62,1624876821.0,32.000000
-12,6,62,1624876821.0,32.000000
-12,6,62,1624876821.0,32.000000
-13,6,62,1624876821.0,32.000000
-13,6,63,1624876821.0,32.000000
-13,6,62,1624876821.0,32.000000
-13,6,62,1624876821.0,32.000000
-12,6,62,1624876821.0,32.000000
-13,6,62,1624876821.0,32.000000
-12,6,63,1624876821.0,32.000000
-13,6,62,1624876821.0,32.000000
-12,6,62,1624876821.0,32.000000
-13,6,62,1624876821.0,32.000000
-12,6,63,1624876821.0,32.000000
-12,6,62,1624876821.0,32.000000
-13,6,62,1624876821.0,32.000000
-14,6,61,1624876821.0,32.000000
-12,6,62,1624876821.0,32.000000
-12,6,63,1624876821.0,32.000000
-12,6,63,1624876821.0,32.000000
-13,6,62,1624876821.0,32.000000
-12,6,62,1624876821.0,32.000000
-12,6,62,1624876821.0,32.000000
-12,6,62,1624876821.0,32.000000
-12,6,62,1624876821.0,32.000000
-12,6,62,1624876821.0,32.000000
-13,6,62,1624876821.0,32.000000
-12,6,62,1624876821.0,32.000000
-12,6,63,1624876821.0,32.000000
-12,6,63,1624876821.0,32.000000
-12,6,62,1624876821.0,32.000000
-12,6,62,1624876821.0,32.000000
-12,6,62,1624876821.0,32.000000
-13,6,62,1624876821.0,32.000000
-13,6,62,1624876821.0,32.000000
-11,5,63,1624876821.0,32.000000
-18,4,68,1624876821.0,32.000000
-12,7,69,1624876821.0,32.000000
-14,7,57,1624876821.0,32.000000
-16,4,55,1624876821.0,32.000000
-11,4,59,1624876821.0,32.000000
-5,7,65,1624876821.0,32.000000
-7,7,64,1624876821.0,32.000000
-13,5,58,1624876821.0,32.000000
-16,7,61,1624876821.0,32.000000
-15,6,67,1624876821.0,32.000000
-12,5,66,1624876821.0,32.000000
-11,4,64,1624876821.0,32.000000
-11,5,62,1624876821.0,32.000000
-12,5,62,1624876821.0,32.000000
-13,6,61,1624876821.0,32.000000
-13,6,62,1624876821.0,32.000000
-13,6,62,1624876821.0,32.000000
-12,5,63,1624876821.0,32.000000
-13,6,62,1624876821.0,32.000000
-13,6,62,1624876821.0,32.000000
-13,6,62,1624876821.0,32.000000
-13,6,62,1624876821.0,32.000000
-13,6,62,1624876821.0,32.000000
-13,6,63,1624876821.0,32.000000
-13,6,62,1624876821.0,32.000000
-13,6,62,1624876821.0,32.000000
-13,6,63,1624876821.0,32.000000
-13,6,62,1624876821.0,32.000000
-13,6,62,1624876821.0,32.000000
-14,5,62,1624876821.0,32.000000
-13,5,62,1624876821.0,32.000000
-13,5,62,1624876821.0,32.000000
-13,6,62,1624876821.0,32.000000
-13,6,62,1624876821.0,32.000000
-13,6,62,1624876821.0,32.000000
-13,6,62,1624876821.0,32.000000
-13,6,62,1624876821.0,32.000000
-13,5,62,1624876821.0,32.000000
-13,6,62,1624876821.0,32.000000
-13,6,62,1624876821.0,32.000000
-13,6,62,1624876821.0,32.000000
-13,6,62,1624876821.0,32.000000
-13,6,63,1624876821.0,32.000000
-13,6,62,1624876821.0,32.000000
-14,6,62,1624876821.0,32.000000
-13,5,62,1624876821.0,32.000000
-13,6,62,1624876821.0,32.000000
-14,6,62,1624876821.0,32.000000
-13,6,62,1624876821.0,32.000000
-13,6,62,1624876821.0,32.000000
-14,6,62,1624876821.0,32.000000
-13,6,62,1624876821.0,32.000000
-13,6,62,1624876821.0,32.000000
-13,6,62,1624876821.0,32.000000
-14,6,62,1624876821.0,32.000000
-14,6,62,1624876821.0,32.000000
-13,6,62,1624876821.0,32.000000
-14,6,62,1624876821.0,32.000000
-13,6,63,1624876821.0,32.000000
-13,5,62,1624876821.0,32.000000
-13,6,62,1624876821.0,32.000000
-13,6,62,1624876821.0,32.000000
-13,5,61,1624876821.0,32.000000
-18,4,74,1624876821.0,32.000000
-6,6,81,1624876821.0,32.000000
-23,9,48,1624876821.0,32.000000
-28,4,58,1624876821.0,32.000000
-18,2,56,1624876821.0,32.000000
-8,4,60,1624876821.0,32.000000
-4,3,63,1624876821.0,32.000000
-9,6,61,1624876821.0,32.000000
-14,10,62,1624876821.0,32.000000
-10,8,67,1624876821.0,32.000000
-12,6,64,1624876821.0,32.000000
-11,1,70,1624876821.0,32.000000
-17,4,62,1624876821.0,32.000000
-12,5,63,1624876821.0,32.000000
-11,5,62,1624876821.0,32.000000
-14,6,60,1624876821.0,32.000000
-13,5,61,1624876821.0,32.000000
-9,5,64,1624876821.0,32.000000
-10,6,63,1624876821.0,32.000000
-12,6,63,1624876821.0,32.000000
-13,6,62,1624876821.0,32.000000
-12,6,62,1624876821.0,32.000000
-11,5,62,1624876821.0,32.000000
-12,5,63,1624876821.0,32.000000
-11,5,63,1624876821.0,32.000000
-11,6,63,1624876821.0,32.000000
-12,6,63,1624876821.0,32.000000
-11,5,62,1624876821.0,32.000000
-12,5,62,1624876821.0,32.000000
-11,6,62,1624876821.0,32.000000
-12,5,63,1624876821.0,32.000000
-12,5,62,1624876821.0,32.000000
-12,5,63,1624876821.0,32.000000
-12,6,62,1624876821.0,32.000000
-12,6,62,1624876821.0,32.000000
-11,6,63,1624876821.0,32.000000
-12,5,63,1624876821.0,32.000000
-12,6,62,1624876821.0,32.000000
-11,6,62,1624876821.0,32.000000
-11,6,63,1624876821.0,32.000000
-12,6,62,1624876821.0,32.000000
-12,6,62,1624876821.0,32.000000
-12,6,62,1624876821.0,32.000000
-12,6,62,1624876821.0,32.000000
-12,6,62,1624876821.0,32.000000
-12,6,62,1624876821.0,32.000000
-12,6,63,1624876821.0,32.000000
-12,6,63,1624876821.0,32.000000
-12,6,62,1624876821.0,32.000000
-12,6,62,1624876821.0,32.000000
-13,6,62,1624876821.0,32.000000
-13,6,62,1624876821.0,32.000000
-12,6,62,1624876821.0,32.000000
-12,6,62,1624876821.0,32.000000
-12,6,62,1624876821.0,32.000000
-13,6,62,1624876821.0,32.000000
-12,6,62,1624876821.0,32.000000
-12,6,62,1624876821.0,32.000000
-12,6,63,1624876821.0,32.000000
-12,6,63,1624876821.0,32.000000
-12,6,62,1624876821.0,32.000000
-13,5,62,1624876821.0,32.000000
-12,6,62,1624876821.0,32.000000
-19,3,66,1624876821.0,32.000000
-17,3,72,1624876821.0,32.000000
-10,8,62,1624876821.0,32.000000
-17,6,53,1624876821.0,32.000000
-6,6,52,1624876821.0,32.000000
-2,6,60,1624876821.0,32.000000
-10,5,61,1624876821.0,32.000000
-10,9,67,1624876821.0,32.000000
-11,7,69,1624876821.0,32.000000
-9,1,69,1624876821.0,32.000000
-11,3,65,1624876821.0,32.000000
-10,3,63,1624876821.0,32.000000
-10,5,61,1624876821.0,32.000000
-11,6,61,1624876821.0,32.000000
-10,5,62,1624876821.0,32.000000
-11,5,63,1624876821.0,32.000000
-11,5,63,1624876821.0,32.000000
-11,5,63,1624876821.0,32.000000
-11,5,63,1624876821.0,32.000000
-11,5,62,1624876821.0,32.000000
-10,5,63,1624876821.0,32.000000
-11,5,62,1624876821.0,32.000000
-12,5,63,1624876821.0,32.000000
-12,5,63,1624876821.0,32.000000
-11,5,62,1624876821.0,32.000000
-10,5,63,1624876821.0,32.000000
-10,5,63,1624876821.0,32.000000
-11,5,62,1624876821.0,32.000000
-12,6,62,1624876821.0,32.000000
-12,6,62,1624876821.0,32.000000
-11,5,63,1624876821.0,32.000000
-11,5,63,1624876821.0,32.000000
-12,5,62,1624876821.0,32.000000
-12,6,63,1624876821.0,32.000000
-12,6,62,1624876821.0,32.000000
-11,5,62,1624876821.0,32.000000
-11,5,63,1624876821.0,32.000000
-11,6,63,1624876821.0,32.000000
-12,5,63,1624876821.0,32.000000
-12,5,62,1624876821.0,32.000000
-12,5,62,1624876821.0,32.000000
-12,5,62,1624876821.0,32.000000
-12,5,63,1624876821.0,32.000000
-12,5,62,1624876821.0,32.000000
-12,5,63,1624876821.0,32.000000
-12,6,62,1624876821.0,32.000000
-12,5,63,1624876821.0,32.000000
-12,6,62,1624876821.0,32.000000
-12,5,62,1624876821.0,32.000000
-12,6,62,1624876821.0,32.000000
-12,6,62,1624876821.0,32.000000
-12,5,62,1624876821.0,32.000000
-13,5,62,1624876821.0,32.000000
-11,5,63,1624876821.0,32.000000
-13,5,62,1624876821.0,32.000000
-12,5,63,1624876821.0,32.000000
-12,6,62,1624876821.0,32.000000
-13,5,62,1624876821.0,32.000000
-12,6,62,1624876821.0,32.000000
-12,6,62,1624876821.0,32.000000
-13,5,63,1624876821.0,32.000000
-13,5,66,1624876821.0,32.000000
-14,6,69,1624876821.0,32.000000
-15,6,54,1624876821.0,32.000000
-14,5,52,1624876821.0,32.000000
-12,6,60,1624876821.0,32.000000
-10,7,60,1624876821.0,32.000000
-13,7,60,1624876821.0,32.000000
-16,6,63,1624876821.0,32.000000
-15,6,66,1624876821.0,32.000000
-15,4,66,1624876821.0,32.000000
-16,3,64,1624876821.0,32.000000
-14,4,62,1624876821.0,32.000000
-14,5,62,1624876821.0,32.000000
-14,5,62,1624876821.0,32.000000
-14,6,62,1624876821.0,32.000000
-14,5,63,1624876821.0,32.000000
-14,5,62,1624876821.0,32.000000
-14,5,62,1624876821.0,32.000000
-14,6,62,1624876821.0,32.000000
-14,5,62,1624876821.0,32.000000
-14,6,62,1624876821.0,32.000000
-14,5,62,1624876821.0,32.000000
-14,6,62,1624876821.0,32.000000
-14,6,62,1624876821.0,32.000000
-14,6,62,1624876821.0,32.000000
-14,6,62,1624876821.0,32.000000
-14,6,62,1624876821.0,32.000000
-14,5,62,1624876821.0,32.000000
-14,5,62,1624876821.0,32.000000
-14,6,62,1624876821.0,32.000000
-14,5,62,1624876821.0,32.000000
-13,6,62,1624876821.0,32.000000
-14,6,62,1624876821.0,32.000000
-14,6,62,1624876821.0,32.000000
-14,6,62,1624876821.0,32.000000
-14,6,63,1624876821.0,32.000000
-13,5,62,1624876821.0,32.000000
-15,5,62,1624876821.0,32.000000
-14,6,62,1624876821.0,32.000000
-14,6,62,1624876821.0,32.000000
-14,5,62,1624876821.0,32.000000
-14,5,62,1624876821.0,32.000000
-14,6,62,1624876821.0,32.000000
-14,6,62,1624876821.0,32.000000
-14,6,62,1624876821.0,32.000000
-14,6,62,1624876821.0,32.000000
-15,5,62,1624876821.0,32.000000
-14,6,62,1624876821.0,32.000000
-14,6,62,1624876821.0,32.000000
-14,6,62,1624876821.0,32.000000
-14,6,62,1624876821.0,32.000000
-14,6,62,1624876821.0,32.000000
-14,5,62,1624876821.0,32.000000
-14,6,62,1624876821.0,32.000000
-14,6,62,1624876821.0,32.000000
-14,6,62,1624876821.0,32.000000
-14,6,62,1624876821.0,32.000000
-15,6,63,1624876821.0,32.000000
-16,4,66,1624876821.0,32.000000
-9,6,76,1624876821.0,32.000000
-19,8,51,1624876821.0,32.000000
-19,5,46,1624876821.0,32.000000
-22,5,56,1624876821.0,32.000000
-20,7,56,1624876821.0,32.000000
-14,10,62,1624876821.0,32.000000
-17,10,65,1624876821.0,32.000000
-19,7,63,1624876821.0,32.000000
-19,5,62,1624876821.0,32.000000
-18,4,63,1624876821.0,32.000000
-14,3,63,1624876821.0,32.000000
-18,5,62,1624876821.0,32.000000
-18,6,62,1624876821.0,32.000000
-17,7,61,1624876821.0,32.000000
-17,7,61,1624876821.0,32.000000
-16,6,62,1624876821.0,32.000000
-17,5,61,1624876821.0,32.000000
-17,5,62,1624876821.0,32.000000
-17,6,62,1624876821.0,32.000000
-17,6,62,1624876821.0,32.000000
-17,6,61,1624876821.0,32.000000
-17,6,62,1624876821.0,32.000000
-18,6,61,1624876821.0,32.000000
-17,6,61,1624876821.0,32.000000
-17,6,62,1624876821.0,32.000000
-16,6,62,1624876821.0,32.000000
-19,6,61,1624876821.0,32.000000
-18,6,61,1624876821.0,32.000000
-17,6,62,1624876821.0,32.000000
-17,6,62,1624876821.0,32.000000
-17,6,62,1624876821.0,32.000000
-18,6,61,1624876821.0,32.000000
-18,6,61,1624876821.0,32.000000
-17,6,61,1624876821.0,32.000000
-17,6,62,1624876821.0,32.000000
-17,6,62,1624876821.0,32.000000
-17,6,61,1624876821.0,32.000000
-17,6,61,1624876821.0,32.000000
-18,6,61,1624876821.0,32.000000
-17,6,62,1624876821.0,32.000000
-17,6,62,1624876821.0,32.000000
-17,6,61,1624876821.0,32.000000
-17,6,62,1624876821.0,32.000000
-17,6,61,1624876821.0,32.000000
-18,6,61,1624876821.0,32.000000
-18,6,61,1624876821.0,32.000000
-17,6,61,1624876821.0,32.000000
-17,6,61,1624876821.0,32.000000
-18,6,61,1624876821.0,32.000000
-17,6,61,1624876821.0,32.000000
-18,6,61,1624876821.0,32.000000
-18,6,61,1624876821.0,32.000000
-17,6,61,1624876821.0,32.000000
-17,6,61,1624876821.0,32.000000
-18,6,61,1624876821.0,32.000000
-18,6,61,1624876821.0,32.000000
-18,6,61,1624876821.0,32.000000
-17,6,61,1624876821.0,32.000000
-17,6,65,1624876821.0,32.000000
-20,5,70,1624876821.0,32.000000
-19,4,65,1624876821.0,32.000000
-19,6,51,1624876821.0,32.000000
-18,7,51,1624876821.0,32.000000
-20,7,57,1624876821.0,32.000000
-16,9,56,1624876821.0,32.000000
-16,10,56,1624876821.0,32.000000
-22,8,64,1624876821.0,32.000000
-22,8,63,1624876821.0,32.000000
-16,6,68,1624876821.0,32.000000
-17,4,66,1624876821.0,32.000000
-18,2,62,1624876821.0,32.000000
-18,5,61,1624876821.0,32.000000
-18,6,61,1624876821.0,32.000000
-19,7,61,1624876821.0,32.000000
-19,7,61,1624876821.0,32.000000
-18,6,61,1624876821.0,32.000000
-17,5,62,1624876821.0,32.000000
-18,6,62,1624876821.0,32.000000
-19,6,61,1624876821.0,32.000000
-18,6,61,1624876821.0,32.000000
-18,6,61,1624876821.0,32.000000
-19,6,61,1624876821.0,32.000000
-18,6,62,1624876821.0,32.000000
-18,6,61,1624876821.0,32.000000
-18,6,61,1624876821.0,32.000000
-18,6,61,1624876821.0,32.000000
-19,6,61,1624876821.0,32.000000
-19,6,61,1624876821.0,32.000000
-18,6,61,1624876821.0,32.000000
-18,6,61,1624876821.0,32.000000
-18,6,61,1624876821.0,32.000000
-18,6,61,1624876821.0,32.000000
-18,6,61,1624876821.0,32.000000
-19,6,61,1624876821.0,32.000000
-18,6,61,1624876821.0,32.000000
-18,6,61,1624876821.0,32.000000
-19,6,61,1624876821.0,32.000000
-19,6,61,1624876821.0,32.000000
-18,6,61,1624876821.0,32.000000
-18,6,61,1624876821.0,32.000000
-19,6,61,1624876821.0,32.000000
-18,6,61,1624876821.0,32.000000
-18,6,61,1624876821.0,32.000000
-19,6,61,1624876821.0,32.000000
-19,6,61,1624876821.0,32.000000
-18,6,61,1624876821.0,32.000000
-19,6,61,1624876821.0,32.000000
-19,6,61,1624876821.0,32.000000
-19,6,61,1624876821.0,32.000000
-18,6,61,1624876821.0,32.000000
-18,6,61,1624876821.0,32.000000
-19,6,61,1624876821.0,32.000000
-19,6,61,1624876821.0,32.000000
-19,6,61,1624876821.0,32.000000
-18,6,61,1624876821.0,32.000000
-18,6,61,1624876821.0,32.000000
-19,6,61,1624876821.0,32.000000
-19,6,62,1624876821.0,32.000000
-23,5,69,1624876821.0,32.000000
-22,6,54,1624876821.0,32.000000
-19,6,49,1624876821.0,32.000000
-18,4,59,1624876821.0,32.000000
-16,6,62,1624876821.0,32.000000
-15,9,57,1624876821.0,32.000000
-26,8,59,1624876821.0,32.000000
-21,7,63,1624876821.0,32.000000
-17,5,66,1624876821.0,32.000000
-17,5,65,1624876821.0,32.000000
-19,3,63,1624876821.0,32.000000
-18,5,60,1624876821.0,32.000000
-18,6,60,1624876821.0,32.000000
-18,6,61,1624876821.0,32.000000
-18,6,61,1624876821.0,32.000000
-17,6,62,1624876821.0,32.000000
-17,5,62,1624876821.0,32.000000
-18,5,61,1624876821.0,32.000000
-18,6,61,1624876821.0,32.000000
-18,6,61,1624876821.0,32.000000
-18,6,61,1624876821.0,32.000000
-18,5,61,1624876821.0,32.000000
-19,6,61,1624876821.0,32.000000
-18,6,61,1624876821.0,32.000000
-18,6,61,1624876821.0,32.000000
-18,6,61,1624876821.0,32.000000
-18,5,61,1624876821.0,32.000000
-19,6,60,1624876821.0,32.000000
-19,6,61,1624876821.0,32.000000
-18,6,62,1624876821.0,32.000000
-18,5,62,1624876821.0,32.000000
-18,5,61,1624876821.0,32.000000
-19,5,61,1624876821.0,32.000000
-19,6,61,1624876821.0,32.000000
-18,6,61,1624876821.0,32.000000
-18,6,61,1624876821.0,32.000000
-18,5,61,1624876821.0,32.000000
-18,5,61,1624876821.0,32.000000
-19,6,61,1624876821.0,32.000000
-19,6,61,1624876821.0,32.000000
-18,6,61,1624876821.0,32.000000
-19,6,61,1624876821.0,32.000000
-19,6,61,1624876821.0,32.000000
-18,6,61,1624876821.0,32.000000
-19,6,61,1624876821.0,32.000000
-19,5,61,1624876821.0,32.000000
-18,6,61,1624876821.0,32.000000
-19,5,61,1624876821.0,32.000000
-19,6,61,1624876821.0,32.000000
-19,6,61,1624876821.0,32.000000
-19,6,61,1624876821.0,32.000000
-18,5,61,1624876821.0,32.000000
-18,6,61,1624876821.0,32.000000
-19,6,61,1624876821.0,32.000000
-19,5,61,1624876821.0,32.000000
-18,6,61,1624876821.0,32.000000
-20,5,63,1624876821.0,32.000000
-24,4,72,1624876821.0,32.000000
-17,3,70,1624876821.0,32.000000
-19,8,50,1624876821.0,32.000000
-30,5,36,1624876821.0,32.000000
-28,6,55,1624876821.0,32.000000
-19,11,58,1624876821.0,32.000000
-11,9,75,1624876821.0,32.000000
-9,6,70,1624876821.0,32.000000
-17,4,63,1624876821.0,32.000000
-19,4,62,1624876821.0,32.000000
-18,5,61,1624876821.0,32.000000
-18,5,60,1624876821.0,32.000000
-18,6,61,1624876821.0,32.000000
-17,6,62,1624876821.0,32.000000
-16,5,62,1624876821.0,32.000000
-16,6,62,1624876821.0,32.000000
-18,6,60,1624876821.0,32.000000
-18,6,61,1624876821.0,32.000000
-18,6,61,1624876821.0,32.000000
-18,6,61,1624876821.0,32.000000
-17,5,61,1624876821.0,32.000000
-18,5,61,1624876821.0,32.000000
-18,6,61,1624876821.0,32.000000
-18,6,61,1624876821.0,32.000000
-17,6,61,1624876821.0,32.000000
-18,6,61,1624876821.0,32.000000
-18,6,61,1624876821.0,32.000000
-17,6,61,1624876821.0,32.000000
-17,6,62,1624876821.0,32.000000
-18,6,61,1624876821.0,32.000000
-17,6,61,1624876821.0,32.000000
-17,6,62,1624876821.0,32.000000
-17,6,61,1624876821.0,32.000000
-17,6,62,1624876821.0,32.000000
-17,6,62,1624876821.0,32.000000
-16,6,62,1624876821.0,32.000000
-17,5,61,1624876821.0,32.000000
-16,5,62,1624876821.0,32.000000
-16,6,62,1624876821.0,32.000000
-18,6,61,1624876821.0,32.000000
-18,6,61,1624876821.0,32.000000
-17,6,62,1624876821.0,32.000000
-17,5,62,1624876821.0,32.000000
-17,6,61,1624876821.0,32.000000
-17,6,62,1624876821.0,32.000000
-17,6,62,1624876821.0,32.000000
-18,6,61,1624876821.0,32.000000
-17,6,62,1624876821.0,32.000000
-17,6,62,1624876821.0,32.000000
-17,6,61,1624876821.0,32.000000
-17,6,62,1624876821.0,32.000000
-17,6,62,1624876821.0,32.000000
-17,6,61,1624876821.0,32.000000
-17,6,61,1624876821.0,32.000000
-17,6,61,1624876821.0,32.000000
-17,5,62,1624876821.0,32.000000
-18,6,62,1624876821.0,32.000000
-19,5,63,1624876821.0,32.000000
-23,3,74,1624876821.0,32.000000
-15,5,59,1624876821.0,32.000000
-19,8,49,1624876821.0,32.000000
-22,8,56,1624876821.0,32.000000
-15,8,57,1624876821.0,32.000000
-14,9,60,1624876821.0,32.000000
-11,6,59,1624876821.0,32.000000
-12,4,62,1624876821.0,32.000000
-17,3,66,1624876821.0,32.000000
-17,6,65,1624876821.0,32.000000
-19,6,64,1624876821.0,32.000000
-19,5,61,1624876821.0,32.000000
-17,5,61,1624876821.0,32.000000
-15,6,62,1624876821.0,32.000000
-16,6,61,1624876821.0,32.000000
-16,6,62,1624876821.0,32.000000
-16,6,62,1624876821.0,32.000000
-16,6,62,1624876821.0,32.000000
-17,6,61,1624876821.0,32.000000
-16,6,62,1624876821.0,32.000000
-16,6,62,1624876821.0,32.000000
-17,6,62,1624876821.0,32.000000
-17,6,61,1624876821.0,32.000000
-17,6,61,1624876821.0,32.000000
-16,6,61,1624876821.0,32.000000
-17,6,61,1624876821.0,32.000000
-16,6,62,1624876821.0,32.000000
-17,6,61,1624876821.0,32.000000
-17,6,62,1624876821.0,32.000000
-17,6,62,1624876821.0,32.000000
-17,6,62,1624876821.0,32.000000
-16,6,61,1624876821.0,32.000000
-16,6,62,1624876821.0,32.000000
-17,6,62,1624876821.0,32.000000
-17,6,61,1624876821.0,32.000000
-17,6,61,1624876821.0,32.000000
-16,6,62,1624876821.0,32.000000
-17,6,61,1624876821.0,32.000000
-17,6,62,1624876821.0,32.000000
-17,6,61,1624876821.0,32.000000
-17,6,62,1624876821.0,32.000000
-17,6,62,1624876821.0,32.000000
-17,6,61,1624876821.0,32.000000
-17,6,61,1624876821.0,32.000000
-16,6,62,1624876821.0,32.000000
-17,6,61,1624876821.0,32.000000
-17,6,61,1624876821.0,32.000000
-17,6,61,1624876821.0,32.000000
-17,6,61,1624876821.0,32.000000
-17,6,62,1624876821.0,32.000000
-17,6,62,1624876821.0,32.000000
-17,6,61,1624876821.0,32.000000
-17,6,61,1624876821.0,32.000000
-17,6,61,1624876821.0,32.000000
-17,6,61,1624876821.0,32.000000
-17,6,61,1624876821.0,32.000000
-17,6,62,1624876821.0,32.000000
-20,5,68,1624876821.0,32.000000
-19,4,71,1624876821.0,32.000000
-16,8,58,1624876821.0,32.000000
-17,7,53,1624876821.0,32.000000
-18,5,58,1624876821.0,32.000000
-11,9,61,1624876821.0,32.000000
-14,10,59,1624876821.0,32.000000
-21,8,62,1624876821.0,32.000000
-21,7,63,1624876821.0,32.000000
-19,7,61,1624876821.0,32.000000
-15,5,64,1624876821.0,32.000000
-13,4,65,1624876821.0,32.000000
-15,5,62,1624876821.0,32.000000
-17,6,61,1624876821.0,32.000000
-18,7,61,1624876821.0,32.000000
-18,7,61,1624876821.0,32.000000
-16,6,62,1624876821.0,32.000000
-16,6,62,1624876821.0,32.000000
-17,6,61,1624876821.0,32.000000
-17,6,62,1624876821.0,32.000000
-17,6,61,1624876821.0,32.000000
-17,6,61,1624876821.0,32.000000
-17,6,61,1624876821.0,32.000000
-17,6,62,1624876821.0,32.000000
-17,6,61,1624876821.0,32.000000
-17,6,61,1624876821.0,32.000000
-17,7,62,1624876821.0,32.000000
-17,6,61,1624876821.0,32.000000
-17,6,62,1624876821.0,32.000000
-17,6,61,1624876821.0,32.000000
-17,6,61,1624876821.0,32.000000
-17,6,62,1624876821.0,32.000000
-17,6,61,1624876821.0,32.000000
-17,6,61,1624876821.0,32.000000
-17,6,61,1624876821.0,32.000000
-17,6,61,1624876821.0,32.000000
-17,6,62,1624876821.0,32.000000
-18,6,61,1624876821.0,32.000000
-17,6,62,1624876821.0,32.000000
-18,6,61,1624876821.0,32.000000
-17,6,62,1624876821.0,32.000000
-17,6,62,1624876821.0,32.000000
-17,6,61,1624876821.0,32.000000
-17,6,61,1624876821.0,32.000000
-17,6,61,1624876821.0,32.000000
-17,6,61,1624876821.0,32.000000
-17,6,62,1624876821.0,32.000000
-17,6,61,1624876821.0,32.000000
-18,7,61,1624876821.0,32.000000
-17,6,61,1624876821.0,32.000000
-18,6,61,1624876821.0,32.000000
-18,6,61,1624876821.0,32.000000
-17,6,62,1624876821.0,32.000000
-17,6,61,1624876821.0,32.000000
-17,6,61,1624876821.0,32.000000
-18,6,61,1624876821.0,32.000000
-17,6,61,1624876821.0,32.000000
-17,6,62,1624876821.0,32.000000
-17,6,62,1624876821.0,32.000000
-17,6,62,1624876821.0,32.000000
-21,5,77,1624876821.0,32.000000
-7,6,72,1624876821.0,32.000000
-18,7,47,1624876821.0,32.000000
-24,5,46,1624876821.0,32.000000
-22,7,57,1624876821.0,32.000000
-15,10,60,1624876821.0,32.000000
-17,9,64,1624876821.0,32.000000
-14,6,65,1624876821.0,32.000000
-18,5,64,1624876821.0,32.000000
-20,4,63,1624876821.0,32.000000
-18,6,61,1624876821.0,32.000000
-17,5,61,1624876821.0,32.000000
-16,6,62,1624876821.0,32.000000
-16,6,62,1624876821.0,32.000000
-18,6,61,1624876821.0,32.000000
-17,6,62,1624876821.0,32.000000
-17,6,61,1624876821.0,32.000000
-18,6,61,1624876821.0,32.000000
-18,6,61,1624876821.0,32.000000
-17,6,61,1624876821.0,32.000000
-17,6,61,1624876821.0,32.000000
-17,6,62,1624876821.0,32.000000
-17,6,61,1624876821.0,32.000000
-18,7,61,1624876821.0,32.000000
-18,6,61,1624876821.0,32.000000
-17,6,61,1624876821.0,32.000000
-17,6,61,1624876821.0,32.000000
-17,6,61,1624876821.0,32.000000
-17,6,61,1624876821.0,32.000000
-17,6,61,1624876821.0,32.000000
-18,6,61,1624876821.0,32.000000
-18,6,61,1624876821.0,32.000000
-17,6,62,1624876821.0,32.000000
-17,6,61,1624876821.0,32.000000
-18,6,61,1624876821.0,32.000000
-17,6,61,1624876821.0,32.000000
-18,6,61,1624876821.0,32.000000
-17,6,61,1624876821.0,32.000000
-18,6,62,1624876821.0,32.000000
-18,6,61,1624876821.0,32.000000
-17,6,61,1624876821.0,32.000000
-18,6,61,1624876821.0,32.000000
-18,6,61,1624876821.0,32.000000
-17,6,61,1624876821.0,32.000000
-17,6,61,1624876821.0,32.000000
-18,6,61,1624876821.0,32.000000
-17,6,61,1624876821.0,32.000000
-18,6,61,1624876821.0,32.000000
-17,6,62,1624876821.0,32.000000
-17,6,62,1624876821.0,32.000000
-17,6,61,1624876821.0,32.000000
-17,6,62,1624876821.0,32.000000
-17,6,62,1624876821.0,32.000000
-17,6,61,1624876821.0,32.000000
-17,6,61,1624876821.0,32.000000
-18,6,61,1624876821.0,32.000000
-18,6,61,1624876821.0,32.000000
-17,6,62,1624876821.0,32.000000
-17,6,61,1624876821.0,32.000000
-18,7,61,1624876821.0,32.000000
-18,7,60,1624876821.0,32.000000
-24,5,64,1624876821.0,32.000000
-7,9,77,1624876821.0,32.000000
-11,7,47,1624876821.0,32.000000
-19,5,43,1624876821.0,32.000000
-23,5,53,1624876821.0,32.000000
-19,7,57,1624876821.0,32.000000
-16,11,70,1624876821.0,32.000000
-16,7,66,1624876821.0,32.000000
-15,6,62,1624876821.0,32.000000
-16,4,64,1624876821.0,32.000000
-18,4,62,1624876821.0,32.000000
-17,5,61,1624876821.0,32.000000
-17,7,61,1624876821.0,32.000000
-17,7,62,1624876821.0,32.000000
-16,6,62,1624876821.0,32.000000
-16,6,62,1624876821.0,32.000000
-16,6,61,1624876821.0,32.000000
-17,6,61,1624876821.0,32.000000
-17,6,62,1624876821.0,32.000000
-17,6,62,1624876821.0,32.000000
-17,6,61,1624876821.0,32.000000
-17,6,61,1624876821.0,32.000000
-17,6,62,1624876821.0,32.000000
-17,6,62,1624876821.0,32.000000
-17,7,62,1624876821.0,32.000000
-17,6,61,1624876821.0,32.000000
-17,6,61,1624876821.0,32.000000
-17,6,61,1624876821.0,32.000000
-17,6,61,1624876821.0,32.000000
-17,6,61,1624876821.0,32.000000
-17,6,61,1624876821.0,32.000000
-17,6,61,1624876821.0,32.000000
-17,6,62,1624876821.0,32.000000
-17,6,62,1624876821.0,32.000000
-17,6,61,1624876821.0,32.000000
-18,6,61,1624876821.0,32.000000
-18,6,61,1624876821.0,32.000000
-17,6,61,1624876821.0,32.000000
-17,6,61,1624876821.0,32.000000
-18,6,61,1624876821.0,32.000000
-17,6,62,1624876821.0,32.000000
-18,7,62,1624876821.0,32.000000
-18,6,61,1624876821.0,32.000000
-17,6,61,1624876821.0,32.000000
-18,6,62,1624876821.0,32.000000
-18,6,61,1624876821.0,32.000000
-18,6,61,1624876821.0,32.000000
-17,6,62,1624876821.0,32.000000
-18,6,61,1624876821.0,32.000000
-17,6,62,1624876821.0,32.000000
-17,6,62,1624876821.0,32.000000
-17,6,61,1624876821.0,32.000000
-18,6,61,1624876821.0,32.000000
-18,6,61,1624876821.0,32.000000
-17,6,61,1624876821.0,32.000000
-17,6,61,1624876821.0,32.000000
-18,6,61,1624876821.0,32.000000
-17,6,62,1624876821.0,32.000000
-17,6,62,1624876821.0,32.000000
-20,6,63,1624876821.0,32.000000
-17,8,71,1624876821.0,32.000000
-11,9,62,1624876821.0,32.000000
-15,5,50,1624876821.0,32.000000
-15,4,58,1624876821.0,32.000000
-15,8,59,1624876821.0,32.000000
-18,10,61,1624876821.0,32.000000
-18,8,65,1624876821.0,32.000000
-17,6,63,1624876821.0,32.000000
-17,5,64,1624876821.0,32.000000
-17,5,62,1624876821.0,32.000000
-18,5,61,1624876821.0,32.000000
-18,6,61,1624876821.0,32.000000
-17,7,61,1624876821.0,32.000000
-17,7,62,1624876821.0,32.000000
-17,6,62,1624876821.0,32.000000
-17,6,62,1624876821.0,32.000000
-17,6,61,1624876821.0,32.000000
-18,6,61,1624876821.0,32.000000
-17,7,62,1624876821.0,32.000000
-17,6,61,1624876821.0,32.000000
-17,6,61,1624876821.0,32.000000
-17,6,61,1624876821.0,32.000000
-17,6,62,1624876821.0,32.000000
-17,7,61,1624876821.0,32.000000
-17,6,61,1624876821.0,32.000000
-17,6,61,1624876821.0,32.000000
-17,6,61,1624876821.0,32.000000
-17,6,61,1624876821.0,32.000000
-17,6,61,1624876821.0,32.000000
-18,6,61,1624876821.0,32.000000
-17,6,62,1624876821.0,32.000000
-17,6,62,1624876821.0,32.000000
-18,6,61,1624876821.0,32.000000
-18,6,62,1624876821.0,32.000000
-17,7,61,1624876821.0,32.000000
-18,6,62,1624876821.0,32.000000
-17,6,61,1624876821.0,32.000000
-17,6,61,1624876821.0,32.000000
-18,6,61,1624876821.0,32.000000
-18,6,61,1624876821.0,32.000000
-17,6,62,1624876821.0,32.000000
-18,6,61,1624876821.0,32.000000
-18,6,62,1624876821.0,32.000000
-18,6,61,1624876821.0,32.000000
-17,6,61,1624876821.0,32.000000
-18,6,61,1624876821.0,32.000000
-18,6,61,1624876821.0,32.000000
-17,7,61,1624876821.0,32.000000
-18,6,61,1624876821.0,32.000000
-18,6,61,1624876821.0,32.000000
-18,6,62,1624876821.0,32.000000
-18,6,61,1624876821.0,32.000000
-18,6,61,1624876821.0,32.000000
-18,6,61,1624876821.0,32.000000
-18,6,61,1624876821.0,32.000000
-17,6,61,1624876821.0,32.000000
-18,6,62,1624876821.0,32.000000
-21,6,63,1624876821.0,32.000000
-21,5,68,1624876821.0,32.000000
-13,7,64,1624876821.0,32.000000
-19,7,55,1624876821.0,32.000000
-17,6,55,1624876821.0,32.000000
-16,9,59,1624876821.0,32.000000
-13,9,59,1624876821.0,32.000000
-19,7,60,1624876821.0,32.000000
-20,7,62,1624876821.0,32.000000
-19,7,63,1624876821.0,32.000000
-15,6,65,1624876821.0,32.000000
-16,5,62,1624876821.0,32.000000
-17,5,61,1624876821.0,32.000000
-18,7,61,1624876821.0,32.000000
-19,8,61,1624876821.0,32.000000
-17,6,62,1624876821.0,32.000000
-17,6,62,1624876821.0,32.000000
-17,6,61,1624876821.0,32.000000
-18,6,61,1624876821.0,32.000000
-18,7,61,1624876821.0,32.000000
-17,6,61,1624876821.0,32.000000
-18,6,61,1624876821.0,32.000000
-18,6,61,1624876821.0,32.000000
-17,6,62,1624876821.0,32.000000
-17,6,61,1624876821.0,32.000000
-18,7,61,1624876821.0,32.000000
-17,7,62,1624876821.0,32.000000
-17,6,62,1624876821.0,32.000000
-18,6,61,1624876821.0,32.000000
-18,6,61,1624876821.0,32.000000
-17,6,61,1624876821.0,32.000000
-18,7,61,1624876821.0,32.000000
-18,6,61,1624876821.0,32.000000
-18,7,61,1624876821.0,32.000000
-17,6,61,1624876821.0,32.000000
-18,7,61,1624876821.0,32.000000
-18,7,61,1624876821.0,32.000000
-17,7,61,1624876821.0,32.000000
-18,6,61,1624876821.0,32.000000
-18,7,61,1624876821.0,32.000000
-18,6,61,1624876821.0,32.000000
-17,6,62,1624876821.0,32.000000
-18,6,61,1624876821.0,32.000000
-18,6,61,1624876821.0,32.000000
-18,6,61,1624876821.0,32.000000
-18,6,61,1624876821.0,32.000000
-17,6,61,1624876821.0,32.000000
-18,6,61,1624876821.0,32.000000
-18,6,61,1624876821.0,32.000000
-17,6,61,1624876821.0,32.000000
-18,7,61,1624876821.0,32.000000
-18,6,61,1624876821.0,32.000000
-17,6,62,1624876821.0,32.000000
-18,6,61,1624876821.0,32.000000
-18,7,61,1624876821.0,32.000000
-18,6,61,1624876821.0,32.000000
-18,6,61,1624876821.0,32.000000
-17,7,61,1624876821.0,32.000000
-21,5,66,1624876821.0,32.000000
-23,4,71,1624876821.0,32.000000
-14,9,59,1624876821.0,32.000000
-20,6,51,1624876821.0,32.000000
-17,5,57,1624876821.0,32.000000
-9,9,62,1624876821.0,32.000000
-7,9,62,1624876821.0,32.000000
-16,8,61,1624876821.0,32.000000
-20,7,64,1624876821.0,32.000000
-18,7,64,1624876821.0,32.000000
-16,6,63,1624876821.0,32.000000
-16,5,62,1624876821.0,32.000000
-16,5,62,1624876821.0,32.000000
-17,7,61,1624876821.0,32.000000
-17,7,62,1624876821.0,32.000000
-18,6,61,1624876821.0,32.000000
-17,6,62,1624876821.0,32.000000
-17,6,61,1624876821.0,32.000000
-17,6,62,1624876821.0,32.000000
-17,6,62,1624876821.0,32.000000
-18,6,61,1624876821.0,32.000000
-18,7,61,1624876821.0,32.000000
-17,6,61,1624876821.0,32.000000
-17,6,62,1624876821.0,32.000000
-17,7,61,1624876821.0,32.000000
-17,6,61,1624876821.0,32.000000
-17,6,61,1624876821.0,32.000000
-17,7,62,1624876821.0,32.000000
-18,6,61,1624876821.0,32.000000
-18,7,61,1624876821.0,32.000000
-17,6,61,1624876821.0,32.000000
-17,6,61,1624876821.0,32.000000
-17,7,61,1624876821.0,32.000000
-17,7,61,1624876821.0,32.000000
-17,7,61,1624876821.0,32.000000
-18,7,61,1624876821.0,32.000000
-17,6,61,1624876821.0,32.000000
-17,7,61,1624876821.0,32.000000
-17,6,61,1624876821.0,32.000000
-18,7,61,1624876821.0,32.000000
-17,6,62,1624876821.0,32.000000
-17,6,61,1624876821.0,32.000000
-17,7,61,1624876821.0,32.000000
-18,7,61,1624876821.0,32.000000
-18,6,61,1624876821.0,32.000000
-17,7,61,1624876821.0,32.000000
-17,7,61,1624876821.0,32.000000
-17,7,61,1624876821.0,32.000000
-17,6,61,1624876821.0,32.000000
-17,6,61,1624876821.0,32.000000
-18,6,61,1624876821.0,32.000000
-17,6,61,1624876821.0,32.000000
-17,6,61,1624876821.0,32.000000
-17,6,61,1624876821.0,32.000000
-18,6,62,1624876821.0,32.000000
-17,6,61,1624876821.0,32.000000
-18,6,61,1624876821.0,32.000000
-18,6,61,1624876821.0,32.000000
-21,5,64,1624876821.0,32.000000
-22,5,69,1624876821.0,32.000000
-19,7,62,1624876821.0,32.000000
-20,7,52,1624876821.0,32.000000
-16,5,53,1624876821.0,32.000000
-14,8,57,1624876821.0,32.000000
-11,10,57,1624876821.0,32.000000
-17,10,62,1624876821.0,32.000000
-22,8,63,1624876821.0,32.000000
-20,7,63,1624876821.0,32.000000
-17,5,65,1624876821.0,32.000000
-15,5,63,1624876821.0,32.000000
-16,5,61,1624876821.0,32.000000
-18,7,61,1624876821.0,32.000000
-18,8,61,1624876821.0,32.000000
-18,7,62,1624876821.0,32.000000
-17,6,62,1624876821.0,32.000000
-17,6,62,1624876821.0,32.000000
-17,7,62,1624876821.0,32.000000
-17,7,61,1624876821.0,32.000000
-18,6,61,1624876821.0,32.000000
-18,7,61,1624876821.0,32.000000
-18,6,61,1624876821.0,32.000000
-17,7,61,1624876821.0,32.000000
-17,7,62,1624876821.0,32.000000
-17,6,61,1624876821.0,32.000000
-17,7,61,1624876821.0,32.000000
-18,6,61,1624876821.0,32.000000
-18,7,61,1624876821.0,32.000000
-18,6,61,1624876821.0,32.000000
-17,7,61,1624876821.0,32.000000
-17,6,61,1624876821.0,32.000000
-18,7,61,1624876821.0,32.000000
-18,6,61,1624876821.0,32.000000
-18,7,61,1624876821.0,32.000000
-18,6,61,1624876821.0,32.000000
-18,6,61,1624876821.0,32.000000
-18,6,61,1624876821.0,32.000000
-18,6,62,1624876821.0,32.000000
-18,7,61,1624876821.0,32.000000
-18,6,61,1624876821.0,32.000000
-18,6,61,1624876821.0,32.000000
-18,7,62,1624876821.0,32.000000
-17,6,61,1624876821.0,32.000000
-18,6,61,1624876821.0,32.000000
-18,6,61,1624876821.0,32.000000
-18,6,61,1624876821.0,32.000000
-18,6,61,1624876821.0,32.000000
-18,7,61,1624876821.0,32.000000
-18,7,61,1624876821.0,32.000000
-18,6,61,1624876821.0,32.000000
-18,7,61,1624876821.0,32.000000
-17,6,61,1624876821.0,32.000000
-18,6,61,1624876821.0,32.000000
-18,7,61,1624876821.0,32.000000
-17,7,61,1624876821.0,32.000000
-17,7,61,1624876821.0,32.000000
-19,6,63,1624876821.0,32.000000
-17,6,63,1624876821.0,32.000000
-16,7,59,1624876821.0,32.000000
-16,7,59,1624876821.0,32.000000
-17,8,60,1624876821.0,32.000000
-17,8,60,1624876821.0,32.000000
-18,6,62,1624876821.0,32.000000
-17,6,63,1624876821.0,32.000000
-17,6,63,1624876821.0,32.000000
-18,6,61,1624876821.0,32.000000
-18,6,61,1624876821.0,32.000000
-18,7,61,1624876821.0,32.000000
-18,7,61,1624876821.0,32.000000
-17,7,62,1624876821.0,32.000000
-17,6,62,1624876821.0,32.000000
-17,6,61,1624876821.0,32.000000
-18,7,61,1624876821.0,32.000000
-18,7,61,1624876821.0,32.000000
-18,6,61,1624876821.0,32.000000
-18,6,61,1624876821.0,32.000000
-17,7,61,1624876821.0,32.000000
-18,7,62,1624876821.0,32.000000
-18,6,61,1624876821.0,32.000000
-17,7,61,1624876821.0,32.000000
-18,7,61,1624876821.0,32.000000
-18,6,62,1624876821.0,32.000000
-18,7,61,1624876821.0,32.000000
-18,7,61,1624876821.0,32.000000
-18,6,61,1624876821.0,32.000000
-18,7,61,1624876821.0,32.000000
-18,6,61,1624876821.0,32.000000
-18,7,61,1624876821.0,32.000000
-18,7,61,1624876821.0,32.000000
-17,7,61,1624876821.0,32.000000
-17,7,62,1624876821.0,32.000000
-17,7,62,1624876821.0,32.000000
-18,7,61,1624876821.0,32.000000
-17,6,62,1624876821.0,32.000000
-17,7,61,1624876821.0,32.000000
-18,7,61,1624876821.0,32.000000
-18,7,61,1624876821.0,32.000000
-17,7,62,1624876821.0,32.000000
-17,6,62,1624876821.0,32.000000
-18,6,61,1624876821.0,32.000000
-18,7,61,1624876821.0,32.000000
-18,7,61,1624876821.0,32.000000
-18,6,61,1624876821.0,32.000000
-17,7,62,1624876821.0,32.000000
-17,7,62,1624876821.0,32.000000
-18,7,61,1624876821.0,32.000000
-18,7,61,1624876821.0,32.000000
-17,7,62,1624876821.0,32.000000
-18,6,61,1624876821.0,32.000000
-18,7,61,1624876821.0,32.000000
-18,6,62,1624876821.0,32.000000
-18,7,62,1624876821.0,32.000000
-18,7,61,1624876821.0,32.000000
-18,6,61,1624876821.0,32.000000
-18,7,61,1624876821.0,32.000000
-18,7,61,1624876821.0,32.000000
-18,7,61,1624876821.0,32.000000
-18,7,62,1624876821.0,32.000000
-18,7,62,1624876821.0,32.000000
-18,7,61,1624876821.0,32.000000
-18,7,61,1624876821.0,32.000000
-18,7,61,1624876821.0,32.000000
-18,6,61,1624876821.0,32.000000
-18,7,61,1624876821.0,32.000000
-18,7,61,1624876821.0,32.000000
-18,7,61,1624876821.0,32.000000
-18,7,61,1624876821.0,32.000000
-18,7,61,1624876821.0,32.000000
-18,7,61,1624876821.0,32.000000
-18,7,61,1624876821.0,32.000000
-18,7,61,1624876821.0,32.000000
-18,7,61,1624876821.0,32.000000
-18,7,61,1624876821.0,32.000000
-18,7,61,1624876821.0,32.000000
-18,7,61,1624876821.0,32.000000
-18,7,61,1624876821.0,32.000000
-18,7,61,1624876821.0,32.000000
-18,7,61,1624876821.0,32.000000
-18,7,61,1624876821.0,32.000000
-18,7,61,1624876821.0,32.000000
-18,7,61,1624876821.0,32.000000
-18,7,61,1624876821.0,32.000000
-18,7,61,1624876821.0,32.000000
-18,7,61,1624876821.0,32.000000
-18,7,61,1624876821.0,32.000000
-18,7,61,1624876821.0,32.000000
-18,7,61,1624876821.0,32.000000
-18,7,61,1624876821.0,32.000000
-18,7,61,1624876821.0,32.000000
-18,7,61,1624876821.0,32.000000
-18,7,61,1624876821.0,32.000000
-18,7,61,1624876821.0,32.000000
-17,7,61,1624876821.0,32.000000
-18,7,61,1624876821.0,32.000000
-18,7,61,1624876821.0,32.000000
-18,7,61,1624876821.0,32.000000
-18,7,61,1624876821.0,32.000000
-18,6,61,1624876821.0,32.000000
-18,6,61,1624876821.0,32.000000
-17,6,61,1624876821.0,32.000000
-18,6,61,1624876821.0,32.000000
-17,7,61,1624876821.0,32.000000
-18,7,61,1624876821.0,32.000000
-18,6,62,1624876821.0,32.000000
-17,6,62,1624876821.0,32.000000
-17,6,62,1624876821.0,32.000000
-17,6,61,1624876821.0,32.000000
-18,6,61,1624876821.0,32.000000
-17,7,62,1624876821.0,32.000000
-17,6,62,1624876821.0,32.000000
-18,6,61,1624876821.0,32.000000
-18,6,61,1624876821.0,32.000000
-18,7,61,1624876821.0,32.000000
-17,6,62,1624876821.0,32.000000
-18,6,61,1624876821.0,32.000000
-17,6,61,1624876821.0,32.000000
-18,6,61,1624876821.0,32.000000
-18,6,61,1624876821.0,32.000000
-17,6,62,1624876821.0,32.000000
-17,6,62,1624876821.0,32.000000
-18,6,61,1624876821.0,32.000000
-18,6,61,1624876821.0,32.000000
-18,7,61,1624876821.0,32.000000
-18,6,62,1624876821.0,32.000000
-18,6,61,1624876821.0,32.000000
-18,7,61,1624876821.0,32.000000
-18,7,61,1624876821.0,32.000000
-17,7,61,1624876821.0,32.000000
-18,6,62,1624876821.0,32.000000
-17,6,62,1624876821.0,32.000000
-18,7,61,1624876821.0,32.000000
-18,7,61,1624876821.0,32.000000
-18,7,61,1624876821.0,32.000000
-18,7,61,1624876821.0,32.000000
-17,7,62,1624876821.0,32.000000
-18,6,62,1624876821.0,32.000000
-18,7,61,1624876821.0,32.000000
-18,6,61,1624876821.0,32.000000
-18,7,61,1624876821.0,32.000000
-18,6,61,1624876821.0,32.000000
-18,7,62,1624876821.0,32.000000
-18,7,61,1624876821.0,32.000000
-18,7,61,1624876821.0,32.000000
-18,7,61,1624876821.0,32.000000
-18,7,61,1624876821.0,32.000000
-18,6,61,1624876821.0,32.000000
-18,6,61,1624876821.0,32.000000
-17,6,62,1624876821.0,32.000000
-18,6,61,1624876821.0,32.000000
-18,6,61,1624876821.0,32.000000
-18,6,61,1624876821.0,32.000000
-18,6,62,1624876821.0,32.000000
-18,6,61,1624876821.0,32.000000
-18,7,61,1624876821.0,32.000000
-18,6,61,1624876821.0,32.000000
-18,6,61,1624876821.0,32.000000
-17,6,61,1624876821.0,32.000000
-18,6,62,1624876821.0,32.000000
-18,7,61,1624876821.0,32.000000
-18,6,61,1624876821.0,32.000000
-18,6,61,1624876821.0,32.000000
-18,7,62,1624876821.0,32.000000
-18,6,61,1624876821.0,32.000000
-18,6,61,1624876821.0,32.000000
-18,7,61,1624876821.0,32.000000
-18,7,61,1624876821.0,32.000000
-17,7,61,1624876821.0,32.000000
-18,7,61,1624876821.0,32.000000
-18,7,61,1624876821.0,32.000000
-18,7,61,1624876821.0,32.000000
-18,7,61,1624876821.0,32.000000
-18,7,61,1624876821.0,32.000000
-18,7,61,1624876821.0,32.000000
-18,7,61,1624876821.0,32.000000
-18,7,61,1624876821.0,32.000000
-18,7,61,1624876821.0,32.000000
-18,7,61,1624876821.0,32.000000
-18,7,61,1624876821.0,32.000000
-18,7,61,1624876821.0,32.000000
-18,7,61,1624876821.0,32.000000
-18,7,61,1624876821.0,32.000000
-18,7,61,1624876821.0,32.000000
-18,7,61,1624876821.0,32.000000
-18,7,61,1624876821.0,32.000000
-18,7,61,1624876821.0,32.000000
-18,7,61,1624876821.0,32.000000
-18,7,61,1624876821.0,32.000000
-18,7,61,1624876821.0,32.000000
-18,7,61,1624876821.0,32.000000
-18,7,61,1624876821.0,32.000000
-18,7,61,1624876821.0,32.000000
-18,7,61,1624876821.0,32.000000
-18,7,61,1624876821.0,32.000000
-18,7,61,1624876821.0,32.000000
-17,7,61,1624876821.0,32.000000
-18,7,61,1624876821.0,32.000000
-18,7,61,1624876821.0,32.000000
-18,7,61,1624876821.0,32.000000
-18,7,61,1624876821.0,32.000000
-18,7,61,1624876821.0,32.000000
-18,7,61,1624876821.0,32.000000
-18,7,61,1624876821.0,32.000000
-18,7,61,1624876821.0,32.000000
-18,7,61,1624876821.0,32.000000
-18,7,61,1624876821.0,32.000000
-18,7,61,1624876821.0,32.000000
-18,7,61,1624876821.0,32.000000
-18,7,61,1624876821.0,32.000000
-18,7,61,1624876821.0,32.000000
-18,7,61,1624876821.0,32.000000
-18,7,61,1624876821.0,32.000000
-18,7,61,1624876821.0,32.000000
-18,7,61,1624876821.0,32.000000
-18,7,61,1624876821.0,32.000000
-18,7,61,1624876821.0,32.000000
-18,7,61,1624876821.0,32.000000
-18,7,61,1624876821.0,32.000000
-18,7,61,1624876821.0,32.000000
-18,7,61,1624876821.0,32.000000
-18,7,61,1624876821.0,32.000000
-18,7,61,1624876821.0,32.000000
-18,7,61,1624876821.0,32.000000
-18,7,61,1624876821.0,32.000000
-18,7,61,1624876821.0,32.000000
-18,7,61,1624876821.0,32.000000
-18,7,61,1624876821.0,32.000000
-18,7,61,1624876821.0,32.000000
-18,7,61,1624876821.0,32.000000
-18,7,61,1624876821.0,32.000000
-18,7,61,1624876821.0,32.000000
-18,7,61,1624876821.0,32.000000
-18,7,61,1624876821.0,32.000000
-18,7,61,1624876821.0,32.000000
-18,7,61,1624876821.0,32.000000
-18,7,61,1624876821.0,32.000000
-18,7,61,1624876821.0,32.000000
-18,7,61,1624876821.0,32.000000
-18,7,61,1624876821.0,32.000000
-18,7,61,1624876821.0,32.000000
-18,7,61,1624876821.0,32.000000
-18,7,61,1624876821.0,32.000000
-18,7,61,1624876821.0,32.000000
-18,7,61,1624876821.0,32.000000
-18,7,61,1624876821.0,32.000000
-18,7,61,1624876821.0,32.000000
-18,7,61,1624876821.0,32.000000
-18,7,61,1624876821.0,32.000000
-18,7,62,1624876821.0,32.000000
-18,7,61,1624876821.0,32.000000
-18,7,61,1624876821.0,32.000000
-18,7,62,1624876821.0,32.000000
-18,7,61,1624876821.0,32.000000
-18,7,61,1624876821.0,32.000000
-18,7,61,1624876821.0,32.000000
-18,7,61,1624876821.0,32.000000
-18,7,61,1624876821.0,32.000000
-18,7,61,1624876821.0,32.000000
-18,7,61,1624876821.0,32.000000
-18,7,61,1624876821.0,32.000000
-18,7,61,1624876821.0,32.000000
-18,7,61,1624876821.0,32.000000
-18,7,61,1624876821.0,32.000000
-18,7,61,1624876821.0,32.000000
-18,7,61,1624876821.0,32.000000
-18,7,61,1624876821.0,32.000000
-18,7,61,1624876821.0,32.000000
-18,7,61,1624876821.0,32.000000
-18,7,61,1624876821.0,32.000000
-18,7,61,1624876821.0,32.000000
-18,7,61,1624876821.0,32.000000
-18,7,61,1624876821.0,32.000000
-18,7,61,1624876821.0,32.000000
-18,7,61,1624876821.0,32.000000
-18,7,61,1624876821.0,32.000000
-18,7,61,1624876821.0,32.000000
-18,7,61,1624876821.0,32.000000
-18,7,61,1624876821.0,32.000000
-18,7,61,1624876821.0,32.000000
-18,7,61,1624876821.0,32.000000
-18,7,61,1624876821.0,32.000000
-18,7,61,1624876821.0,32.000000
-18,7,61,1624876821.0,32.000000
-18,7,61,1624876821.0,32.000000
-18,7,61,1624876821.0,32.000000
-18,7,61,1624876821.0,32.000000
-18,7,61,1624876821.0,32.000000
-18,7,61,1624876821.0,32.000000
-18,7,61,1624876821.0,32.000000
-18,7,61,1624876821.0,32.000000
-18,7,61,1624876821.0,32.000000
-18,7,61,1624876821.0,32.000000
-18,7,61,1624876821.0,32.000000
-18,7,61,1624876821.0,32.000000
-18,7,61,1624876821.0,32.000000
-18,7,61,1624876821.0,32.000000
-18,7,61,1624876821.0,32.000000
-17,7,62,1624876821.0,32.000000
-18,7,61,1624876821.0,32.000000
-18,7,61,1624876821.0,32.000000
-18,7,61,1624876821.0,32.000000
-18,7,61,1624876821.0,32.000000
-18,7,61,1624876821.0,32.000000
-18,7,62,1624876821.0,32.000000
-18,7,61,1624876821.0,32.000000
-18,7,61,1624876821.0,32.000000
-18,7,61,1624876821.0,32.000000
-18,7,61,1624876821.0,32.000000
-18,7,61,1624876821.0,32.000000
-18,7,61,1624876821.0,32.000000
-18,7,61,1624876821.0,32.000000
-18,7,61,1624876821.0,32.000000
-18,7,61,1624876821.0,32.000000
-18,7,61,1624876821.0,32.000000
-18,7,62,1624876821.0,32.000000
-18,7,61,1624876821.0,32.000000
-18,7,61,1624876821.0,32.000000
-18,7,62,1624876821.0,32.000000
-18,7,61,1624876821.0,32.000000
-18,7,61,1624876821.0,32.000000
-18,7,61,1624876821.0,32.000000
-18,7,61,1624876821.0,32.000000
-18,7,61,1624876821.0,32.000000
-18,7,61,1624876821.0,32.000000
-18,7,61,1624876821.0,32.000000
-18,7,61,1624876821.0,32.000000
-18,7,61,1624876821.0,32.000000
-18,7,61,1624876821.0,32.000000
-18,7,61,1624876821.0,32.000000
-18,7,61,1624876821.0,32.000000
-18,7,61,1624876821.0,32.000000
-18,7,61,1624876821.0,32.000000
-18,7,61,1624876821.0,32.000000
-18,7,61,1624876821.0,32.000000
-18,7,61,1624876821.0,32.000000
-18,7,61,1624876821.0,32.000000
-18,7,61,1624876821.0,32.000000
-18,7,61,1624876821.0,32.000000
-18,7,61,1624876821.0,32.000000
-18,7,61,1624876821.0,32.000000
-18,7,61,1624876821.0,32.000000
-18,7,61,1624876821.0,32.000000
-18,7,61,1624876821.0,32.000000
-18,7,61,1624876821.0,32.000000
-18,7,61,1624876821.0,32.000000
-18,7,61,1624876821.0,32.000000
-18,7,61,1624876821.0,32.000000
-18,7,61,1624876821.0,32.000000
-18,7,61,1624876821.0,32.000000
-18,7,62,1624876821.0,32.000000
-18,7,61,1624876821.0,32.000000
-18,7,61,1624876821.0,32.000000
-18,7,61,1624876821.0,32.000000
-18,7,61,1624876821.0,32.000000
-18,7,61,1624876821.0,32.000000
-18,7,61,1624876821.0,32.000000
-18,7,61,1624876821.0,32.000000
-18,7,61,1624876821.0,32.000000
-18,7,61,1624876821.0,32.000000
-18,7,61,1624876821.0,32.000000
-18,7,61,1624876821.0,32.000000
-18,7,61,1624876821.0,32.000000
-18,7,61,1624876821.0,32.000000
-18,7,61,1624876821.0,32.000000
-18,7,61,1624876821.0,32.000000
-19,7,61,1624876821.0,32.000000
-18,7,61,1624876821.0,32.000000
-18,7,61,1624876821.0,32.000000
-18,7,61,1624876821.0,32.000000
-18,7,61,1624876821.0,32.000000
-18,7,61,1624876821.0,32.000000
-18,7,61,1624876821.0,32.000000
-18,7,61,1624876821.0,32.000000
-18,7,61,1624876821.0,32.000000
-18,7,61,1624876821.0,32.000000
-18,7,61,1624876821.0,32.000000
-18,7,61,1624876821.0,32.000000
-18,7,61,1624876821.0,32.000000
-19,7,61,1624876821.0,32.000000
-18,7,61,1624876821.0,32.000000
-18,7,61,1624876821.0,32.000000
-18,7,61,1624876821.0,32.000000
-18,7,61,1624876821.0,32.000000
-18,7,61,1624876821.0,32.000000
-18,7,61,1624876821.0,32.000000
-18,7,61,1624876821.0,32.000000
-18,7,61,1624876821.0,32.000000
-18,7,61,1624876821.0,32.000000
-18,7,61,1624876821.0,32.000000
-18,7,61,1624876821.0,32.000000
-18,7,61,1624876821.0,32.000000
-19,7,61,1624876821.0,32.000000
-18,7,61,1624876821.0,32.000000
-18,7,61,1624876821.0,32.000000
-18,7,61,1624876821.0,32.000000
-19,7,61,1624876821.0,32.000000
-19,7,61,1624876821.0,32.000000
-18,7,61,1624876821.0,32.000000
-19,7,61,1624876821.0,32.000000
-19,7,61,1624876821.0,32.000000
-18,7,61,1624876821.0,32.000000
-18,7,61,1624876821.0,32.000000
-19,7,61,1624876821.0,32.000000
-19,7,61,1624876821.0,32.000000
-19,7,61,1624876821.0,32.000000
-18,7,61,1624876821.0,32.000000
-19,7,61,1624876821.0,32.000000
-19,7,61,1624876821.0,32.000000
-18,7,61,1624876821.0,32.000000
-19,7,61,1624876821.0,32.000000
-19,7,61,1624876821.0,32.000000
-19,7,61,1624876821.0,32.000000
-19,7,61,1624876821.0,32.000000
-19,7,61,1624876821.0,32.000000
-19,7,61,1624876821.0,32.000000
-19,7,61,1624876821.0,32.000000
-19,7,61,1624876821.0,32.000000
-19,7,61,1624876821.0,32.000000
-19,7,61,1624876821.0,32.000000
-19,7,61,1624876821.0,32.000000
-19,7,61,1624876821.0,32.000000
-19,7,61,1624876821.0,32.000000
-19,7,61,1624876821.0,32.000000
-19,7,61,1624876821.0,32.000000
-19,7,61,1624876821.0,32.000000
-19,7,61,1624876821.0,32.000000
-19,7,61,1624876821.0,32.000000
-19,7,61,1624876821.0,32.000000
-19,7,61,1624876821.0,32.000000
-19,7,61,1624876821.0,32.000000
-19,7,61,1624876821.0,32.000000
-19,7,61,1624876821.0,32.000000
-19,7,61,1624876821.0,32.000000
-19,7,61,1624876821.0,32.000000
-19,7,61,1624876821.0,32.000000
-19,7,61,1624876821.0,32.000000
-19,7,61,1624876821.0,32.000000
-19,7,61,1624876821.0,32.000000
-19,7,61,1624876821.0,32.000000
-19,7,61,1624876821.0,32.000000
-19,7,61,1624876821.0,32.000000
-19,7,61,1624876821.0,32.000000
-19,7,61,1624876821.0,32.000000
-19,7,61,1624876821.0,32.000000
-19,7,61,1624876821.0,32.000000
-19,7,61,1624876821.0,32.000000
-19,7,61,1624876821.0,32.000000
-19,7,61,1624876821.0,32.000000
-19,7,61,1624876821.0,32.000000
-19,7,61,1624876821.0,32.000000
-19,7,61,1624876821.0,32.000000
-19,7,61,1624876821.0,32.000000
-19,7,61,1624876821.0,32.000000
-19,7,61,1624876821.0,32.000000
-19,7,61,1624876821.0,32.000000
-19,7,61,1624876821.0,32.000000
-18,7,61,1624876821.0,32.000000
-19,7,61,1624876821.0,32.000000
-19,7,61,1624876821.0,32.000000
-19,7,61,1624876821.0,32.000000
-18,7,61,1624876821.0,32.000000
-18,7,61,1624876821.0,32.000000
-18,7,61,1624876821.0,32.000000
-19,7,61,1624876821.0,32.000000
-18,7,61,1624876821.0,32.000000
-18,7,61,1624876821.0,32.000000
-18,7,61,1624876821.0,32.000000
-18,7,61,1624876821.0,32.000000
-19,7,61,1624876821.0,32.000000
-19,7,61,1624876821.0,32.000000
-19,7,61,1624876821.0,32.000000
-18,7,61,1624876821.0,32.000000
-18,7,61,1624876821.0,32.000000
-19,7,61,1624876821.0,32.000000
-18,7,61,1624876821.0,32.000000
-18,7,61,1624876821.0,32.000000
-18,7,61,1624876821.0,32.000000
-18,7,61,1624876821.0,32.000000
-18,7,61,1624876821.0,32.000000
-18,7,61,1624876821.0,32.000000
-18,7,61,1624876821.0,32.000000
-18,7,61,1624876821.0,32.000000
-19,7,61,1624876821.0,32.000000
-13,5,77,1624876821.0,32.000000
-12,5,65,1624876821.0,32.000000
-21,5,46,1624876821.0,32.000000
-28,9,54,1624876821.0,32.000000
-23,11,57,1624876821.0,32.000000
-17,11,60,1624876821.0,32.000000
-17,8,63,1624876821.0,32.000000
-17,5,65,1624876821.0,32.000000
-13,6,66,1624876821.0,32.000000
-16,5,64,1624876821.0,32.000000
-21,6,60,1624876821.0,32.000000
-21,7,59,1624876821.0,32.000000
-19,8,61,1624876821.0,32.000000
-17,7,62,1624876821.0,32.000000
-16,7,62,1624876821.0,32.000000
-17,7,61,1624876821.0,32.000000
-19,7,61,1624876821.0,32.000000
-19,7,61,1624876821.0,32.000000
-18,7,61,1624876821.0,32.000000
-18,7,61,1624876821.0,32.000000
-17,7,61,1624876821.0,32.000000
-18,6,61,1624876821.0,32.000000
-18,7,62,1624876821.0,32.000000
-18,7,61,1624876821.0,32.000000
-18,7,61,1624876821.0,32.000000
-18,7,61,1624876821.0,32.000000
-17,7,61,1624876821.0,32.000000
-18,7,61,1624876821.0,32.000000
-18,7,61,1624876821.0,32.000000
-18,7,61,1624876821.0,32.000000
-18,7,61,1624876821.0,32.000000
-18,7,61,1624876821.0,32.000000
-18,7,61,1624876821.0,32.000000
-18,7,61,1624876821.0,32.000000
-18,7,61,1624876821.0,32.000000
-18,7,61,1624876821.0,32.000000
-18,7,61,1624876821.0,32.000000
-18,7,61,1624876821.0,32.000000
-18,7,61,1624876821.0,32.000000
-18,7,61,1624876821.0,32.000000
-18,7,62,1624876821.0,32.000000
-18,7,61,1624876821.0,32.000000
-18,7,61,1624876821.0,32.000000
-18,7,61,1624876821.0,32.000000
-18,6,61,1624876821.0,32.000000
-18,7,61,1624876821.0,32.000000
-18,7,61,1624876821.0,32.000000
-18,7,61,1624876821.0,32.000000
-18,7,61,1624876821.0,32.000000
-18,7,61,1624876821.0,32.000000
-18,7,61,1624876821.0,32.000000
-17,7,61,1624876821.0,32.000000
-18,7,61,1624876821.0,32.000000
-18,7,62,1624876821.0,32.000000
-17,7,61,1624876821.0,32.000000
-23,5,66,1624876821.0,32.000000
-21,4,73,1624876821.0,32.000000
-13,8,55,1624876821.0,32.000000
-19,5,52,1624876821.0,32.000000
-18,7,58,1624876821.0,32.000000
-15,11,59,1624876821.0,32.000000
-16,11,59,1624876821.0,32.000000
-15,7,63,1624876821.0,32.000000
-16,6,66,1624876821.0,32.000000
-17,5,65,1624876821.0,32.000000
-19,5,62,1624876821.0,32.000000
-18,5,61,1624876821.0,32.000000
-17,6,61,1624876821.0,32.000000
-17,7,62,1624876821.0,32.000000
-18,7,62,1624876821.0,32.000000
-17,6,62,1624876821.0,32.000000
-17,6,61,1624876821.0,32.000000
-17,7,61,1624876821.0,32.000000
-17,7,61,1624876821.0,32.000000
-18,7,61,1624876821.0,32.000000
-18,7,61,1624876821.0,32.000000
-17,7,61,1624876821.0,32.000000
-18,7,61,1624876821.0,32.000000
-18,7,61,1624876821.0,32.000000
-18,7,61,1624876821.0,32.000000
-17,7,61,1624876821.0,32.000000
-17,7,61,1624876821.0,32.000000
-17,7,61,1624876821.0,32.000000
-18,7,61,1624876821.0,32.000000
-18,7,61,1624876821.0,32.000000
-18,7,61,1624876821.0,32.000000
-17,7,61,1624876821.0,32.000000
-17,7,62,1624876821.0,32.000000
-18,7,61,1624876821.0,32.000000
-18,7,61,1624876821.0,32.000000
-17,7,61,1624876821.0,32.000000
-18,7,61,1624876821.0,32.000000
-18,7,61,1624876821.0,32.000000
-18,7,61,1624876821.0,32.000000
-18,7,61,1624876821.0,32.000000
-18,7,61,1624876821.0,32.000000
-18,7,61,1624876821.0,32.000000
-18,7,61,1624876821.0,32.000000
-17,7,61,1624876821.0,32.000000
-17,7,61,1624876821.0,32.000000
-18,7,61,1624876821.0,32.000000
-17,7,61,1624876821.0,32.000000
-17,7,61,1624876821.0,32.000000
-18,7,61,1624876821.0,32.000000
-18,7,61,1624876821.0,32.000000
-17,7,61,1624876821.0,32.000000
-17,7,62,1624876821.0,32.000000
-18,7,61,1624876821.0,32.000000
-18,7,61,1624876821.0,32.000000
-18,7,61,1624876821.0,32.000000
-19,6,62,1624876821.0,32.000000
-14,6,63,1624876821.0,32.000000
-20,6,60,1624876821.0,32.000000
-24,5,69,1624876821.0,32.000000
-20,11,59,1624876821.0,32.000000
-13,8,51,1624876821.0,32.000000
-10,6,60,1624876821.0,32.000000
-7,8,59,1624876821.0,32.000000
-13,8,63,1624876821.0,32.000000
-15,7,65,1624876821.0,32.000000
-19,7,65,1624876821.0,32.000000
-22,7,63,1624876821.0,32.000000
-18,6,63,1624876821.0,32.000000
-15,5,62,1624876821.0,32.000000
-15,6,61,1624876821.0,32.000000
-17,7,61,1624876821.0,32.000000
-17,7,62,1624876821.0,32.000000
-17,7,62,1624876821.0,32.000000
-16,7,62,1624876821.0,32.000000
-17,7,61,1624876821.0,32.000000
-18,7,61,1624876821.0,32.000000
-18,7,61,1624876821.0,32.000000
-17,7,61,1624876821.0,32.000000
-17,6,62,1624876821.0,32.000000
-17,7,63,1624876821.0,32.000000
-17,7,61,1624876821.0,32.000000
-17,7,61,1624876821.0,32.000000
-17,7,61,1624876821.0,32.000000
-17,7,61,1624876821.0,32.000000
-17,7,61,1624876821.0,32.000000
-18,7,61,1624876821.0,32.000000
-18,7,61,1624876821.0,32.000000
-17,7,61,1624876821.0,32.000000
-17,7,61,1624876821.0,32.000000
-17,7,62,1624876821.0,32.000000
-17,7,61,1624876821.0,32.000000
-18,7,61,1624876821.0,32.000000
-18,7,61,1624876821.0,32.000000
-17,7,61,1624876821.0,32.000000
-17,7,61,1624876821.0,32.000000
-18,7,61,1624876821.0,32.000000
-18,7,61,1624876821.0,32.000000
-18,7,61,1624876821.0,32.000000
-17,7,61,1624876821.0,32.000000
-17,7,61,1624876821.0,32.000000
-17,7,61,1624876821.0,32.000000
-17,7,61,1624876821.0,32.000000
-18,7,61,1624876821.0,32.000000
-18,7,61,1624876821.0,32.000000
-17,7,61,1624876821.0,32.000000
-17,7,61,1624876821.0,32.000000
-17,7,61,1624876821.0,32.000000
-17,7,61,1624876821.0,32.000000
-17,7,61,1624876821.0,32.000000
-17,7,61,1624876821.0,32.000000
-18,7,62,1624876821.0,32.000000
-17,7,62,1624876821.0,32.000000
-18,7,61,1624876821.0,32.000000
-17,6,62,1624876821.0,32.000000
-17,7,61,1624876821.0,32.000000
-18,7,61,1624876821.0,32.000000
-24,6,75,1624876821.0,32.000000
-6,7,71,1624876821.0,32.000000
-17,9,45,1624876821.0,32.000000
-18,5,49,1624876821.0,32.000000
-21,6,62,1624876821.0,32.000000
-20,10,58,1624876821.0,32.000000
-20,9,61,1624876821.0,32.000000
-12,6,68,1624876821.0,32.000000
-14,5,64,1624876821.0,32.000000
-18,4,63,1624876821.0,32.000000
-19,6,60,1624876821.0,32.000000
-18,6,60,1624876821.0,32.000000
-18,7,61,1624876821.0,32.000000
-18,7,61,1624876821.0,32.000000
-17,7,62,1624876821.0,32.000000
-16,7,61,1624876821.0,32.000000
-17,7,61,1624876821.0,32.000000
-18,7,61,1624876821.0,32.000000
-18,7,61,1624876821.0,32.000000
-18,7,61,1624876821.0,32.000000
-17,7,61,1624876821.0,32.000000
-17,7,61,1624876821.0,32.000000
-18,7,61,1624876821.0,32.000000
-18,7,61,1624876821.0,32.000000
-18,7,61,1624876821.0,32.000000
-17,7,62,1624876821.0,32.000000
-17,7,61,1624876821.0,32.000000
-18,7,61,1624876821.0,32.000000
-18,7,61,1624876821.0,32.000000
-18,7,61,1624876821.0,32.000000
-17,7,61,1624876821.0,32.000000
-17,7,61,1624876821.0,32.000000
-18,7,61,1624876821.0,32.000000
-18,7,61,1624876821.0,32.000000
-18,7,61,1624876821.0,32.000000
-18,7,61,1624876821.0,32.000000
-18,7,61,1624876821.0,32.000000
-18,7,61,1624876821.0,32.000000
-18,7,61,1624876821.0,32.000000
-18,7,61,1624876821.0,32.000000
-18,7,61,1624876821.0,32.000000
-18,7,61,1624876821.0,32.000000
-18,7,61,1624876821.0,32.000000
-18,7,62,1624876821.0,32.000000
-18,7,61,1624876821.0,32.000000
-18,7,61,1624876821.0,32.000000
-17,7,62,1624876821.0,32.000000
-17,7,62,1624876821.0,32.000000
-18,7,61,1624876821.0,32.000000
-18,7,61,1624876821.0,32.000000
-18,7,60,1624876821.0,32.000000
-18,7,62,1624876821.0,32.000000
-17,7,62,1624876821.0,32.000000
-17,7,62,1624876821.0,32.000000
-17,7,62,1624876821.0,32.000000
-18,7,61,1624876821.0,32.000000
-19,7,61,1624876821.0,32.000000
-18,7,61,1624876821.0,32.000000
-18,7,62,1624876821.0,32.000000
-21,6,71,1624876821.0,32.000000
-4,10,63,1624876821.0,32.000000
-12,7,48,1624876821.0,32.000000
-31,6,51,1624876821.0,32.000000
-20,9,59,1624876821.0,32.000000
-11,7,67,1624876821.0,32.000000
-13,7,66,1624876821.0,32.000000
-13,6,64,1624876821.0,32.000000
-15,6,64,1624876821.0,32.000000
-18,7,61,1624876821.0,32.000000
-20,7,59,1624876821.0,32.000000
-19,7,60,1624876821.0,32.000000
-18,7,61,1624876821.0,32.000000
-16,7,63,1624876821.0,32.000000
-17,7,62,1624876821.0,32.000000
-17,7,62,1624876821.0,32.000000
-19,8,60,1624876821.0,32.000000
-18,8,60,1624876821.0,32.000000
-18,8,61,1624876821.0,32.000000
-17,7,62,1624876821.0,32.000000
-17,7,62,1624876821.0,32.000000
-18,7,61,1624876821.0,32.000000
-18,7,61,1624876821.0,32.000000
-18,7,61,1624876821.0,32.000000
-17,7,62,1624876821.0,32.000000
-17,7,61,1624876821.0,32.000000
-18,7,61,1624876821.0,32.000000
-18,7,61,1624876821.0,32.000000
-18,7,62,1624876821.0,32.000000
-18,7,61,1624876821.0,32.000000
-18,7,61,1624876821.0,32.000000
-18,7,61,1624876821.0,32.000000
-17,7,61,1624876821.0,32.000000
-18,7,61,1624876821.0,32.000000
-18,7,61,1624876821.0,32.000000
-18,7,61,1624876821.0,32.000000
-18,7,61,1624876821.0,32.000000
-18,7,61,1624876821.0,32.000000
-18,7,61,1624876821.0,32.000000
-18,7,61,1624876821.0,32.000000
-18,7,61,1624876821.0,32.000000
-18,7,61,1624876821.0,32.000000
-17,8,61,1624876821.0,32.000000
-17,7,61,1624876821.0,32.000000
-18,7,61,1624876821.0,32.000000
-18,7,61,1624876821.0,32.000000
-18,7,61,1624876821.0,32.000000
-18,7,61,1624876821.0,32.000000
-18,7,61,1624876821.0,32.000000
-18,7,61,1624876821.0,32.000000
-18,7,61,1624876821.0,32.000000
-18,7,61,1624876821.0,32.000000
-17,7,61,1624876821.0,32.000000
-17,7,61,1624876821.0,32.000000
-18,7,62,1624876821.0,32.000000
-18,7,61,1624876821.0,32.000000
-18,7,61,1624876821.0,32.000000
-18,7,61,1624876821.0,32.000000
-18,8,61,1624876821.0,32.000000
-20,5,73,1624876821.0,32.000000
-14,8,65,1624876821.0,32.000000
-17,8,50,1624876821.0,32.000000
-16,7,60,1624876821.0,32.000000
-16,8,61,1624876821.0,32.000000
-16,10,60,1624876821.0,32.000000
-16,9,63,1624876821.0,32.000000
-18,6,63,1624876821.0,32.000000
-18,5,62,1624876821.0,32.000000
-18,6,62,1624876821.0,32.000000
-17,7,61,1624876821.0,32.000000
-17,7,61,1624876821.0,32.000000
-18,7,61,1624876821.0,32.000000
-18,7,61,1624876821.0,32.000000
-17,7,62,1624876821.0,32.000000
-18,8,61,1624876821.0,32.000000
-18,7,61,1624876821.0,32.000000
-18,7,61,1624876821.0,32.000000
-17,7,61,1624876821.0,32.000000
-17,7,61,1624876821.0,32.000000
-17,7,61,1624876821.0,32.000000
-18,7,62,1624876821.0,32.000000
-18,7,62,1624876821.0,32.000000
-18,8,61,1624876821.0,32.000000
-18,7,61,1624876821.0,32.000000
-18,8,61,1624876821.0,32.000000
-18,8,61,1624876821.0,32.000000
-18,7,61,1624876821.0,32.000000
-18,7,61,1624876821.0,32.000000
-18,7,61,1624876821.0,32.000000
-17,7,61,1624876821.0,32.000000
-18,8,61,1624876821.0,32.000000
-18,8,61,1624876821.0,32.000000
-18,8,61,1624876821.0,32.000000
-18,7,61,1624876821.0,32.000000
-18,7,61,1624876821.0,32.000000
-18,7,61,1624876821.0,32.000000
-18,8,61,1624876821.0,32.000000
-18,8,61,1624876821.0,32.000000
-18,7,61,1624876821.0,32.000000
-17,8,61,1624876821.0,32.000000
-17,8,61,1624876821.0,32.000000
-18,8,61,1624876821.0,32.000000
-18,8,61,1624876821.0,32.000000
-18,8,61,1624876821.0,32.000000
-18,7,61,1624876821.0,32.000000
-18,7,61,1624876821.0,32.000000
-18,8,61,1624876821.0,32.000000
-18,7,61,1624876821.0,32.000000
-18,7,61,1624876821.0,32.000000
-18,8,61,1624876821.0,32.000000
-18,7,62,1624876821.0,32.000000
-18,7,61,1624876821.0,32.000000
-18,7,61,1624876821.0,32.000000
-18,7,61,1624876821.0,32.000000
-18,8,60,1624876821.0,32.000000
-18,7,64,1624876821.0,32.000000
-19,6,64,1624876821.0,32.000000
-17,8,59,1624876821.0,32.000000
-19,8,58,1624876821.0,32.000000
-16,8,61,1624876821.0,32.000000
-17,7,59,1624876821.0,32.000000
-15,9,64,1624876821.0,32.000000
-20,4,80,1624876821.0,32.000000
-24,9,56,1624876821.0,32.000000
-12,9,46,1624876821.0,32.000000
-17,8,53,1624876821.0,32.000000
-11,9,60,1624876821.0,32.000000
-20,7,66,1624876821.0,32.000000
-20,7,62,1624876821.0,32.000000
-16,10,61,1624876821.0,32.000000
-16,6,67,1624876821.0,32.000000
-17,5,67,1624876821.0,32.000000
-17,4,62,1624876821.0,32.000000
-17,5,62,1624876821.0,32.000000
-16,7,61,1624876821.0,32.000000
-17,7,61,1624876821.0,32.000000
-16,7,61,1624876821.0,32.000000
-15,7,62,1624876821.0,32.000000
-16,7,62,1624876821.0,32.000000
-17,7,61,1624876821.0,32.000000
-16,7,61,1624876821.0,32.000000
-16,7,62,1624876821.0,32.000000
-16,7,61,1624876821.0,32.000000
-16,7,62,1624876821.0,32.000000
-17,7,62,1624876821.0,32.000000
-16,7,62,1624876821.0,32.000000
-16,7,62,1624876821.0,32.000000
-17,7,61,1624876821.0,32.000000
-17,7,61,1624876821.0,32.000000
-17,7,62,1624876821.0,32.000000
-17,7,62,1624876821.0,32.000000
-16,7,62,1624876821.0,32.000000
-17,7,61,1624876821.0,32.000000
-16,7,61,1624876821.0,32.000000
-17,7,62,1624876821.0,32.000000
-16,7,62,1624876821.0,32.000000
-16,7,62,1624876821.0,32.000000
-17,7,61,1624876821.0,32.000000
-17,7,61,1624876821.0,32.000000
-17,7,61,1624876821.0,32.000000
-17,7,62,1624876821.0,32.000000
-17,7,61,1624876821.0,32.000000
-16,7,61,1624876821.0,32.000000
-17,7,61,1624876821.0,32.000000
-17,7,62,1624876821.0,32.000000
-17,7,62,1624876821.0,32.000000
-16,7,62,1624876821.0,32.000000
-16,7,62,1624876821.0,32.000000
-17,7,61,1624876821.0,32.000000
-17,7,62,1624876821.0,32.000000
-16,7,61,1624876821.0,32.000000
-17,7,61,1624876821.0,32.000000
-17,7,61,1624876821.0,32.000000
-17,7,62,1624876821.0,32.000000
-16,7,62,1624876821.0,32.000000
-17,7,61,1624876821.0,32.000000
-17,7,61,1624876821.0,32.000000
-16,7,62,1624876821.0,32.000000
-16,7,62,1624876821.0,32.000000
-24,6,66,1624876821.0,32.000000
-14,9,66,1624876821.0,32.000000
-9,10,57,1624876821.0,32.000000
-20,6,57,1624876821.0,32.000000
-18,5,61,1624876821.0,32.000000
-12,9,63,1624876821.0,32.000000
-9,8,59,1624876821.0,32.000000
-11,9,54,1624876821.0,32.000000
-15,9,56,1624876821.0,32.000000
-16,7,60,1624876821.0,32.000000
-17,7,66,1624876821.0,32.000000
-16,6,64,1624876821.0,32.000000
-17,6,62,1624876821.0,32.000000
-16,7,63,1624876821.0,32.000000
-14,7,62,1624876821.0,32.000000
-15,7,62,1624876821.0,32.000000
-15,7,62,1624876821.0,32.000000
-15,7,62,1624876821.0,32.000000
-15,7,62,1624876821.0,32.000000
-16,7,61,1624876821.0,32.000000
-16,7,61,1624876821.0,32.000000
-15,8,62,1624876821.0,32.000000
-15,8,62,1624876821.0,32.000000
-16,7,61,1624876821.0,32.000000
-15,7,62,1624876821.0,32.000000
-16,7,62,1624876821.0,32.000000
-15,8,62,1624876821.0,32.000000
-15,7,62,1624876821.0,32.000000
-16,8,61,1624876821.0,32.000000
-15,8,62,1624876821.0,32.000000
-16,8,62,1624876821.0,32.000000
-15,7,62,1624876821.0,32.000000
-15,8,61,1624876821.0,32.000000
-16,8,62,1624876821.0,32.000000
-15,7,62,1624876821.0,32.000000
-15,8,62,1624876821.0,32.000000
-15,7,62,1624876821.0,32.000000
-16,8,62,1624876821.0,32.000000
-16,8,62,1624876821.0,32.000000
-15,8,61,1624876821.0,32.000000
-15,8,62,1624876821.0,32.000000
-16,8,61,1624876821.0,32.000000
-16,8,61,1624876821.0,32.000000
-15,8,62,1624876821.0,32.000000
-16,7,62,1624876821.0,32.000000
-16,8,62,1624876821.0,32.000000
-15,8,62,1624876821.0,32.000000
-15,8,61,1624876821.0,32.000000
-16,8,62,1624876821.0,32.000000
-15,7,62,1624876821.0,32.000000
-16,8,62,1624876821.0,32.000000
-15,8,61,1624876821.0,32.000000
-15,7,62,1624876821.0,32.000000
-16,8,62,1624876821.0,32.000000
-15,7,62,1624876821.0,32.000000
-15,7,62,1624876821.0,32.000000
-15,8,62,1624876821.0,32.000000
-16,7,62,1624876821.0,32.000000
-17,7,63,1624876821.0,32.000000
-17,7,72,1624876821.0,32.000000
-16,10,55,1624876821.0,32.000000
-15,8,54,1624876821.0,32.000000
-11,2,71,1624876821.0,32.000000
-9,5,66,1624876821.0,32.000000
-12,9,53,1624876821.0,32.000000
-15,11,52,1624876821.0,32.000000
-11,13,54,1624876821.0,32.000000
-15,12,57,1624876821.0,32.000000
-15,10,67,1624876821.0,32.000000
-12,7,67,1624876821.0,32.000000
-13,6,67,1624876821.0,32.000000
-14,6,63,1624876821.0,32.000000
-13,6,62,1624876821.0,32.000000
-13,8,61,1624876821.0,32.000000
-15,9,61,1624876821.0,32.000000
-14,9,62,1624876821.0,32.000000
-14,8,62,1624876821.0,32.000000
-13,8,63,1624876821.0,32.000000
-14,8,62,1624876821.0,32.000000
-15,8,62,1624876821.0,32.000000
-15,8,61,1624876821.0,32.000000
-15,8,62,1624876821.0,32.000000
-14,8,62,1624876821.0,32.000000
-14,8,62,1624876821.0,32.000000
-14,8,62,1624876821.0,32.000000
-14,8,62,1624876821.0,32.000000
-14,8,62,1624876821.0,32.000000
-14,8,62,1624876821.0,32.000000
-14,8,62,1624876821.0,32.000000
-15,8,62,1624876821.0,32.000000
-15,8,62,1624876821.0,32.000000
-15,8,62,1624876821.0,32.000000
-14,8,61,1624876821.0,32.000000
-14,8,62,1624876821.0,32.000000
-15,8,62,1624876821.0,32.000000
-15,8,62,1624876821.0,32.000000
-14,8,62,1624876821.0,32.000000
-15,8,62,1624876821.0,32.000000
-15,8,62,1624876821.0,32.000000
-14,8,62,1624876821.0,32.000000
-15,8,62,1624876821.0,32.000000
-15,8,61,1624876821.0,32.000000
-15,8,62,1624876821.0,32.000000
-15,8,62,1624876821.0,32.000000
-15,8,61,1624876821.0,32.000000
-15,8,62,1624876821.0,32.000000
-15,8,62,1624876821.0,32.000000
-15,8,62,1624876821.0,32.000000
-15,8,62,1624876821.0,32.000000
-15,8,62,1624876821.0,32.000000
-15,8,62,1624876821.0,32.000000
-15,8,62,1624876821.0,32.000000
-15,8,62,1624876821.0,32.000000
-15,8,62,1624876821.0,32.000000
-15,8,61,1624876821.0,32.000000
-14,8,63,1624876821.0,32.000000
-16,8,61,1624876821.0,32.000000
-16,9,63,1624876821.0,32.000000
-14,8,61,1624876821.0,32.000000
-13,6,62,1624876821.0,32.000000
-14,7,61,1624876821.0,32.000000
-17,8,65,1624876821.0,32.000000
-16,8,72,1624876821.0,32.000000
-17,11,54,1624876821.0,32.000000
-13,4,67,1624876821.0,32.000000
-19,4,60,1624876821.0,32.000000
-6,7,58,1624876821.0,32.000000
-10,10,50,1624876821.0,32.000000
-15,10,50,1624876821.0,32.000000
-18,10,64,1624876821.0,32.000000
-16,11,66,1624876821.0,32.000000
-14,10,67,1624876821.0,32.000000
-15,7,65,1624876821.0,32.000000
-15,6,64,1624876821.0,32.000000
-14,6,62,1624876821.0,32.000000
-14,7,61,1624876821.0,32.000000
-17,8,61,1624876821.0,32.000000
-15,9,62,1624876821.0,32.000000
-14,9,62,1624876821.0,32.000000
-14,8,62,1624876821.0,32.000000
-15,8,61,1624876821.0,32.000000
-14,8,62,1624876821.0,32.000000
-15,8,62,1624876821.0,32.000000
-15,8,62,1624876821.0,32.000000
-15,8,62,1624876821.0,32.000000
-15,8,61,1624876821.0,32.000000
-15,8,62,1624876821.0,32.000000
-15,8,62,1624876821.0,32.000000
-15,8,62,1624876821.0,32.000000
-15,8,61,1624876821.0,32.000000
-15,8,62,1624876821.0,32.000000
-15,8,61,1624876821.0,32.000000
-15,8,62,1624876821.0,32.000000
-15,8,62,1624876821.0,32.000000
-14,7,63,1624876821.0,32.000000
-15,8,61,1624876821.0,32.000000
-15,8,62,1624876821.0,32.000000
-15,8,62,1624876821.0,32.000000
-15,8,63,1624876821.0,32.000000
-15,8,61,1624876821.0,32.000000
-15,8,62,1624876821.0,32.000000
-15,8,62,1624876821.0,32.000000
-14,8,62,1624876821.0,32.000000
-15,8,62,1624876821.0,32.000000
-15,8,61,1624876821.0,32.000000
-15,8,61,1624876821.0,32.000000
-15,8,62,1624876821.0,32.000000
-15,8,62,1624876821.0,32.000000
-15,8,62,1624876821.0,32.000000
-15,8,62,1624876821.0,32.000000
-15,8,61,1624876821.0,32.000000
-15,8,62,1624876821.0,32.000000
-15,8,62,1624876821.0,32.000000
-15,8,62,1624876821.0,32.000000
-15,8,62,1624876821.0,32.000000
-15,8,62,1624876821.0,32.000000
-15,8,62,1624876821.0,32.000000
-15,8,62,1624876821.0,32.000000
-16,8,61,1624876821.0,32.000000
-15,8,62,1624876821.0,32.000000
-15,8,62,1624876821.0,32.000000
-16,8,63,1624876821.0,32.000000
-14,8,70,1624876821.0,32.000000
-13,9,58,1624876821.0,32.000000
-16,8,52,1624876821.0,32.000000
-12,8,61,1624876821.0,32.000000
-14,10,63,1624876821.0,32.000000
-12,9,65,1624876821.0,32.000000
-12,7,67,1624876821.0,32.000000
-16,6,62,1624876821.0,32.000000
-16,7,61,1624876821.0,32.000000
-17,8,62,1624876821.0,32.000000
-15,9,62,1624876821.0,32.000000
-15,8,62,1624876821.0,32.000000
-15,8,62,1624876821.0,32.000000
-15,8,62,1624876821.0,32.000000
-15,8,62,1624876821.0,32.000000
-16,8,61,1624876821.0,32.000000
-16,8,61,1624876821.0,32.000000
-16,8,61,1624876821.0,32.000000
-15,8,62,1624876821.0,32.000000
-15,8,61,1624876821.0,32.000000
-15,8,62,1624876821.0,32.000000
-15,8,62,1624876821.0,32.000000
-15,8,62,1624876821.0,32.000000
-15,8,61,1624876821.0,32.000000
-15,8,62,1624876821.0,32.000000
-15,8,62,1624876821.0,32.000000
-15,8,62,1624876821.0,32.000000
-16,8,62,1624876821.0,32.000000
-15,8,61,1624876821.0,32.000000
-15,8,62,1624876821.0,32.000000
-15,8,62,1624876821.0,32.000000
-15,8,61,1624876821.0,32.000000
-15,8,61,1624876821.0,32.000000
-15,8,61,1624876821.0,32.000000
-15,8,62,1624876821.0,32.000000
-16,8,62,1624876821.0,32.000000
-15,8,61,1624876821.0,32.000000
-15,8,62,1624876821.0,32.000000
-15,8,61,1624876821.0,32.000000
-16,8,62,1624876821.0,32.000000
-15,8,62,1624876821.0,32.000000
-15,8,62,1624876821.0,32.000000
-15,8,62,1624876821.0,32.000000
-16,8,61,1624876821.0,32.000000
-16,8,62,1624876821.0,32.000000
-15,8,62,1624876821.0,32.000000
-16,8,61,1624876821.0,32.000000
-15,8,62,1624876821.0,32.000000
-16,8,61,1624876821.0,32.000000
-16,8,61,1624876821.0,32.000000
-15,8,62,1624876821.0,32.000000
-16,8,62,1624876821.0,32.000000
-16,8,62,1624876821.0,32.000000
-16,8,61,1624876821.0,32.000000
-15,8,61,1624876821.0,32.000000
-15,8,62,1624876821.0,32.000000
-15,8,62,1624876821.0,32.000000
-16,8,61,1624876821.0,32.000000
-16,8,61,1624876821.0,32.000000
-14,8,61,1624876821.0,32.000000
-16,8,63,1624876821.0,32.000000
-18,8,63,1624876821.0,32.000000
-19,11,62,1624876821.0,32.000000
-12,6,62,1624876821.0,32.000000
-11,6,61,1624876821.0,32.000000
-9,5,62,1624876821.0,32.000000
-7,8,63,1624876821.0,32.000000
-10,13,56,1624876821.0,32.000000
-20,14,54,1624876821.0,32.000000
-17,12,61,1624876821.0,32.000000
-11,8,67,1624876821.0,32.000000
-13,6,67,1624876821.0,32.000000
-16,4,64,1624876821.0,32.000000
-15,6,61,1624876821.0,32.000000
-16,8,60,1624876821.0,32.000000
-16,9,60,1624876821.0,32.000000
-15,9,61,1624876821.0,32.000000
-14,8,63,1624876821.0,32.000000
-15,8,62,1624876821.0,32.000000
-15,8,61,1624876821.0,32.000000
-16,8,62,1624876821.0,32.000000
-15,8,62,1624876821.0,32.000000
-15,8,61,1624876821.0,32.000000
-15,8,62,1624876821.0,32.000000
-15,8,62,1624876821.0,32.000000
-15,8,62,1624876821.0,32.000000
-15,8,62,1624876821.0,32.000000
-15,8,62,1624876821.0,32.000000
-16,9,61,1624876821.0,32.000000
-15,8,61,1624876821.0,32.000000
-15,8,62,1624876821.0,32.000000
-15,8,62,1624876821.0,32.000000
-15,8,62,1624876821.0,32.000000
-15,8,62,1624876821.0,32.000000
-15,8,62,1624876821.0,32.000000
-15,9,62,1624876821.0,32.000000
-15,9,62,1624876821.0,32.000000
-15,9,62,1624876821.0,32.000000
-15,8,62,1624876821.0,32.000000
-15,8,61,1624876821.0,32.000000
-15,8,62,1624876821.0,32.000000
-15,8,62,1624876821.0,32.000000
-15,9,62,1624876821.0,32.000000
-15,8,61,1624876821.0,32.000000
-15,8,62,1624876821.0,32.000000
-15,8,62,1624876821.0,32.000000
-15,8,62,1624876821.0,32.000000
-15,8,62,1624876821.0,32.000000
-15,9,62,1624876821.0,32.000000
-15,9,61,1624876821.0,32.000000
-15,8,61,1624876821.0,32.000000
-16,8,61,1624876821.0,32.000000
-15,8,61,1624876821.0,32.000000
-15,8,62,1624876821.0,32.000000
-15,8,62,1624876821.0,32.000000
-15,8,62,1624876821.0,32.000000
-15,8,62,1624876821.0,32.000000
-15,8,62,1624876821.0,32.000000
-15,8,61,1624876821.0,32.000000
-15,8,62,1624876821.0,32.000000
-15,8,62,1624876821.0,32.000000
-16,9,61,1624876821.0,32.000000
-15,8,62,1624876821.0,32.000000
-14,8,66,1624876821.0,32.000000
-21,6,63,1624876821.0,32.000000
-20,10,59,1624876821.0,32.000000
-11,8,62,1624876821.0,32.000000
-8,8,61,1624876821.0,32.000000
-8,9,61,1624876821.0,32.000000
-9,10,58,1624876821.0,32.000000
-16,11,57,1624876821.0,32.000000
-20,9,63,1624876821.0,32.000000
-17,9,65,1624876821.0,32.000000
-13,7,66,1624876821.0,32.000000
-14,5,65,1624876821.0,32.000000
-14,6,61,1624876821.0,32.000000
-16,8,60,1624876821.0,32.000000
-16,9,61,1624876821.0,32.000000
-16,9,62,1624876821.0,32.000000
-15,8,62,1624876821.0,32.000000
-14,8,62,1624876821.0,32.000000
-15,8,62,1624876821.0,32.000000
-15,8,61,1624876821.0,32.000000
-15,8,61,1624876821.0,32.000000
-15,8,62,1624876821.0,32.000000
-15,8,62,1624876821.0,32.000000
-15,8,62,1624876821.0,32.000000
-15,8,61,1624876821.0,32.000000
-15,8,62,1624876821.0,32.000000
-15,8,62,1624876821.0,32.000000
-15,8,61,1624876821.0,32.000000
-15,8,62,1624876821.0,32.000000
-15,8,62,1624876821.0,32.000000
-15,8,62,1624876821.0,32.000000
-15,8,62,1624876821.0,32.000000
-14,8,62,1624876821.0,32.000000
-15,8,62,1624876821.0,32.000000
-15,8,62,1624876821.0,32.000000
-15,8,62,1624876821.0,32.000000
-15,8,62,1624876821.0,32.000000
-15,8,62,1624876821.0,32.000000
-15,8,62,1624876821.0,32.000000
-15,8,62,1624876821.0,32.000000
-15,8,62,1624876821.0,32.000000
-15,8,62,1624876821.0,32.000000
-14,8,62,1624876821.0,32.000000
-15,8,62,1624876821.0,32.000000
-16,8,62,1624876821.0,32.000000
-15,8,61,1624876821.0,32.000000
-15,8,62,1624876821.0,32.000000
-15,8,62,1624876821.0,32.000000
-15,8,61,1624876821.0,32.000000
-15,9,61,1624876821.0,32.000000
-15,8,62,1624876821.0,32.000000
-15,8,62,1624876821.0,32.000000
-15,8,62,1624876821.0,32.000000
-15,8,61,1624876821.0,32.000000
-15,8,62,1624876821.0,32.000000
-15,8,62,1624876821.0,32.000000
-15,8,62,1624876821.0,32.000000
-15,8,62,1624876821.0,32.000000
-15,8,62,1624876821.0,32.000000
-15,8,62,1624876821.0,32.000000
-14,9,61,1624876821.0,32.000000
-16,8,62,1624876821.0,32.000000
-15,9,62,1624876821.0,32.000000
-24,6,64,1624876821.0,32.000000
-24,6,65,1624876821.0,32.000000
4,15,66,1624876821.0,32.000000
-14,5,50,1624876821.0,32.000000
-21,0,49,1624876821.0,32.000000
-13,3,63,1624876821.0,32.000000
-10,8,67,1624876821.0,32.000000
-14,14,65,1624876821.0,32.000000
-11,11,65,1624876821.0,32.000000
-10,7,64,1624876821.0,32.000000
-8,2,63,1624876821.0,32.000000
-11,2,64,1624876821.0,32.000000
-12,7,63,1624876821.0,32.000000
-14,9,63,1624876821.0,32.000000
-13,8,62,1624876821.0,32.000000
-11,7,62,1624876821.0,32.000000
-11,7,62,1624876821.0,32.000000
-12,7,62,1624876821.0,32.000000
-13,7,62,1624876821.0,32.000000
-14,7,62,1624876821.0,32.000000
-12,8,62,1624876821.0,32.000000
-12,7,62,1624876821.0,32.000000
-13,7,62,1624876821.0,32.000000
-13,8,62,1624876821.0,32.000000
-13,8,62,1624876821.0,32.000000
-13,7,62,1624876821.0,32.000000
-13,8,62,1624876821.0,32.000000
-13,8,62,1624876821.0,32.000000
