ACC_X,ACC_Y,ACC_Z,start_time_unix,sampling_rate
8,-25,61,1624704223.0,32.000000
2,-27,62,1624704223.0,32.000000
3,-24,64,1624704223.0,32.000000
2,-23,64,1624704223.0,32.000000
2,-21,69,1624704223.0,32.000000
1,-20,69,1624704223.0,32.000000
6,-19,69,1624704223.0,32.000000
4,-20,68,1624704223.0,32.000000
-8,-19,68,1624704223.0,32.000000
-11,-18,66,1624704223.0,32.000000
-18,-15,62,1624704223.0,32.000000
-20,-9,59,1624704223.0,32.000000
-19,-7,59,1624704223.0,32.000000
-17,-6,58,1624704223.0,32.000000
-15,-5,58,1624704223.0,32.000000
-6,-4,65,1624704223.0,32.000000
-14,-6,61,1624704223.0,32.000000
-19,-7,62,1624704223.0,32.000000
-11,-6,69,1624704223.0,32.000000
-4,-7,70,1624704223.0,32.000000
-6,-8,66,1624704223.0,32.000000
-2,-5,75,1624704223.0,32.000000
-10,-5,72,1624704223.0,32.000000
-22,-10,61,1624704223.0,32.000000
-24,-12,60,1624704223.0,32.000000
-24,-11,58,1624704223.0,32.000000
-37,-10,50,1624704223.0,32.000000
-41,-12,48,1624704223.0,32.000000
-45,-19,46,1624704223.0,32.000000
-45,-17,43,1624704223.0,32.000000
-43,-21,33,1624704223.0,32.000000
-39,-18,33,1624704223.0,32.000000
-26,-16,35,1624704223.0,32.000000
-34,-13,35,1624704223.0,32.000000
-35,-10,36,1624704223.0,32.000000
-2,-9,42,1624704223.0,32.000000
-2,-4,44,1624704223.0,32.000000
-2,7,48,1624704223.0,32.000000
-10,13,60,1624704223.0,32.000000
-10,22,69,1624704223.0,32.000000
-21,34,77,1624704223.0,32.000000
-42,46,83,1624704223.0,32.000000
-40,51,63,1624704223.0,32.000000
-53,37,44,1624704223.0,32.000000
-59,39,43,1624704223.0,32.000000
-33,30,42,1624704223.0,32.000000
-27,31,44,1624704223.0,32.000000
-34,34,41,1624704223.0,32.000000
-19,37,55,1624704223.0,32.000000
-29,38,56,1624704223.0,32.000000
-33,48,59,1624704223.0,32.000000
-34,50,52,1624704223.0,32.000000
-41,45,35,1624704223.0,32.000000
-41,41,25,1624704223.0,32.000000
-40,40,27,1624704223.0,32.000000
-44,39,41,1624704223.0,32.000000
-47,40,42,1624704223.0,32.000000
-44,42,36,1624704223.0,32.000000
-37,42,36,1624704223.0,32.000000
-32,41,37,1624704223.0,32.000000
-30,42,37,1624704223.0,32.000000
-33,42,36,1624704223.0,32.000000
-34,42,36,1624704223.0,32.000000
-34,42,34,1624704223.0,32.000000
-34,43,34,1624704223.0,32.000000
-35,43,37,1624704223.0,32.000000
-36,41,37,1624704223.0,32.000000
-37,38,39,1624704223.0,32.000000
-35,35,40,1624704223.0,32.000000
-33,35,41,1624704223.0,32.000000
-33,37,40,1624704223.0,32.000000
-32,39,41,1624704223.0,32.000000
-35,42,40,1624704223.0,32.000000
-36,43,38,1624704223.0,32.000000
-37,43,34,1624704223.0,32.000000
-37,44,31,1624704223.0,32.000000
-37,44,31,1624704223.0,32.000000
-37,44,33,1624704223.0,32.000000
-38,44,33,1624704223.0,32.000000
-38,44,33,1624704223.0,32.000000
-39,44,32,1624704223.0,32.000000
-39,43,32,1624704223.0,32.000000
-38,43,33,1624704223.0,32.000000
-37,43,33,1624704223.0,32.000000
-37,43,34,1624704223.0,32.000000
-36,42,35,1624704223.0,32.000000
-36,42,35,1624704223.0,32.000000
-36,42,36,1624704223.0,32.000000
-36,42,36,1624704223.0,32.000000
-36,41,36,1624704223.0,32.000000
-36,41,36,1624704223.0,32.000000
-37,41,35,1624704223.0,32.000000
-37,41,35,1624704223.0,32.000000
-37,42,35,1624704223.0,32.000000
-37,42,34,1624704223.0,32.000000
-38,42,33,1624704223.0,32.000000
-38,42,33,1624704223.0,32.000000
-38,42,34,1624704223.0,32.000000
-38,42,34,1624704223.0,32.000000
-38,42,34,1624704223.0,32.000000
-37,42,34,1624704223.0,32.000000
-38,42,34,1624704223.0,32.000000
-37,42,34,1624704223.0,32.000000
-37,43,34,1624704223.0,32.000000
-37,43,34,1624704223.0,32.000000
-36,42,35,1624704223.0,32.000000
-36,42,35,1624704223.0,32.000000
-37,42,35,1624704223.0,32.000000
-37,42,35,1624704223.0,32.000000
-37,42,35,1624704223.0,32.000000
-37,41,34,1624704223.0,32.000000
-38,41,34,1624704223.0,32.000000
-38,41,35,1624704223.0,32.000000
-38,42,34,1624704223.0,32.000000
-38,41,35,1624704223.0,32.000000
-38,42,34,1624704223.0,32.000000
-38,41,34,1624704223.0,32.000000
-38,41,34,1624704223.0,32.000000
-38,41,35,1624704223.0,32.000000
-38,41,34,1624704223.0,32.000000
-38,42,34,1624704223.0,32.000000
-38,41,34,1624704223.0,32.000000
-38,42,34,1624704223.0,32.000000
-38,41,34,1624704223.0,32.000000
-38,42,34,1624704223.0,32.000000
-38,42,34,1624704223.0,32.000000
-38,42,34,1624704223.0,32.000000
-38,42,34,1624704223.0,32.000000
-38,42,34,1624704223.0,32.000000
-38,41,34,1624704223.0,32.000000
-38,42,34,1624704223.0,32.000000
-38,42,34,1624704223.0,32.000000
-38,42,34,1624704223.0,32.000000
-38,42,34,1624704223.0,32.000000
-38,42,34,1624704223.0,32.000000
-38,42,34,1624704223.0,32.000000
-38,42,34,1624704223.0,32.000000
-38,42,34,1624704223.0,32.000000
-38,42,34,1624704223.0,32.000000
-38,41,34,1624704223.0,32.000000
-38,41,34,1624704223.0,32.000000
-38,42,34,1624704223.0,32.000000
-38,42,34,1624704223.0,32.000000
-38,42,34,1624704223.0,32.000000
-38,41,34,1624704223.0,32.000000
-38,42,34,1624704223.0,32.000000
-38,42,34,1624704223.0,32.000000
-38,42,34,1624704223.0,32.000000
-38,42,34,1624704223.0,32.000000
-38,41,34,1624704223.0,32.000000
-38,41,34,1624704223.0,32.000000
-38,42,34,1624704223.0,32.000000
-38,42,34,1624704223.0,32.000000
-38,42,34,1624704223.0,32.000000
-38,42,34,1624704223.0,32.000000
-38,42,34,1624704223.0,32.000000
-38,42,34,1624704223.0,32.000000
-38,42,34,1624704223.0,32.000000
-38,42,34,1624704223.0,32.000000
-38,42,34,1624704223.0,32.000000
-38,42,34,1624704223.0,32.000000
-38,42,34,1624704223.0,32.000000
-38,42,34,1624704223.0,32.000000
-38,42,34,1624704223.0,32.000000
-38,42,34,1624704223.0,32.000000
-38,42,34,1624704223.0,32.000000
-38,42,34,1624704223.0,32.000000
-38,42,34,1624704223.0,32.000000
-38,42,34,1624704223.0,32.000000
-38,42,34,1624704223.0,32.000000
-38,42,34,1624704223.0,32.000000
-38,42,34,1624704223.0,32.000000
-38,42,34,1624704223.0,32.000000
-38,42,34,1624704223.0,32.000000
-38,42,34,1624704223.0,32.000000
-38,42,34,1624704223.0,32.000000
-38,42,34,1624704223.0,32.000000
-38,42,34,1624704223.0,32.000000
-38,42,34,1624704223.0,32.000000
-38,42,34,1624704223.0,32.000000
-38,42,34,1624704223.0,32.000000
-38,42,34,1624704223.0,32.000000
-38,42,34,1624704223.0,32.000000
-38,42,34,1624704223.0,32.000000
-37,42,34,1624704223.0,32.000000
-37,42,34,1624704223.0,32.000000
-38,42,33,1624704223.0,32.000000
-38,42,33,1624704223.0,32.000000
-38,42,33,1624704223.0,32.000000
-38,42,35,1624704223.0,32.000000
-37,43,35,1624704223.0,32.000000
-37,43,34,1624704223.0,32.000000
-37,42,34,1624704223.0,32.000000
-36,43,33,1624704223.0,32.000000
-36,44,33,1624704223.0,32.000000
-36,44,32,1624704223.0,32.000000
-37,44,33,1624704223.0,32.000000
-37,44,34,1624704223.0,32.000000
-36,43,35,1624704223.0,32.000000
-38,44,34,1624704223.0,32.000000
-36,43,35,1624704223.0,32.000000
-36,43,34,1624704223.0,32.000000
-36,42,33,1624704223.0,32.000000
-37,42,33,1624704223.0,32.000000
-38,42,33,1624704223.0,32.000000
-39,42,34,1624704223.0,32.000000
-39,42,34,1624704223.0,32.000000
-38,42,34,1624704223.0,32.000000
-38,42,33,1624704223.0,32.000000
-38,42,33,1624704223.0,32.000000
-38,42,33,1624704223.0,32.000000
-38,43,33,1624704223.0,32.000000
-38,43,33,1624704223.0,32.000000
-38,43,33,1624704223.0,32.000000
-38,42,33,1624704223.0,32.000000
-37,42,33,1624704223.0,32.000000
-37,42,34,1624704223.0,32.000000
-37,43,34,1624704223.0,32.000000
-37,43,34,1624704223.0,32.000000
-37,43,33,1624704223.0,32.000000
-39,43,34,1624704223.0,32.000000
-40,44,34,1624704223.0,32.000000
-40,43,34,1624704223.0,32.000000
-37,42,35,1624704223.0,32.000000
-41,42,34,1624704223.0,32.000000
-33,42,37,1624704223.0,32.000000
-31,41,34,1624704223.0,32.000000
-34,40,38,1624704223.0,32.000000
-31,35,47,1624704223.0,32.000000
-29,32,46,1624704223.0,32.000000
-35,30,46,1624704223.0,32.000000
-32,33,48,1624704223.0,32.000000
-33,31,47,1624704223.0,32.000000
-34,36,46,1624704223.0,32.000000
-32,35,44,1624704223.0,32.000000
-33,36,40,1624704223.0,32.000000
-31,35,38,1624704223.0,32.000000
-30,37,37,1624704223.0,32.000000
-29,40,37,1624704223.0,32.000000
-29,41,39,1624704223.0,32.000000
-25,42,43,1624704223.0,32.000000
-24,44,46,1624704223.0,32.000000
-27,47,42,1624704223.0,32.000000
-27,49,39,1624704223.0,32.000000
-23,51,41,1624704223.0,32.000000
-18,51,38,1624704223.0,32.000000
-19,54,41,1624704223.0,32.000000
-10,54,44,1624704223.0,32.000000
-2,55,51,1624704223.0,32.000000
0,49,51,1624704223.0,32.000000
-19,44,45,1624704223.0,32.000000
-23,42,44,1624704223.0,32.000000
-22,39,46,1624704223.0,32.000000
-25,37,48,1624704223.0,32.000000
-24,37,48,1624704223.0,32.000000
-20,38,48,1624704223.0,32.000000
-18,40,47,1624704223.0,32.000000
-17,41,47,1624704223.0,32.000000
-18,43,47,1624704223.0,32.000000
-19,43,46,1624704223.0,32.000000
-22,43,46,1624704223.0,32.000000
-23,42,46,1624704223.0,32.000000
-24,40,45,1624704223.0,32.000000
-25,39,44,1624704223.0,32.000000
-25,39,45,1624704223.0,32.000000
-25,40,45,1624704223.0,32.000000
-24,41,46,1624704223.0,32.000000
-22,42,45,1624704223.0,32.000000
-21,42,45,1624704223.0,32.000000
-22,43,44,1624704223.0,32.000000
-24,43,44,1624704223.0,32.000000
-24,43,44,1624704223.0,32.000000
-24,42,44,1624704223.0,32.000000
-23,43,44,1624704223.0,32.000000
-23,43,43,1624704223.0,32.000000
-24,43,43,1624704223.0,32.000000
-24,43,43,1624704223.0,32.000000
-24,43,43,1624704223.0,32.000000
-24,43,43,1624704223.0,32.000000
-25,43,43,1624704223.0,32.000000
-26,43,43,1624704223.0,32.000000
-26,43,43,1624704223.0,32.000000
-25,43,43,1624704223.0,32.000000
-25,43,42,1624704223.0,32.000000
-24,43,43,1624704223.0,32.000000
-24,43,43,1624704223.0,32.000000
-24,43,43,1624704223.0,32.000000
-23,43,44,1624704223.0,32.000000
-23,43,44,1624704223.0,32.000000
-23,42,44,1624704223.0,32.000000
-24,42,44,1624704223.0,32.000000
-24,42,44,1624704223.0,32.000000
-24,42,44,1624704223.0,32.000000
-24,41,44,1624704223.0,32.000000
-23,42,44,1624704223.0,32.000000
-24,42,44,1624704223.0,32.000000
-24,42,44,1624704223.0,32.000000
-24,42,44,1624704223.0,32.000000
-24,42,44,1624704223.0,32.000000
-24,41,44,1624704223.0,32.000000
-25,41,44,1624704223.0,32.000000
-25,41,44,1624704223.0,32.000000
-26,41,44,1624704223.0,32.000000
-26,41,44,1624704223.0,32.000000
-26,41,44,1624704223.0,32.000000
-25,41,44,1624704223.0,32.000000
-25,41,44,1624704223.0,32.000000
-25,42,44,1624704223.0,32.000000
-26,42,44,1624704223.0,32.000000
-26,42,43,1624704223.0,32.000000
-25,41,43,1624704223.0,32.000000
-24,41,44,1624704223.0,32.000000
-24,41,44,1624704223.0,32.000000
-24,41,44,1624704223.0,32.000000
-24,41,44,1624704223.0,32.000000
-24,41,44,1624704223.0,32.000000
-26,41,44,1624704223.0,32.000000
-28,41,44,1624704223.0,32.000000
-27,40,44,1624704223.0,32.000000
-27,40,44,1624704223.0,32.000000
-27,40,44,1624704223.0,32.000000
-27,40,44,1624704223.0,32.000000
-25,40,44,1624704223.0,32.000000
-25,40,45,1624704223.0,32.000000
-25,40,44,1624704223.0,32.000000
-26,41,44,1624704223.0,32.000000
-26,40,44,1624704223.0,32.000000
-26,40,44,1624704223.0,32.000000
-26,40,44,1624704223.0,32.000000
-26,41,44,1624704223.0,32.000000
-26,41,44,1624704223.0,32.000000
-27,40,44,1624704223.0,32.000000
-26,40,44,1624704223.0,32.000000
-25,40,44,1624704223.0,32.000000
-27,41,44,1624704223.0,32.000000
-28,42,45,1624704223.0,32.000000
-30,42,45,1624704223.0,32.000000
-39,47,51,1624704223.0,32.000000
-41,55,53,1624704223.0,32.000000
-14,60,54,1624704223.0,32.000000
-8,62,63,1624704223.0,32.000000
-16,48,57,1624704223.0,32.000000
-16,40,56,1624704223.0,32.000000
-20,34,52,1624704223.0,32.000000
-23,29,45,1624704223.0,32.000000
-25,27,41,1624704223.0,32.000000
-33,28,40,1624704223.0,32.000000
-31,32,44,1624704223.0,32.000000
-29,35,46,1624704223.0,32.000000
-30,44,52,1624704223.0,32.000000
-31,46,53,1624704223.0,32.000000
-31,51,56,1624704223.0,32.000000
-13,47,57,1624704223.0,32.000000
-9,45,59,1624704223.0,32.000000
3,39,57,1624704223.0,32.000000
6,33,55,1624704223.0,32.000000
-12,23,44,1624704223.0,32.000000
-18,24,37,1624704223.0,32.000000
-46,11,25,1624704223.0,32.000000
-5,10,50,1624704223.0,32.000000
-7,10,49,1624704223.0,32.000000
-33,16,22,1624704223.0,32.000000
-47,19,26,1624704223.0,32.000000
-45,32,45,1624704223.0,32.000000
-39,28,12,1624704223.0,32.000000
-103,66,40,1624704223.0,32.000000
-23,66,57,1624704223.0,32.000000
4,60,39,1624704223.0,32.000000
-3,83,-10,1624704223.0,32.000000
-5,62,-5,1624704223.0,32.000000
-8,62,6,1624704223.0,32.000000
-16,60,7,1624704223.0,32.000000
-22,65,1,1624704223.0,32.000000
0,63,-11,1624704223.0,32.000000
-16,74,0,1624704223.0,32.000000
-12,60,-1,1624704223.0,32.000000
-12,72,1,1624704223.0,32.000000
-3,80,10,1624704223.0,32.000000
-14,62,16,1624704223.0,32.000000
-10,56,0,1624704223.0,32.000000
-5,66,-2,1624704223.0,32.000000
-3,66,-1,1624704223.0,32.000000
-5,66,-2,1624704223.0,32.000000
-5,62,-2,1624704223.0,32.000000
-7,68,3,1624704223.0,32.000000
-5,61,0,1624704223.0,32.000000
-13,63,-11,1624704223.0,32.000000
-6,57,-6,1624704223.0,32.000000
-28,73,26,1624704223.0,32.000000
-27,56,21,1624704223.0,32.000000
-22,60,7,1624704223.0,32.000000
-29,68,2,1624704223.0,32.000000
-9,64,6,1624704223.0,32.000000
-20,61,7,1624704223.0,32.000000
-29,57,4,1624704223.0,32.000000
-31,57,20,1624704223.0,32.000000
-29,52,18,1624704223.0,32.000000
-28,53,12,1624704223.0,32.000000
-32,55,6,1624704223.0,32.000000
-29,58,0,1624704223.0,32.000000
-33,58,5,1624704223.0,32.000000
-29,55,12,1624704223.0,32.000000
-30,56,12,1624704223.0,32.000000
-34,54,13,1624704223.0,32.000000
-29,53,16,1624704223.0,32.000000
-26,58,16,1624704223.0,32.000000
-25,56,15,1624704223.0,32.000000
-22,57,17,1624704223.0,32.000000
-24,56,8,1624704223.0,32.000000
-29,58,0,1624704223.0,32.000000
-21,62,5,1624704223.0,32.000000
-18,66,4,1624704223.0,32.000000
-16,64,1,1624704223.0,32.000000
-23,62,-9,1624704223.0,32.000000
-26,63,-2,1624704223.0,32.000000
-11,70,20,1624704223.0,32.000000
-21,66,7,1624704223.0,32.000000
-13,59,7,1624704223.0,32.000000
-27,59,2,1624704223.0,32.000000
-23,57,4,1624704223.0,32.000000
-26,61,15,1624704223.0,32.000000
-24,58,15,1624704223.0,32.000000
-22,57,14,1624704223.0,32.000000
-25,59,15,1624704223.0,32.000000
-26,58,18,1624704223.0,32.000000
-30,55,21,1624704223.0,32.000000
-24,49,29,1624704223.0,32.000000
-27,52,29,1624704223.0,32.000000
-43,56,29,1624704223.0,32.000000
-35,54,22,1624704223.0,32.000000
-42,64,26,1624704223.0,32.000000
-20,73,44,1624704223.0,32.000000
-12,58,73,1624704223.0,32.000000
-6,53,51,1624704223.0,32.000000
-13,50,46,1624704223.0,32.000000
-13,45,45,1624704223.0,32.000000
2,38,50,1624704223.0,32.000000
-12,26,18,1624704223.0,32.000000
-55,29,21,1624704223.0,32.000000
-2,4,66,1624704223.0,32.000000
-8,20,25,1624704223.0,32.000000
-7,10,24,1624704223.0,32.000000
14,19,41,1624704223.0,32.000000
10,36,48,1624704223.0,32.000000
18,36,40,1624704223.0,32.000000
6,41,54,1624704223.0,32.000000
19,48,68,1624704223.0,32.000000
15,46,45,1624704223.0,32.000000
-13,54,43,1624704223.0,32.000000
-51,60,40,1624704223.0,32.000000
-1,65,110,1624704223.0,32.000000
16,44,86,1624704223.0,32.000000
11,46,32,1624704223.0,32.000000
-6,48,39,1624704223.0,32.000000
-7,49,45,1624704223.0,32.000000
-14,52,43,1624704223.0,32.000000
-14,53,40,1624704223.0,32.000000
-2,52,43,1624704223.0,32.000000
0,48,52,1624704223.0,32.000000
5,47,54,1624704223.0,32.000000
22,49,70,1624704223.0,32.000000
23,50,70,1624704223.0,32.000000
17,41,63,1624704223.0,32.000000
6,34,59,1624704223.0,32.000000
-3,30,57,1624704223.0,32.000000
-23,22,54,1624704223.0,32.000000
-29,14,52,1624704223.0,32.000000
-30,11,50,1624704223.0,32.000000
-30,-2,46,1624704223.0,32.000000
-25,-2,44,1624704223.0,32.000000
-15,-3,45,1624704223.0,32.000000
-19,-9,45,1624704223.0,32.000000
-51,-9,45,1624704223.0,32.000000
-45,-7,47,1624704223.0,32.000000
-31,-12,54,1624704223.0,32.000000
-27,-7,55,1624704223.0,32.000000
-11,-5,54,1624704223.0,32.000000
-7,-6,57,1624704223.0,32.000000
-16,-1,57,1624704223.0,32.000000
-10,4,57,1624704223.0,32.000000
-16,15,56,1624704223.0,32.000000
-7,19,55,1624704223.0,32.000000
15,25,65,1624704223.0,32.000000
8,35,68,1624704223.0,32.000000
19,37,60,1624704223.0,32.000000
9,35,60,1624704223.0,32.000000
-2,41,63,1624704223.0,32.000000
9,39,61,1624704223.0,32.000000
14,35,61,1624704223.0,32.000000
16,31,60,1624704223.0,32.000000
8,28,58,1624704223.0,32.000000
4,27,63,1624704223.0,32.000000
-13,24,73,1624704223.0,32.000000
-5,31,80,1624704223.0,32.000000
17,24,71,1624704223.0,32.000000
-3,11,48,1624704223.0,32.000000
-16,11,47,1624704223.0,32.000000
-19,13,55,1624704223.0,32.000000
-11,18,61,1624704223.0,32.000000
3,21,63,1624704223.0,32.000000
3,22,63,1624704223.0,32.000000
2,22,62,1624704223.0,32.000000
1,21,60,1624704223.0,32.000000
1,21,59,1624704223.0,32.000000
1,20,61,1624704223.0,32.000000
0,21,63,1624704223.0,32.000000
-2,20,62,1624704223.0,32.000000
-4,20,60,1624704223.0,32.000000
-4,21,61,1624704223.0,32.000000
-5,22,61,1624704223.0,32.000000
-4,22,60,1624704223.0,32.000000
-4,24,60,1624704223.0,32.000000
-7,37,70,1624704223.0,32.000000
-4,43,86,1624704223.0,32.000000
2,60,75,1624704223.0,32.000000
12,63,66,1624704223.0,32.000000
-10,53,56,1624704223.0,32.000000
-15,32,50,1624704223.0,32.000000
-9,13,48,1624704223.0,32.000000
-33,56,42,1624704223.0,32.000000
-47,35,35,1624704223.0,32.000000
-44,-23,35,1624704223.0,32.000000
-51,-4,35,1624704223.0,32.000000
-41,-12,39,1624704223.0,32.000000
-47,-9,48,1624704223.0,32.000000
-61,-8,44,1624704223.0,32.000000
-35,-11,50,1624704223.0,32.000000
-7,-1,58,1624704223.0,32.000000
-7,-3,54,1624704223.0,32.000000
6,5,52,1624704223.0,32.000000
10,3,53,1624704223.0,32.000000
0,8,57,1624704223.0,32.000000
-9,23,65,1624704223.0,32.000000
-3,25,70,1624704223.0,32.000000
24,33,88,1624704223.0,32.000000
9,37,80,1624704223.0,32.000000
-22,32,61,1624704223.0,32.000000
5,27,62,1624704223.0,32.000000
8,26,57,1624704223.0,32.000000
-9,31,49,1624704223.0,32.000000
3,23,52,1624704223.0,32.000000
7,30,51,1624704223.0,32.000000
10,29,54,1624704223.0,32.000000
-21,34,40,1624704223.0,32.000000
-6,41,56,1624704223.0,32.000000
-3,47,59,1624704223.0,32.000000
5,45,57,1624704223.0,32.000000
6,38,54,1624704223.0,32.000000
3,38,54,1624704223.0,32.000000
-3,45,39,1624704223.0,32.000000
-7,44,37,1624704223.0,32.000000
-40,42,29,1624704223.0,32.000000
-46,38,27,1624704223.0,32.000000
-44,45,16,1624704223.0,32.000000
-91,22,-49,1624704223.0,32.000000
-106,45,-28,1624704223.0,32.000000
-61,59,15,1624704223.0,32.000000
-49,46,9,1624704223.0,32.000000
-32,57,15,1624704223.0,32.000000
-10,58,9,1624704223.0,32.000000
-20,60,3,1624704223.0,32.000000
-38,57,6,1624704223.0,32.000000
-28,58,8,1624704223.0,32.000000
-26,58,14,1624704223.0,32.000000
-26,62,11,1624704223.0,32.000000
-26,59,6,1624704223.0,32.000000
-22,60,9,1624704223.0,32.000000
-21,58,11,1624704223.0,32.000000
-23,59,9,1624704223.0,32.000000
-27,60,8,1624704223.0,32.000000
-24,59,9,1624704223.0,32.000000
-25,59,9,1624704223.0,32.000000
-24,59,9,1624704223.0,32.000000
-25,59,9,1624704223.0,32.000000
-21,59,8,1624704223.0,32.000000
-23,59,7,1624704223.0,32.000000
-28,62,0,1624704223.0,32.000000
-29,63,3,1624704223.0,32.000000
-22,61,6,1624704223.0,32.000000
-23,58,7,1624704223.0,32.000000
-21,59,14,1624704223.0,32.000000
-19,60,16,1624704223.0,32.000000
-17,61,16,1624704223.0,32.000000
-16,62,15,1624704223.0,32.000000
-14,62,15,1624704223.0,32.000000
-12,61,11,1624704223.0,32.000000
-15,61,10,1624704223.0,32.000000
-25,61,9,1624704223.0,32.000000
-21,58,11,1624704223.0,32.000000
-9,61,12,1624704223.0,32.000000
-12,62,4,1624704223.0,32.000000
-17,65,10,1624704223.0,32.000000
-14,63,10,1624704223.0,32.000000
-16,62,6,1624704223.0,32.000000
-12,62,7,1624704223.0,32.000000
-20,60,8,1624704223.0,32.000000
-25,61,8,1624704223.0,32.000000
-26,62,8,1624704223.0,32.000000
-30,54,2,1624704223.0,32.000000
-37,60,6,1624704223.0,32.000000
-35,59,10,1624704223.0,32.000000
-35,71,4,1624704223.0,32.000000
-52,45,-14,1624704223.0,32.000000
-28,52,42,1624704223.0,32.000000
-23,48,49,1624704223.0,32.000000
-26,38,38,1624704223.0,32.000000
-30,31,34,1624704223.0,32.000000
-24,32,43,1624704223.0,32.000000
-6,29,48,1624704223.0,32.000000
-2,36,48,1624704223.0,32.000000
-22,53,55,1624704223.0,32.000000
-60,66,43,1624704223.0,32.000000
-37,62,34,1624704223.0,32.000000
-18,78,68,1624704223.0,32.000000
-2,54,46,1624704223.0,32.000000
-16,19,20,1624704223.0,32.000000
-6,25,5,1624704223.0,32.000000
-4,54,-4,1624704223.0,32.000000
-38,65,39,1624704223.0,32.000000
-25,75,48,1624704223.0,32.000000
5,49,-65,1624704223.0,32.000000
-15,80,30,1624704223.0,32.000000
-19,83,62,1624704223.0,32.000000
-18,55,9,1624704223.0,32.000000
-13,65,8,1624704223.0,32.000000
-9,69,31,1624704223.0,32.000000
-17,55,-19,1624704223.0,32.000000
3,56,0,1624704223.0,32.000000
-20,42,27,1624704223.0,32.000000
-27,53,23,1624704223.0,32.000000
-30,67,11,1624704223.0,32.000000
-21,58,17,1624704223.0,32.000000
-24,60,21,1624704223.0,32.000000
-24,45,28,1624704223.0,32.000000
-26,52,43,1624704223.0,32.000000
-24,48,42,1624704223.0,32.000000
-24,48,35,1624704223.0,32.000000
-25,43,32,1624704223.0,32.000000
-25,44,37,1624704223.0,32.000000
-27,45,36,1624704223.0,32.000000
-32,45,36,1624704223.0,32.000000
-29,47,39,1624704223.0,32.000000
-24,46,42,1624704223.0,32.000000
-28,45,42,1624704223.0,32.000000
-27,44,43,1624704223.0,32.000000
-27,43,43,1624704223.0,32.000000
-26,43,42,1624704223.0,32.000000
-28,43,40,1624704223.0,32.000000
-26,45,39,1624704223.0,32.000000
-25,46,37,1624704223.0,32.000000
-26,47,35,1624704223.0,32.000000
-26,47,36,1624704223.0,32.000000
-25,48,39,1624704223.0,32.000000
-27,46,38,1624704223.0,32.000000
-26,46,38,1624704223.0,32.000000
-26,45,41,1624704223.0,32.000000
-25,45,41,1624704223.0,32.000000
-25,45,39,1624704223.0,32.000000
-25,46,39,1624704223.0,32.000000
-26,46,38,1624704223.0,32.000000
-24,47,37,1624704223.0,32.000000
-24,47,38,1624704223.0,32.000000
-25,48,36,1624704223.0,32.000000
-25,48,37,1624704223.0,32.000000
-25,47,37,1624704223.0,32.000000
-24,46,38,1624704223.0,32.000000
-25,47,38,1624704223.0,32.000000
-24,47,38,1624704223.0,32.000000
-24,48,37,1624704223.0,32.000000
-24,48,37,1624704223.0,32.000000
-25,48,38,1624704223.0,32.000000
-24,47,38,1624704223.0,32.000000
-24,47,38,1624704223.0,32.000000
-24,47,37,1624704223.0,32.000000
-24,48,38,1624704223.0,32.000000
-24,48,38,1624704223.0,32.000000
-24,47,38,1624704223.0,32.000000
-24,47,38,1624704223.0,32.000000
-24,47,37,1624704223.0,32.000000
-23,48,38,1624704223.0,32.000000
-24,47,38,1624704223.0,32.000000
-24,47,38,1624704223.0,32.000000
-24,48,37,1624704223.0,32.000000
-24,48,37,1624704223.0,32.000000
-24,48,37,1624704223.0,32.000000
-24,48,38,1624704223.0,32.000000
-24,48,38,1624704223.0,32.000000
-23,48,37,1624704223.0,32.000000
-23,49,37,1624704223.0,32.000000
-24,48,38,1624704223.0,32.000000
-23,48,37,1624704223.0,32.000000
-23,48,37,1624704223.0,32.000000
-23,48,38,1624704223.0,32.000000
-24,49,38,1624704223.0,32.000000
-24,48,40,1624704223.0,32.000000
-24,50,41,1624704223.0,32.000000
-23,48,38,1624704223.0,32.000000
-18,49,34,1624704223.0,32.000000
-20,50,37,1624704223.0,32.000000
-22,51,40,1624704223.0,32.000000
-26,50,43,1624704223.0,32.000000
-31,51,45,1624704223.0,32.000000
-24,50,47,1624704223.0,32.000000
-38,53,50,1624704223.0,32.000000
-20,40,53,1624704223.0,32.000000
-6,39,53,1624704223.0,32.000000
-17,44,60,1624704223.0,32.000000
-5,33,57,1624704223.0,32.000000
-1,30,54,1624704223.0,32.000000
9,23,45,1624704223.0,32.000000
7,21,40,1624704223.0,32.000000
-1,21,43,1624704223.0,32.000000
14,27,52,1624704223.0,32.000000
21,26,51,1624704223.0,32.000000
17,34,51,1624704223.0,32.000000
15,39,48,1624704223.0,32.000000
25,30,37,1624704223.0,32.000000
29,38,49,1624704223.0,32.000000
22,40,41,1624704223.0,32.000000
-7,51,21,1624704223.0,32.000000
-22,53,14,1624704223.0,32.000000
-57,56,-8,1624704223.0,32.000000
-75,54,-25,1624704223.0,32.000000
-73,53,-25,1624704223.0,32.000000
-94,62,-23,1624704223.0,32.000000
-70,69,7,1624704223.0,32.000000
-13,69,52,1624704223.0,32.000000
-66,61,24,1624704223.0,32.000000
-47,57,36,1624704223.0,32.000000
-40,46,27,1624704223.0,32.000000
-40,43,18,1624704223.0,32.000000
-51,46,12,1624704223.0,32.000000
-41,51,23,1624704223.0,32.000000
-31,55,32,1624704223.0,32.000000
-40,58,24,1624704223.0,32.000000
-44,53,18,1624704223.0,32.000000
-38,50,12,1624704223.0,32.000000
-30,47,11,1624704223.0,32.000000
-25,45,8,1624704223.0,32.000000
-24,45,3,1624704223.0,32.000000
-24,48,2,1624704223.0,32.000000
-37,58,22,1624704223.0,32.000000
-53,60,30,1624704223.0,32.000000
-52,56,23,1624704223.0,32.000000
-41,52,21,1624704223.0,32.000000
-36,51,17,1624704223.0,32.000000
-42,59,7,1624704223.0,32.000000
-25,60,3,1624704223.0,32.000000
-18,65,9,1624704223.0,32.000000
-24,65,4,1624704223.0,32.000000
-26,60,-1,1624704223.0,32.000000
-16,60,11,1624704223.0,32.000000
-21,60,14,1624704223.0,32.000000
-17,57,19,1624704223.0,32.000000
-27,55,22,1624704223.0,32.000000
-39,56,23,1624704223.0,32.000000
-57,58,32,1624704223.0,32.000000
-93,60,30,1624704223.0,32.000000
-78,65,22,1624704223.0,32.000000
-26,69,40,1624704223.0,32.000000
-1,59,47,1624704223.0,32.000000
61,36,54,1624704223.0,32.000000
70,29,48,1624704223.0,32.000000
35,7,14,1624704223.0,32.000000
10,2,15,1624704223.0,32.000000
9,-2,34,1624704223.0,32.000000
4,-8,40,1624704223.0,32.000000
0,-9,40,1624704223.0,32.000000
-2,-2,57,1624704223.0,32.000000
13,6,57,1624704223.0,32.000000
31,9,60,1624704223.0,32.000000
31,14,63,1624704223.0,32.000000
21,18,67,1624704223.0,32.000000
19,23,66,1624704223.0,32.000000
18,25,59,1624704223.0,32.000000
2,28,58,1624704223.0,32.000000
-3,33,59,1624704223.0,32.000000
-10,33,55,1624704223.0,32.000000
-21,38,52,1624704223.0,32.000000
-18,39,53,1624704223.0,32.000000
-39,38,50,1624704223.0,32.000000
-31,38,65,1624704223.0,32.000000
-9,32,62,1624704223.0,32.000000
-18,28,59,1624704223.0,32.000000
-20,30,56,1624704223.0,32.000000
-16,26,55,1624704223.0,32.000000
-21,32,58,1624704223.0,32.000000
-21,31,62,1624704223.0,32.000000
-9,28,56,1624704223.0,32.000000
-18,28,51,1624704223.0,32.000000
-29,27,51,1624704223.0,32.000000
-26,23,53,1624704223.0,32.000000
-24,24,54,1624704223.0,32.000000
-25,24,53,1624704223.0,32.000000
-24,23,56,1624704223.0,32.000000
-25,19,57,1624704223.0,32.000000
-27,19,57,1624704223.0,32.000000
-25,16,59,1624704223.0,32.000000
-24,16,61,1624704223.0,32.000000
-23,16,61,1624704223.0,32.000000
-23,13,57,1624704223.0,32.000000
-27,16,65,1624704223.0,32.000000
-23,12,62,1624704223.0,32.000000
-22,15,57,1624704223.0,32.000000
-22,14,62,1624704223.0,32.000000
-22,16,59,1624704223.0,32.000000
-18,14,61,1624704223.0,32.000000
-22,16,58,1624704223.0,32.000000
-24,16,58,1624704223.0,32.000000
-23,17,59,1624704223.0,32.000000
-22,17,59,1624704223.0,32.000000
-22,17,60,1624704223.0,32.000000
-24,16,58,1624704223.0,32.000000
-25,15,59,1624704223.0,32.000000
-22,15,61,1624704223.0,32.000000
-26,14,58,1624704223.0,32.000000
-24,13,60,1624704223.0,32.000000
-23,13,59,1624704223.0,32.000000
-26,14,61,1624704223.0,32.000000
-25,13,59,1624704223.0,32.000000
-23,13,61,1624704223.0,32.000000
-24,11,61,1624704223.0,32.000000
-24,11,60,1624704223.0,32.000000
-21,12,64,1624704223.0,32.000000
-25,11,59,1624704223.0,32.000000
-24,10,67,1624704223.0,32.000000
-30,5,67,1624704223.0,32.000000
-37,9,74,1624704223.0,32.000000
-41,16,81,1624704223.0,32.000000
-46,-16,72,1624704223.0,32.000000
-22,-6,66,1624704223.0,32.000000
-8,0,64,1624704223.0,32.000000
-32,-11,53,1624704223.0,32.000000
-23,-12,53,1624704223.0,32.000000
-18,-9,57,1624704223.0,32.000000
-16,-10,72,1624704223.0,32.000000
-29,-7,70,1624704223.0,32.000000
-18,0,72,1624704223.0,32.000000
6,-3,70,1624704223.0,32.000000
10,-5,66,1624704223.0,32.000000
16,-11,61,1624704223.0,32.000000
16,-15,55,1624704223.0,32.000000
10,-19,44,1624704223.0,32.000000
6,-29,40,1624704223.0,32.000000
2,-33,40,1624704223.0,32.000000
2,-37,34,1624704223.0,32.000000
0,-44,31,1624704223.0,32.000000
-4,-45,32,1624704223.0,32.000000
-3,-54,26,1624704223.0,32.000000
-9,-51,21,1624704223.0,32.000000
-8,-52,22,1624704223.0,32.000000
-14,-56,18,1624704223.0,32.000000
-23,-53,18,1624704223.0,32.000000
-22,-55,17,1624704223.0,32.000000
-36,-106,19,1624704223.0,32.000000
-41,-36,2,1624704223.0,32.000000
-45,-62,-5,1624704223.0,32.000000
-33,-58,-6,1624704223.0,32.000000
-28,-62,-4,1624704223.0,32.000000
-22,-58,1,1624704223.0,32.000000
-19,-61,6,1624704223.0,32.000000
-20,-57,5,1624704223.0,32.000000
-22,-58,6,1624704223.0,32.000000
-21,-53,17,1624704223.0,32.000000
-17,-53,18,1624704223.0,32.000000
-16,-54,23,1624704223.0,32.000000
-10,-54,26,1624704223.0,32.000000
-7,-50,27,1624704223.0,32.000000
10,-46,40,1624704223.0,32.000000
30,-41,80,1624704223.0,32.000000
-27,-54,45,1624704223.0,32.000000
28,-51,50,1624704223.0,32.000000
9,-39,38,1624704223.0,32.000000
-9,-54,32,1624704223.0,32.000000
-5,-52,34,1624704223.0,32.000000
-5,-48,38,1624704223.0,32.000000
-5,-50,39,1624704223.0,32.000000
-4,-48,40,1624704223.0,32.000000
-2,-49,39,1624704223.0,32.000000
-4,-48,39,1624704223.0,32.000000
-3,-48,42,1624704223.0,32.000000
-5,-49,43,1624704223.0,32.000000
-5,-48,44,1624704223.0,32.000000
-7,-47,44,1624704223.0,32.000000
-7,-48,44,1624704223.0,32.000000
-5,-47,45,1624704223.0,32.000000
-5,-46,46,1624704223.0,32.000000
1,-49,44,1624704223.0,32.000000
3,-48,41,1624704223.0,32.000000
-2,-47,36,1624704223.0,32.000000
1,-49,40,1624704223.0,32.000000
8,-50,42,1624704223.0,32.000000
9,-46,41,1624704223.0,32.000000
10,-48,40,1624704223.0,32.000000
10,-48,37,1624704223.0,32.000000
9,-50,36,1624704223.0,32.000000
8,-49,36,1624704223.0,32.000000
8,-48,41,1624704223.0,32.000000
8,-48,41,1624704223.0,32.000000
10,-49,40,1624704223.0,32.000000
11,-48,40,1624704223.0,32.000000
8,-48,41,1624704223.0,32.000000
8,-48,41,1624704223.0,32.000000
8,-47,42,1624704223.0,32.000000
7,-48,41,1624704223.0,32.000000
7,-48,41,1624704223.0,32.000000
6,-47,41,1624704223.0,32.000000
6,-47,44,1624704223.0,32.000000
6,-46,44,1624704223.0,32.000000
6,-46,44,1624704223.0,32.000000
7,-47,45,1624704223.0,32.000000
8,-45,45,1624704223.0,32.000000
7,-48,44,1624704223.0,32.000000
7,-47,44,1624704223.0,32.000000
6,-48,42,1624704223.0,32.000000
6,-48,41,1624704223.0,32.000000
7,-50,38,1624704223.0,32.000000
4,-49,36,1624704223.0,32.000000
5,-50,37,1624704223.0,32.000000
7,-49,37,1624704223.0,32.000000
7,-49,37,1624704223.0,32.000000
7,-50,37,1624704223.0,32.000000
9,-50,38,1624704223.0,32.000000
9,-50,38,1624704223.0,32.000000
9,-49,38,1624704223.0,32.000000
7,-50,38,1624704223.0,32.000000
4,-50,38,1624704223.0,32.000000
4,-50,39,1624704223.0,32.000000
4,-49,39,1624704223.0,32.000000
5,-49,38,1624704223.0,32.000000
5,-49,39,1624704223.0,32.000000
8,-49,40,1624704223.0,32.000000
7,-49,39,1624704223.0,32.000000
7,-49,39,1624704223.0,32.000000
3,-48,41,1624704223.0,32.000000
4,-49,44,1624704223.0,32.000000
6,-52,41,1624704223.0,32.000000
6,-46,36,1624704223.0,32.000000
6,-43,41,1624704223.0,32.000000
7,-54,50,1624704223.0,32.000000
9,-48,52,1624704223.0,32.000000
9,-41,46,1624704223.0,32.000000
6,-39,43,1624704223.0,32.000000
19,-38,49,1624704223.0,32.000000
13,-33,43,1624704223.0,32.000000
14,-32,41,1624704223.0,32.000000
9,-36,38,1624704223.0,32.000000
9,-35,41,1624704223.0,32.000000
3,-31,43,1624704223.0,32.000000
4,-31,44,1624704223.0,32.000000
4,-30,43,1624704223.0,32.000000
9,-37,49,1624704223.0,32.000000
14,-45,51,1624704223.0,32.000000
13,-57,43,1624704223.0,32.000000
-3,-50,37,1624704223.0,32.000000
-10,-51,41,1624704223.0,32.000000
-11,-72,39,1624704223.0,32.000000
0,-55,39,1624704223.0,32.000000
-14,-25,51,1624704223.0,32.000000
11,-35,68,1624704223.0,32.000000
3,-37,58,1624704223.0,32.000000
-16,-31,47,1624704223.0,32.000000
-15,-31,48,1624704223.0,32.000000
-16,-45,39,1624704223.0,32.000000
-6,-46,31,1624704223.0,32.000000
-2,-42,32,1624704223.0,32.000000
-65,-27,14,1624704223.0,32.000000
-128,-21,-12,1624704223.0,32.000000
-89,-37,2,1624704223.0,32.000000
-61,-20,11,1624704223.0,32.000000
-72,-23,3,1624704223.0,32.000000
-74,-26,10,1624704223.0,32.000000
-79,-18,18,1624704223.0,32.000000
-49,-12,20,1624704223.0,32.000000
2,-18,54,1624704223.0,32.000000
-7,-22,62,1624704223.0,32.000000
-19,-20,68,1624704223.0,32.000000
-21,-20,68,1624704223.0,32.000000
-13,-22,58,1624704223.0,32.000000
-11,-17,59,1624704223.0,32.000000
-15,-17,58,1624704223.0,32.000000
-14,-19,60,1624704223.0,32.000000
-30,-16,59,1624704223.0,32.000000
-17,-19,60,1624704223.0,32.000000
-11,-20,63,1624704223.0,32.000000
-16,-21,56,1624704223.0,32.000000
-8,-20,62,1624704223.0,32.000000
-15,-21,65,1624704223.0,32.000000
-9,-18,67,1624704223.0,32.000000
-16,-21,57,1624704223.0,32.000000
-14,-28,54,1624704223.0,32.000000
-18,-24,54,1624704223.0,32.000000
-16,-21,54,1624704223.0,32.000000
-16,-17,52,1624704223.0,32.000000
-12,-12,63,1624704223.0,32.000000
-3,-12,68,1624704223.0,32.000000
-2,-13,73,1624704223.0,32.000000
-12,-17,64,1624704223.0,32.000000
-17,-16,55,1624704223.0,32.000000
-14,-17,59,1624704223.0,32.000000
-18,-16,59,1624704223.0,32.000000
-16,-19,58,1624704223.0,32.000000
-15,-20,58,1624704223.0,32.000000
-17,-21,58,1624704223.0,32.000000
-17,-18,59,1624704223.0,32.000000
-13,-18,59,1624704223.0,32.000000
-17,-15,67,1624704223.0,32.000000
-12,-20,65,1624704223.0,32.000000
-13,-22,64,1624704223.0,32.000000
-17,-22,59,1624704223.0,32.000000
-17,-20,52,1624704223.0,32.000000
-23,-18,57,1624704223.0,32.000000
-20,-21,56,1624704223.0,32.000000
-19,-20,57,1624704223.0,32.000000
-19,-20,58,1624704223.0,32.000000
-18,-20,58,1624704223.0,32.000000
-18,-19,61,1624704223.0,32.000000
-17,-21,60,1624704223.0,32.000000
-18,-20,59,1624704223.0,32.000000
-20,-19,61,1624704223.0,32.000000
-18,-21,59,1624704223.0,32.000000
-19,-20,58,1624704223.0,32.000000
-23,-18,60,1624704223.0,32.000000
-21,-19,55,1624704223.0,32.000000
-22,-19,52,1624704223.0,32.000000
-6,-20,61,1624704223.0,32.000000
-6,-20,65,1624704223.0,32.000000
-17,-19,60,1624704223.0,32.000000
-18,-23,54,1624704223.0,32.000000
-9,-24,58,1624704223.0,32.000000
-1,-21,61,1624704223.0,32.000000
10,-17,68,1624704223.0,32.000000
-11,-18,61,1624704223.0,32.000000
-13,-20,61,1624704223.0,32.000000
-12,-19,60,1624704223.0,32.000000
-14,-17,64,1624704223.0,32.000000
-11,-16,65,1624704223.0,32.000000
-10,-14,64,1624704223.0,32.000000
-13,-14,61,1624704223.0,32.000000
-14,-14,60,1624704223.0,32.000000
-14,-15,61,1624704223.0,32.000000
-13,-16,62,1624704223.0,32.000000
-15,-17,61,1624704223.0,32.000000
-19,-14,66,1624704223.0,32.000000
-16,-16,68,1624704223.0,32.000000
-20,-18,57,1624704223.0,32.000000
-25,-17,55,1624704223.0,32.000000
-16,-21,59,1624704223.0,32.000000
-24,-19,53,1624704223.0,32.000000
-20,-20,47,1624704223.0,32.000000
-37,-26,50,1624704223.0,32.000000
-37,-20,59,1624704223.0,32.000000
-25,-13,62,1624704223.0,32.000000
-24,-12,59,1624704223.0,32.000000
-23,-14,59,1624704223.0,32.000000
-23,-14,57,1624704223.0,32.000000
-24,-15,57,1624704223.0,32.000000
-25,-18,57,1624704223.0,32.000000
-24,-18,56,1624704223.0,32.000000
-24,-19,57,1624704223.0,32.000000
-23,-17,57,1624704223.0,32.000000
-22,-17,57,1624704223.0,32.000000
-22,-16,56,1624704223.0,32.000000
-24,-15,52,1624704223.0,32.000000
-24,-20,51,1624704223.0,32.000000
-12,-23,60,1624704223.0,32.000000
-10,-24,61,1624704223.0,32.000000
-4,-22,68,1624704223.0,32.000000
-5,-18,70,1624704223.0,32.000000
-10,-28,60,1624704223.0,32.000000
-6,-24,63,1624704223.0,32.000000
-11,-19,66,1624704223.0,32.000000
-9,-19,63,1624704223.0,32.000000
-11,-18,62,1624704223.0,32.000000
-14,-19,58,1624704223.0,32.000000
-12,-18,56,1624704223.0,32.000000
-15,-19,61,1624704223.0,32.000000
-15,-21,59,1624704223.0,32.000000
-12,-21,59,1624704223.0,32.000000
-12,-20,59,1624704223.0,32.000000
-13,-20,59,1624704223.0,32.000000
-13,-20,59,1624704223.0,32.000000
-15,-21,59,1624704223.0,32.000000
-16,-21,58,1624704223.0,32.000000
-12,-19,60,1624704223.0,32.000000
-9,-20,62,1624704223.0,32.000000
-14,-19,61,1624704223.0,32.000000
-18,-20,60,1624704223.0,32.000000
-15,-20,60,1624704223.0,32.000000
-14,-20,61,1624704223.0,32.000000
-14,-19,61,1624704223.0,32.000000
-16,-19,59,1624704223.0,32.000000
-11,-21,62,1624704223.0,32.000000
-16,-17,65,1624704223.0,32.000000
-12,-20,61,1624704223.0,32.000000
-13,-19,57,1624704223.0,32.000000
-13,-18,58,1624704223.0,32.000000
-12,-18,59,1624704223.0,32.000000
-12,-19,59,1624704223.0,32.000000
-15,-19,58,1624704223.0,32.000000
-9,-19,62,1624704223.0,32.000000
-4,-20,64,1624704223.0,32.000000
-18,-20,60,1624704223.0,32.000000
-15,-21,61,1624704223.0,32.000000
-12,-20,61,1624704223.0,32.000000
-10,-19,62,1624704223.0,32.000000
-11,-20,62,1624704223.0,32.000000
-19,-18,58,1624704223.0,32.000000
-15,-17,54,1624704223.0,32.000000
-15,-17,63,1624704223.0,32.000000
-11,-20,61,1624704223.0,32.000000
-15,-19,60,1624704223.0,32.000000
-12,-20,61,1624704223.0,32.000000
-12,-20,60,1624704223.0,32.000000
-17,-19,58,1624704223.0,32.000000
-14,-18,57,1624704223.0,32.000000
-6,-17,62,1624704223.0,32.000000
-19,-19,59,1624704223.0,32.000000
-18,-20,60,1624704223.0,32.000000
-12,-20,61,1624704223.0,32.000000
-13,-20,62,1624704223.0,32.000000
-14,-20,62,1624704223.0,32.000000
-21,-19,58,1624704223.0,32.000000
-18,-15,51,1624704223.0,32.000000
-11,-19,65,1624704223.0,32.000000
-24,-17,59,1624704223.0,32.000000
-13,-21,60,1624704223.0,32.000000
-14,-21,60,1624704223.0,32.000000
-13,-20,60,1624704223.0,32.000000
-14,-20,60,1624704223.0,32.000000
-15,-20,59,1624704223.0,32.000000
-14,-20,60,1624704223.0,32.000000
-14,-20,59,1624704223.0,32.000000
-14,-20,59,1624704223.0,32.000000
-14,-20,60,1624704223.0,32.000000
-14,-20,61,1624704223.0,32.000000
-13,-20,60,1624704223.0,32.000000
-13,-20,61,1624704223.0,32.000000
-14,-20,61,1624704223.0,32.000000
-14,-20,60,1624704223.0,32.000000
-14,-20,60,1624704223.0,32.000000
-14,-20,60,1624704223.0,32.000000
-14,-19,60,1624704223.0,32.000000
-14,-19,60,1624704223.0,32.000000
-15,-19,60,1624704223.0,32.000000
-14,-19,60,1624704223.0,32.000000
-15,-19,60,1624704223.0,32.000000
-15,-18,61,1624704223.0,32.000000
-15,-18,60,1624704223.0,32.000000
-14,-18,60,1624704223.0,32.000000
-15,-18,60,1624704223.0,32.000000
-15,-18,61,1624704223.0,32.000000
-14,-18,61,1624704223.0,32.000000
-14,-18,60,1624704223.0,32.000000
-14,-18,60,1624704223.0,32.000000
-14,-18,61,1624704223.0,32.000000
-14,-18,61,1624704223.0,32.000000
-14,-18,60,1624704223.0,32.000000
-15,-17,61,1624704223.0,32.000000
-14,-18,61,1624704223.0,32.000000
-14,-18,61,1624704223.0,32.000000
-14,-18,61,1624704223.0,32.000000
-14,-18,61,1624704223.0,32.000000
-14,-18,60,1624704223.0,32.000000
-14,-18,60,1624704223.0,32.000000
-14,-18,61,1624704223.0,32.000000
-14,-18,61,1624704223.0,32.000000
-15,-18,60,1624704223.0,32.000000
-14,-18,61,1624704223.0,32.000000
-14,-18,61,1624704223.0,32.000000
-14,-18,61,1624704223.0,32.000000
-14,-18,61,1624704223.0,32.000000
-14,-18,61,1624704223.0,32.000000
-14,-18,60,1624704223.0,32.000000
-14,-18,60,1624704223.0,32.000000
-14,-18,60,1624704223.0,32.000000
-14,-18,61,1624704223.0,32.000000
-14,-18,61,1624704223.0,32.000000
-14,-18,60,1624704223.0,32.000000
-14,-18,61,1624704223.0,32.000000
-14,-18,60,1624704223.0,32.000000
-14,-18,60,1624704223.0,32.000000
-14,-18,61,1624704223.0,32.000000
-14,-18,61,1624704223.0,32.000000
-14,-18,60,1624704223.0,32.000000
-14,-18,61,1624704223.0,32.000000
-14,-18,61,1624704223.0,32.000000
-14,-18,61,1624704223.0,32.000000
-14,-18,60,1624704223.0,32.000000
-14,-18,60,1624704223.0,32.000000
-14,-18,61,1624704223.0,32.000000
-14,-18,61,1624704223.0,32.000000
-14,-18,61,1624704223.0,32.000000
-14,-18,60,1624704223.0,32.000000
-14,-18,60,1624704223.0,32.000000
-14,-19,61,1624704223.0,32.000000
-14,-19,61,1624704223.0,32.000000
-14,-18,61,1624704223.0,32.000000
-14,-19,61,1624704223.0,32.000000
-14,-19,60,1624704223.0,32.000000
-14,-19,60,1624704223.0,32.000000
-14,-19,60,1624704223.0,32.000000
-14,-19,61,1624704223.0,32.000000
-14,-19,60,1624704223.0,32.000000
-14,-19,61,1624704223.0,32.000000
-14,-19,60,1624704223.0,32.000000
-14,-19,60,1624704223.0,32.000000
-14,-19,60,1624704223.0,32.000000
-14,-19,61,1624704223.0,32.000000
-14,-19,61,1624704223.0,32.000000
-14,-19,61,1624704223.0,32.000000
-14,-18,61,1624704223.0,32.000000
-14,-18,61,1624704223.0,32.000000
-14,-18,60,1624704223.0,32.000000
-14,-18,60,1624704223.0,32.000000
-14,-18,61,1624704223.0,32.000000
-14,-18,61,1624704223.0,32.000000
-14,-18,61,1624704223.0,32.000000
-14,-17,61,1624704223.0,32.000000
-14,-17,60,1624704223.0,32.000000
-14,-17,60,1624704223.0,32.000000
-14,-17,61,1624704223.0,32.000000
-13,-17,61,1624704223.0,32.000000
-14,-17,61,1624704223.0,32.000000
-14,-17,61,1624704223.0,32.000000
-14,-17,61,1624704223.0,32.000000
-14,-17,61,1624704223.0,32.000000
-14,-17,61,1624704223.0,32.000000
-14,-17,61,1624704223.0,32.000000
-14,-17,61,1624704223.0,32.000000
-14,-17,61,1624704223.0,32.000000
-14,-17,61,1624704223.0,32.000000
-14,-17,61,1624704223.0,32.000000
-14,-17,61,1624704223.0,32.000000
-14,-17,61,1624704223.0,32.000000
-14,-17,61,1624704223.0,32.000000
-14,-17,61,1624704223.0,32.000000
-14,-17,61,1624704223.0,32.000000
-14,-17,61,1624704223.0,32.000000
-14,-17,61,1624704223.0,32.000000
-14,-17,61,1624704223.0,32.000000
-14,-17,61,1624704223.0,32.000000
-14,-18,61,1624704223.0,32.000000
-14,-17,61,1624704223.0,32.000000
-14,-17,61,1624704223.0,32.000000
-14,-17,61,1624704223.0,32.000000
-14,-18,60,1624704223.0,32.000000
-14,-18,61,1624704223.0,32.000000
-14,-17,61,1624704223.0,32.000000
-14,-18,61,1624704223.0,32.000000
-14,-18,61,1624704223.0,32.000000
-14,-18,61,1624704223.0,32.000000
-14,-18,61,1624704223.0,32.000000
-14,-18,61,1624704223.0,32.000000
-14,-18,61,1624704223.0,32.000000
-14,-18,61,1624704223.0,32.000000
-14,-18,61,1624704223.0,32.000000
-14,-18,61,1624704223.0,32.000000
-14,-18,60,1624704223.0,32.000000
-14,-18,60,1624704223.0,32.000000
-14,-18,60,1624704223.0,32.000000
-14,-18,61,1624704223.0,32.000000
-14,-18,61,1624704223.0,32.000000
-14,-18,60,1624704223.0,32.000000
-14,-19,60,1624704223.0,32.000000
-14,-19,60,1624704223.0,32.000000
-14,-19,60,1624704223.0,32.000000
-14,-19,60,1624704223.0,32.000000
-14,-19,61,1624704223.0,32.000000
-14,-19,61,1624704223.0,32.000000
-14,-19,60,1624704223.0,32.000000
-14,-19,61,1624704223.0,32.000000
-14,-19,60,1624704223.0,32.000000
-14,-19,61,1624704223.0,32.000000
-14,-19,60,1624704223.0,32.000000
-14,-19,60,1624704223.0,32.000000
-14,-18,60,1624704223.0,32.000000
-14,-18,60,1624704223.0,32.000000
-14,-18,60,1624704223.0,32.000000
-14,-18,60,1624704223.0,32.000000
-14,-18,61,1624704223.0,32.000000
-14,-18,60,1624704223.0,32.000000
-14,-18,61,1624704223.0,32.000000
-14,-18,60,1624704223.0,32.000000
-14,-18,61,1624704223.0,32.000000
-14,-18,60,1624704223.0,32.000000
-14,-18,61,1624704223.0,32.000000
-14,-18,60,1624704223.0,32.000000
-14,-18,61,1624704223.0,32.000000
-14,-18,61,1624704223.0,32.000000
-14,-18,61,1624704223.0,32.000000
-14,-18,61,1624704223.0,32.000000
-14,-18,61,1624704223.0,32.000000
-14,-18,61,1624704223.0,32.000000
-14,-18,60,1624704223.0,32.000000
-14,-18,60,1624704223.0,32.000000
-14,-18,61,1624704223.0,32.000000
-14,-18,61,1624704223.0,32.000000
-14,-18,61,1624704223.0,32.000000
-14,-18,61,1624704223.0,32.000000
-14,-18,60,1624704223.0,32.000000
-14,-18,61,1624704223.0,32.000000
-14,-18,60,1624704223.0,32.000000
-14,-18,61,1624704223.0,32.000000
-14,-18,61,1624704223.0,32.000000
-14,-18,61,1624704223.0,32.000000
-14,-18,61,1624704223.0,32.000000
-14,-18,61,1624704223.0,32.000000
-14,-18,61,1624704223.0,32.000000
-14,-18,60,1624704223.0,32.000000
-16,-17,61,1624704223.0,32.000000
-12,-17,60,1624704223.0,32.000000
-6,-17,61,1624704223.0,32.000000
-11,-19,62,1624704223.0,32.000000
-18,-19,60,1624704223.0,32.000000
-15,-19,61,1624704223.0,32.000000
-13,-17,61,1624704223.0,32.000000
-13,-18,61,1624704223.0,32.000000
-13,-18,62,1624704223.0,32.000000
-13,-18,61,1624704223.0,32.000000
-13,-18,61,1624704223.0,32.000000
-13,-18,62,1624704223.0,32.000000
-14,-19,61,1624704223.0,32.000000
-15,-18,61,1624704223.0,32.000000
-15,-16,59,1624704223.0,32.000000
-8,-18,60,1624704223.0,32.000000
-19,-16,59,1624704223.0,32.000000
-11,-18,61,1624704223.0,32.000000
-13,-17,61,1624704223.0,32.000000
-13,-18,61,1624704223.0,32.000000
-13,-18,60,1624704223.0,32.000000
-13,-18,61,1624704223.0,32.000000
-13,-18,61,1624704223.0,32.000000
-13,-18,61,1624704223.0,32.000000
-13,-18,61,1624704223.0,32.000000
-13,-18,61,1624704223.0,32.000000
-13,-18,61,1624704223.0,32.000000
-13,-18,61,1624704223.0,32.000000
-13,-18,61,1624704223.0,32.000000
-13,-17,61,1624704223.0,32.000000
-13,-18,61,1624704223.0,32.000000
-13,-18,61,1624704223.0,32.000000
-13,-17,61,1624704223.0,32.000000
-13,-17,61,1624704223.0,32.000000
-13,-17,61,1624704223.0,32.000000
-13,-17,61,1624704223.0,32.000000
-13,-17,61,1624704223.0,32.000000
-13,-17,61,1624704223.0,32.000000
-13,-17,61,1624704223.0,32.000000
-13,-17,61,1624704223.0,32.000000
-13,-17,61,1624704223.0,32.000000
-13,-17,61,1624704223.0,32.000000
-13,-17,61,1624704223.0,32.000000
-13,-17,61,1624704223.0,32.000000
-13,-17,61,1624704223.0,32.000000
-13,-17,61,1624704223.0,32.000000
-13,-17,61,1624704223.0,32.000000
-13,-17,61,1624704223.0,32.000000
-13,-17,61,1624704223.0,32.000000
-13,-17,61,1624704223.0,32.000000
-13,-18,61,1624704223.0,32.000000
-13,-18,61,1624704223.0,32.000000
-13,-17,61,1624704223.0,32.000000
-13,-18,61,1624704223.0,32.000000
-13,-18,61,1624704223.0,32.000000
-13,-18,61,1624704223.0,32.000000
-13,-18,61,1624704223.0,32.000000
-13,-18,61,1624704223.0,32.000000
-12,-18,61,1624704223.0,32.000000
-13,-18,61,1624704223.0,32.000000
-13,-18,61,1624704223.0,32.000000
-12,-18,61,1624704223.0,32.000000
-13,-18,61,1624704223.0,32.000000
-12,-18,61,1624704223.0,32.000000
-13,-18,61,1624704223.0,32.000000
-13,-18,61,1624704223.0,32.000000
-13,-18,61,1624704223.0,32.000000
-13,-18,61,1624704223.0,32.000000
-12,-18,61,1624704223.0,32.000000
-12,-18,61,1624704223.0,32.000000
-13,-18,61,1624704223.0,32.000000
-13,-18,61,1624704223.0,32.000000
-12,-18,61,1624704223.0,32.000000
-13,-18,61,1624704223.0,32.000000
-13,-18,61,1624704223.0,32.000000
-13,-17,61,1624704223.0,32.000000
-13,-17,61,1624704223.0,32.000000
-13,-18,60,1624704223.0,32.000000
-12,-18,61,1624704223.0,32.000000
-13,-18,61,1624704223.0,32.000000
-13,-17,61,1624704223.0,32.000000
-13,-17,61,1624704223.0,32.000000
-13,-17,61,1624704223.0,32.000000
-13,-17,61,1624704223.0,32.000000
-13,-17,61,1624704223.0,32.000000
-13,-18,60,1624704223.0,32.000000
-13,-17,60,1624704223.0,32.000000
-11,-17,61,1624704223.0,32.000000
-9,-17,62,1624704223.0,32.000000
-12,-18,62,1624704223.0,32.000000
-14,-17,61,1624704223.0,32.000000
-12,-17,61,1624704223.0,32.000000
-13,-17,61,1624704223.0,32.000000
-12,-18,61,1624704223.0,32.000000
-13,-17,61,1624704223.0,32.000000
-10,-17,62,1624704223.0,32.000000
-13,-17,61,1624704223.0,32.000000
-13,-17,61,1624704223.0,32.000000
-12,-18,61,1624704223.0,32.000000
-13,-17,62,1624704223.0,32.000000
-13,-17,61,1624704223.0,32.000000
-13,-17,61,1624704223.0,32.000000
-13,-17,61,1624704223.0,32.000000
-12,-18,61,1624704223.0,32.000000
-12,-18,61,1624704223.0,32.000000
-12,-18,61,1624704223.0,32.000000
-12,-18,61,1624704223.0,32.000000
-12,-18,61,1624704223.0,32.000000
-13,-17,61,1624704223.0,32.000000
-13,-17,61,1624704223.0,32.000000
-13,-17,61,1624704223.0,32.000000
-13,-18,61,1624704223.0,32.000000
-13,-17,61,1624704223.0,32.000000
-13,-18,61,1624704223.0,32.000000
-12,-18,61,1624704223.0,32.000000
-12,-18,61,1624704223.0,32.000000
-12,-18,61,1624704223.0,32.000000
-13,-18,61,1624704223.0,32.000000
-13,-18,61,1624704223.0,32.000000
-12,-17,61,1624704223.0,32.000000
-13,-18,61,1624704223.0,32.000000
-12,-17,61,1624704223.0,32.000000
-13,-18,61,1624704223.0,32.000000
-12,-18,61,1624704223.0,32.000000
-12,-18,61,1624704223.0,32.000000
-12,-18,61,1624704223.0,32.000000
-12,-18,61,1624704223.0,32.000000
-13,-18,61,1624704223.0,32.000000
-12,-17,61,1624704223.0,32.000000
-12,-18,61,1624704223.0,32.000000
-13,-18,61,1624704223.0,32.000000
-12,-18,61,1624704223.0,32.000000
-12,-18,61,1624704223.0,32.000000
-13,-18,61,1624704223.0,32.000000
-12,-18,61,1624704223.0,32.000000
-13,-18,61,1624704223.0,32.000000
-12,-18,61,1624704223.0,32.000000
-12,-18,61,1624704223.0,32.000000
-12,-18,61,1624704223.0,32.000000
-13,-18,61,1624704223.0,32.000000
-13,-18,61,1624704223.0,32.000000
-13,-18,61,1624704223.0,32.000000
-13,-18,61,1624704223.0,32.000000
-13,-18,61,1624704223.0,32.000000
-12,-18,61,1624704223.0,32.000000
-12,-18,61,1624704223.0,32.000000
-12,-18,61,1624704223.0,32.000000
-12,-18,61,1624704223.0,32.000000
-12,-18,61,1624704223.0,32.000000
-13,-18,61,1624704223.0,32.000000
-12,-18,61,1624704223.0,32.000000
-13,-17,61,1624704223.0,32.000000
-12,-18,61,1624704223.0,32.000000
-12,-18,61,1624704223.0,32.000000
-13,-17,61,1624704223.0,32.000000
-13,-17,61,1624704223.0,32.000000
-13,-17,61,1624704223.0,32.000000
-12,-18,61,1624704223.0,32.000000
-13,-17,61,1624704223.0,32.000000
-13,-17,61,1624704223.0,32.000000
-13,-17,61,1624704223.0,32.000000
-12,-17,61,1624704223.0,32.000000
-13,-17,61,1624704223.0,32.000000
-13,-17,61,1624704223.0,32.000000
-12,-17,61,1624704223.0,32.000000
-13,-17,61,1624704223.0,32.000000
-13,-17,61,1624704223.0,32.000000
-13,-17,61,1624704223.0,32.000000
-13,-17,61,1624704223.0,32.000000
-13,-17,61,1624704223.0,32.000000
-13,-17,61,1624704223.0,32.000000
-13,-17,61,1624704223.0,32.000000
-13,-17,61,1624704223.0,32.000000
-13,-17,61,1624704223.0,32.000000
-13,-17,61,1624704223.0,32.000000
-13,-17,61,1624704223.0,32.000000
-13,-18,61,1624704223.0,32.000000
-13,-17,61,1624704223.0,32.000000
-13,-18,61,1624704223.0,32.000000
-13,-17,61,1624704223.0,32.000000
-12,-17,61,1624704223.0,32.000000
-13,-18,61,1624704223.0,32.000000
-13,-17,61,1624704223.0,32.000000
-13,-17,61,1624704223.0,32.000000
-13,-17,61,1624704223.0,32.000000
-13,-17,61,1624704223.0,32.000000
-13,-17,61,1624704223.0,32.000000
-13,-17,61,1624704223.0,32.000000
-13,-17,61,1624704223.0,32.000000
-12,-18,61,1624704223.0,32.000000
-12,-17,61,1624704223.0,32.000000
-13,-17,61,1624704223.0,32.000000
-13,-17,61,1624704223.0,32.000000
-13,-18,61,1624704223.0,32.000000
-13,-18,61,1624704223.0,32.000000
-12,-17,61,1624704223.0,32.000000
-12,-18,61,1624704223.0,32.000000
-13,-17,61,1624704223.0,32.000000
-13,-18,61,1624704223.0,32.000000
-13,-17,61,1624704223.0,32.000000
-13,-18,61,1624704223.0,32.000000
-13,-18,61,1624704223.0,32.000000
-13,-18,61,1624704223.0,32.000000
-13,-18,61,1624704223.0,32.000000
-12,-18,61,1624704223.0,32.000000
-12,-18,61,1624704223.0,32.000000
-13,-18,61,1624704223.0,32.000000
-13,-18,61,1624704223.0,32.000000
-13,-18,61,1624704223.0,32.000000
-12,-17,61,1624704223.0,32.000000
-12,-17,61,1624704223.0,32.000000
-13,-18,61,1624704223.0,32.000000
-12,-18,61,1624704223.0,32.000000
-12,-18,61,1624704223.0,32.000000
-12,-18,61,1624704223.0,32.000000
-12,-19,60,1624704223.0,32.000000
-14,-17,61,1624704223.0,32.000000
-13,-17,61,1624704223.0,32.000000
-13,-17,61,1624704223.0,32.000000
-14,-18,61,1624704223.0,32.000000
-13,-17,61,1624704223.0,32.000000
-13,-18,62,1624704223.0,32.000000
-13,-18,62,1624704223.0,32.000000
-13,-16,62,1624704223.0,32.000000
-12,-15,60,1624704223.0,32.000000
-12,-15,60,1624704223.0,32.000000
-13,-17,59,1624704223.0,32.000000
-12,-19,60,1624704223.0,32.000000
-12,-18,62,1624704223.0,32.000000
-13,-20,62,1624704223.0,32.000000
-15,-18,62,1624704223.0,32.000000
-11,-16,63,1624704223.0,32.000000
-12,-16,61,1624704223.0,32.000000
-12,-16,61,1624704223.0,32.000000
-13,-16,60,1624704223.0,32.000000
-14,-17,60,1624704223.0,32.000000
-13,-17,61,1624704223.0,32.000000
-12,-17,62,1624704223.0,32.000000
-12,-17,62,1624704223.0,32.000000
-11,-17,62,1624704223.0,32.000000
-11,-17,62,1624704223.0,32.000000
-12,-17,61,1624704223.0,32.000000
-12,-17,61,1624704223.0,32.000000
-12,-17,61,1624704223.0,32.000000
-12,-17,61,1624704223.0,32.000000
-12,-17,61,1624704223.0,32.000000
-12,-17,61,1624704223.0,32.000000
-12,-17,61,1624704223.0,32.000000
-12,-17,61,1624704223.0,32.000000
-12,-17,62,1624704223.0,32.000000
-11,-17,61,1624704223.0,32.000000
-11,-17,61,1624704223.0,32.000000
-11,-17,61,1624704223.0,32.000000
-12,-17,62,1624704223.0,32.000000
-12,-16,62,1624704223.0,32.000000
-12,-16,63,1624704223.0,32.000000
-11,-17,65,1624704223.0,32.000000
-11,-15,66,1624704223.0,32.000000
-11,-17,62,1624704223.0,32.000000
-12,-17,62,1624704223.0,32.000000
-12,-17,62,1624704223.0,32.000000
-7,-16,63,1624704223.0,32.000000
-7,-15,64,1624704223.0,32.000000
-7,-16,65,1624704223.0,32.000000
-4,-16,66,1624704223.0,32.000000
-5,-17,64,1624704223.0,32.000000
-7,-16,63,1624704223.0,32.000000
-5,-12,67,1624704223.0,32.000000
0,-23,60,1624704223.0,32.000000
7,-18,68,1624704223.0,32.000000
9,-19,68,1624704223.0,32.000000
7,-21,63,1624704223.0,32.000000
5,-20,60,1624704223.0,32.000000
5,-20,58,1624704223.0,32.000000
7,-18,58,1624704223.0,32.000000
7,-18,58,1624704223.0,32.000000
10,-16,60,1624704223.0,32.000000
11,-15,61,1624704223.0,32.000000
12,-14,58,1624704223.0,32.000000
16,-10,57,1624704223.0,32.000000
17,-11,59,1624704223.0,32.000000
15,-11,54,1624704223.0,32.000000
16,-11,52,1624704223.0,32.000000
18,-14,48,1624704223.0,32.000000
20,-14,47,1624704223.0,32.000000
12,-11,45,1624704223.0,32.000000
-2,-7,50,1624704223.0,32.000000
5,-6,54,1624704223.0,32.000000
12,3,59,1624704223.0,32.000000
4,9,65,1624704223.0,32.000000
9,14,68,1624704223.0,32.000000
7,9,69,1624704223.0,32.000000
1,13,70,1624704223.0,32.000000
6,9,74,1624704223.0,32.000000
4,9,71,1624704223.0,32.000000
-1,3,73,1624704223.0,32.000000
9,2,85,1624704223.0,32.000000
-12,-2,60,1624704223.0,32.000000
-21,2,62,1624704223.0,32.000000
-27,8,69,1624704223.0,32.000000
-12,6,64,1624704223.0,32.000000
-12,5,62,1624704223.0,32.000000
-13,5,66,1624704223.0,32.000000
-10,4,64,1624704223.0,32.000000
-12,3,60,1624704223.0,32.000000
-18,6,65,1624704223.0,32.000000
-15,5,62,1624704223.0,32.000000
-16,4,60,1624704223.0,32.000000
-17,6,62,1624704223.0,32.000000
-17,5,60,1624704223.0,32.000000
-15,5,62,1624704223.0,32.000000
-15,4,62,1624704223.0,32.000000
-15,4,62,1624704223.0,32.000000
-19,5,64,1624704223.0,32.000000
-19,5,64,1624704223.0,32.000000
-19,5,61,1624704223.0,32.000000
-17,5,63,1624704223.0,32.000000
-16,4,63,1624704223.0,32.000000
-17,5,62,1624704223.0,32.000000
-18,4,62,1624704223.0,32.000000
-16,5,62,1624704223.0,32.000000
-15,5,62,1624704223.0,32.000000
-17,5,62,1624704223.0,32.000000
-15,4,63,1624704223.0,32.000000
-14,5,64,1624704223.0,32.000000
-17,5,63,1624704223.0,32.000000
-17,3,63,1624704223.0,32.000000
-15,5,63,1624704223.0,32.000000
-17,5,63,1624704223.0,32.000000
-16,4,63,1624704223.0,32.000000
-16,6,63,1624704223.0,32.000000
-16,6,62,1624704223.0,32.000000
-15,5,63,1624704223.0,32.000000
-15,4,63,1624704223.0,32.000000
-16,4,64,1624704223.0,32.000000
-14,5,64,1624704223.0,32.000000
-15,5,65,1624704223.0,32.000000
-18,5,62,1624704223.0,32.000000
-23,4,60,1624704223.0,32.000000
-25,4,60,1624704223.0,32.000000
-26,4,60,1624704223.0,32.000000
-24,4,60,1624704223.0,32.000000
-23,4,61,1624704223.0,32.000000
-23,6,63,1624704223.0,32.000000
-23,4,61,1624704223.0,32.000000
-25,4,61,1624704223.0,32.000000
-24,4,61,1624704223.0,32.000000
-24,4,61,1624704223.0,32.000000
-23,4,61,1624704223.0,32.000000
-23,4,61,1624704223.0,32.000000
-24,4,60,1624704223.0,32.000000
-24,4,61,1624704223.0,32.000000
-23,4,61,1624704223.0,32.000000
-23,4,62,1624704223.0,32.000000
-23,4,62,1624704223.0,32.000000
-22,4,61,1624704223.0,32.000000
-23,4,61,1624704223.0,32.000000
-23,4,61,1624704223.0,32.000000
-23,4,61,1624704223.0,32.000000
-23,4,61,1624704223.0,32.000000
-23,4,61,1624704223.0,32.000000
-23,4,61,1624704223.0,32.000000
-23,4,61,1624704223.0,32.000000
-23,4,61,1624704223.0,32.000000
-23,4,61,1624704223.0,32.000000
-23,4,61,1624704223.0,32.000000
-23,4,61,1624704223.0,32.000000
-23,4,61,1624704223.0,32.000000
-23,5,61,1624704223.0,32.000000
-23,4,61,1624704223.0,32.000000
-23,4,61,1624704223.0,32.000000
-23,4,61,1624704223.0,32.000000
-23,4,61,1624704223.0,32.000000
-23,4,61,1624704223.0,32.000000
-23,4,61,1624704223.0,32.000000
-23,4,61,1624704223.0,32.000000
-24,4,61,1624704223.0,32.000000
-23,4,61,1624704223.0,32.000000
-23,4,61,1624704223.0,32.000000
-23,4,61,1624704223.0,32.000000
-23,4,61,1624704223.0,32.000000
-23,4,61,1624704223.0,32.000000
-23,4,61,1624704223.0,32.000000
-23,4,61,1624704223.0,32.000000
-23,4,61,1624704223.0,32.000000
-23,4,61,1624704223.0,32.000000
-23,4,61,1624704223.0,32.000000
-23,4,61,1624704223.0,32.000000
-23,4,61,1624704223.0,32.000000
-23,4,61,1624704223.0,32.000000
-23,4,61,1624704223.0,32.000000
-23,4,61,1624704223.0,32.000000
-23,4,61,1624704223.0,32.000000
-23,4,61,1624704223.0,32.000000
-23,4,61,1624704223.0,32.000000
-23,4,62,1624704223.0,32.000000
-22,4,61,1624704223.0,32.000000
-24,4,61,1624704223.0,32.000000
-24,4,61,1624704223.0,32.000000
-23,5,61,1624704223.0,32.000000
-24,4,61,1624704223.0,32.000000
-24,4,61,1624704223.0,32.000000
-23,4,61,1624704223.0,32.000000
-23,4,61,1624704223.0,32.000000
-23,4,60,1624704223.0,32.000000
-23,4,61,1624704223.0,32.000000
-23,4,61,1624704223.0,32.000000
-23,4,61,1624704223.0,32.000000
-23,4,61,1624704223.0,32.000000
-23,4,61,1624704223.0,32.000000
-23,4,61,1624704223.0,32.000000
-24,4,61,1624704223.0,32.000000
-23,4,61,1624704223.0,32.000000
-23,4,61,1624704223.0,32.000000
-23,4,61,1624704223.0,32.000000
-23,4,61,1624704223.0,32.000000
-23,4,61,1624704223.0,32.000000
-23,4,61,1624704223.0,32.000000
-23,4,61,1624704223.0,32.000000
-23,4,61,1624704223.0,32.000000
-23,4,61,1624704223.0,32.000000
-23,4,61,1624704223.0,32.000000
-23,4,61,1624704223.0,32.000000
-23,4,61,1624704223.0,32.000000
-23,4,61,1624704223.0,32.000000
-23,4,61,1624704223.0,32.000000
-24,4,61,1624704223.0,32.000000
-24,4,61,1624704223.0,32.000000
-23,4,61,1624704223.0,32.000000
-24,4,61,1624704223.0,32.000000
-24,4,61,1624704223.0,32.000000
-23,4,61,1624704223.0,32.000000
-23,4,61,1624704223.0,32.000000
-24,4,61,1624704223.0,32.000000
-23,4,61,1624704223.0,32.000000
-23,4,61,1624704223.0,32.000000
-23,4,61,1624704223.0,32.000000
-23,4,61,1624704223.0,32.000000
-23,4,61,1624704223.0,32.000000
-23,4,61,1624704223.0,32.000000
-23,4,61,1624704223.0,32.000000
-23,5,61,1624704223.0,32.000000
-23,4,61,1624704223.0,32.000000
-23,4,61,1624704223.0,32.000000
-23,4,62,1624704223.0,32.000000
-23,4,62,1624704223.0,32.000000
-23,4,61,1624704223.0,32.000000
-24,4,61,1624704223.0,32.000000
-24,5,61,1624704223.0,32.000000
-24,5,60,1624704223.0,32.000000
-24,5,61,1624704223.0,32.000000
-23,5,61,1624704223.0,32.000000
-23,5,61,1624704223.0,32.000000
-23,4,61,1624704223.0,32.000000
-24,4,61,1624704223.0,32.000000
-23,4,61,1624704223.0,32.000000
-23,4,61,1624704223.0,32.000000
-24,4,61,1624704223.0,32.000000
-24,4,61,1624704223.0,32.000000
-24,4,61,1624704223.0,32.000000
-24,4,61,1624704223.0,32.000000
-24,4,61,1624704223.0,32.000000
-24,5,60,1624704223.0,32.000000
-24,5,61,1624704223.0,32.000000
-24,5,61,1624704223.0,32.000000
-23,4,61,1624704223.0,32.000000
-24,5,61,1624704223.0,32.000000
-24,4,61,1624704223.0,32.000000
-24,4,61,1624704223.0,32.000000
-24,4,61,1624704223.0,32.000000
-24,4,61,1624704223.0,32.000000
-24,5,61,1624704223.0,32.000000
-24,5,61,1624704223.0,32.000000
-24,4,61,1624704223.0,32.000000
-24,5,61,1624704223.0,32.000000
-24,4,61,1624704223.0,32.000000
-24,4,61,1624704223.0,32.000000
-23,4,61,1624704223.0,32.000000
-23,4,61,1624704223.0,32.000000
-24,5,61,1624704223.0,32.000000
-24,4,61,1624704223.0,32.000000
-23,4,61,1624704223.0,32.000000
-23,4,61,1624704223.0,32.000000
-23,4,61,1624704223.0,32.000000
-23,5,61,1624704223.0,32.000000
-23,5,61,1624704223.0,32.000000
-23,4,61,1624704223.0,32.000000
-23,5,61,1624704223.0,32.000000
-24,4,61,1624704223.0,32.000000
-23,5,61,1624704223.0,32.000000
-23,4,61,1624704223.0,32.000000
-23,5,61,1624704223.0,32.000000
-23,5,61,1624704223.0,32.000000
-23,4,61,1624704223.0,32.000000
-23,4,61,1624704223.0,32.000000
-23,4,61,1624704223.0,32.000000
-23,5,61,1624704223.0,32.000000
-23,5,61,1624704223.0,32.000000
-23,5,61,1624704223.0,32.000000
-23,5,61,1624704223.0,32.000000
-23,5,61,1624704223.0,32.000000
-23,4,61,1624704223.0,32.000000
-23,4,61,1624704223.0,32.000000
-23,5,61,1624704223.0,32.000000
-23,4,61,1624704223.0,32.000000
-23,5,61,1624704223.0,32.000000
-23,4,61,1624704223.0,32.000000
-23,5,61,1624704223.0,32.000000
-23,4,61,1624704223.0,32.000000
-23,4,61,1624704223.0,32.000000
-23,5,61,1624704223.0,32.000000
-23,4,61,1624704223.0,32.000000
-23,4,61,1624704223.0,32.000000
-23,4,61,1624704223.0,32.000000
-23,5,61,1624704223.0,32.000000
-22,5,61,1624704223.0,32.000000
-23,4,61,1624704223.0,32.000000
-23,4,61,1624704223.0,32.000000
-23,5,61,1624704223.0,32.000000
-23,5,61,1624704223.0,32.000000
-22,5,61,1624704223.0,32.000000
-23,4,61,1624704223.0,32.000000
-23,4,61,1624704223.0,32.000000
-23,4,61,1624704223.0,32.000000
-23,4,61,1624704223.0,32.000000
-23,4,61,1624704223.0,32.000000
-23,4,61,1624704223.0,32.000000
-23,5,61,1624704223.0,32.000000
-23,5,61,1624704223.0,32.000000
-23,4,61,1624704223.0,32.000000
-23,5,61,1624704223.0,32.000000
-23,4,61,1624704223.0,32.000000
-23,5,61,1624704223.0,32.000000
-23,4,61,1624704223.0,32.000000
-23,5,61,1624704223.0,32.000000
-23,4,61,1624704223.0,32.000000
-23,4,61,1624704223.0,32.000000
-23,4,61,1624704223.0,32.000000
-23,5,61,1624704223.0,32.000000
-23,4,61,1624704223.0,32.000000
-23,5,61,1624704223.0,32.000000
-23,5,61,1624704223.0,32.000000
-23,5,61,1624704223.0,32.000000
-23,4,61,1624704223.0,32.000000
-23,5,61,1624704223.0,32.000000
-23,5,61,1624704223.0,32.000000
-23,5,61,1624704223.0,32.000000
-23,4,61,1624704223.0,32.000000
-23,5,61,1624704223.0,32.000000
-23,4,61,1624704223.0,32.000000
-23,5,61,1624704223.0,32.000000
-23,4,61,1624704223.0,32.000000
-23,4,61,1624704223.0,32.000000
-23,5,61,1624704223.0,32.000000
-23,4,61,1624704223.0,32.000000
-23,4,61,1624704223.0,32.000000
-23,4,61,1624704223.0,32.000000
-23,4,62,1624704223.0,32.000000
-22,4,61,1624704223.0,32.000000
-22,5,62,1624704223.0,32.000000
-22,5,61,1624704223.0,32.000000
-22,4,61,1624704223.0,32.000000
-22,5,62,1624704223.0,32.000000
-22,4,61,1624704223.0,32.000000
-22,4,62,1624704223.0,32.000000
-21,4,61,1624704223.0,32.000000
-21,5,62,1624704223.0,32.000000
-21,4,62,1624704223.0,32.000000
-20,4,62,1624704223.0,32.000000
-20,4,62,1624704223.0,32.000000
-20,4,62,1624704223.0,32.000000
-21,5,63,1624704223.0,32.000000
-19,4,63,1624704223.0,32.000000
-16,5,65,1624704223.0,32.000000
-17,4,66,1624704223.0,32.000000
-16,4,68,1624704223.0,32.000000
-14,5,68,1624704223.0,32.000000
-15,8,65,1624704223.0,32.000000
-13,4,67,1624704223.0,32.000000
-20,0,61,1624704223.0,32.000000
-11,8,62,1624704223.0,32.000000
-10,4,62,1624704223.0,32.000000
-5,2,69,1624704223.0,32.000000
-6,-1,70,1624704223.0,32.000000
-11,-4,59,1624704223.0,32.000000
-3,-9,55,1624704223.0,32.000000
6,-9,57,1624704223.0,32.000000
11,-8,56,1624704223.0,32.000000
5,-7,56,1624704223.0,32.000000
6,-8,52,1624704223.0,32.000000
8,-4,58,1624704223.0,32.000000
20,-3,64,1624704223.0,32.000000
29,-7,59,1624704223.0,32.000000
30,-6,61,1624704223.0,32.000000
42,-2,71,1624704223.0,32.000000
39,-5,55,1624704223.0,32.000000
41,-4,54,1624704223.0,32.000000
41,-4,59,1624704223.0,32.000000
41,-4,55,1624704223.0,32.000000
41,-4,50,1624704223.0,32.000000
42,-5,44,1624704223.0,32.000000
41,-4,45,1624704223.0,32.000000
41,-4,48,1624704223.0,32.000000
44,-3,53,1624704223.0,32.000000
36,-3,53,1624704223.0,32.000000
23,-2,57,1624704223.0,32.000000
11,-5,51,1624704223.0,32.000000
-4,-10,50,1624704223.0,32.000000
-20,-11,45,1624704223.0,32.000000
-38,-11,45,1624704223.0,32.000000
-48,-6,42,1624704223.0,32.000000
-54,-5,42,1624704223.0,32.000000
-46,-3,43,1624704223.0,32.000000
-43,-3,44,1624704223.0,32.000000
-39,1,49,1624704223.0,32.000000
-38,3,53,1624704223.0,32.000000
-31,4,52,1624704223.0,32.000000
-17,8,60,1624704223.0,32.000000
-5,8,67,1624704223.0,32.000000
12,6,72,1624704223.0,32.000000
16,4,75,1624704223.0,32.000000
7,4,75,1624704223.0,32.000000
8,6,73,1624704223.0,32.000000
10,10,73,1624704223.0,32.000000
10,10,69,1624704223.0,32.000000
7,5,68,1624704223.0,32.000000
-29,5,57,1624704223.0,32.000000
-22,3,60,1624704223.0,32.000000
-15,3,64,1624704223.0,32.000000
-10,5,67,1624704223.0,32.000000
-11,6,67,1624704223.0,32.000000
-19,8,63,1624704223.0,32.000000
-24,4,59,1624704223.0,32.000000
-20,6,62,1624704223.0,32.000000
-18,5,63,1624704223.0,32.000000
-17,6,63,1624704223.0,32.000000
-18,5,62,1624704223.0,32.000000
-21,6,62,1624704223.0,32.000000
-21,6,62,1624704223.0,32.000000
-22,6,61,1624704223.0,32.000000
-22,6,61,1624704223.0,32.000000
-23,5,61,1624704223.0,32.000000
-23,6,61,1624704223.0,32.000000
-23,6,61,1624704223.0,32.000000
-23,6,61,1624704223.0,32.000000
-23,6,61,1624704223.0,32.000000
-23,6,61,1624704223.0,32.000000
-23,5,61,1624704223.0,32.000000
-22,5,61,1624704223.0,32.000000
-23,6,61,1624704223.0,32.000000
-23,5,61,1624704223.0,32.000000
-24,6,61,1624704223.0,32.000000
-24,6,61,1624704223.0,32.000000
-24,5,61,1624704223.0,32.000000
-24,5,61,1624704223.0,32.000000
-23,5,61,1624704223.0,32.000000
-23,5,62,1624704223.0,32.000000
-23,5,62,1624704223.0,32.000000
-24,5,62,1624704223.0,32.000000
-23,5,61,1624704223.0,32.000000
-23,5,61,1624704223.0,32.000000
-23,4,61,1624704223.0,32.000000
-24,5,61,1624704223.0,32.000000
-26,5,61,1624704223.0,32.000000
-24,5,60,1624704223.0,32.000000
-23,5,60,1624704223.0,32.000000
-24,5,60,1624704223.0,32.000000
-23,5,60,1624704223.0,32.000000
-21,4,61,1624704223.0,32.000000
-21,4,62,1624704223.0,32.000000
-21,4,61,1624704223.0,32.000000
-20,4,61,1624704223.0,32.000000
-20,5,62,1624704223.0,32.000000
-22,5,63,1624704223.0,32.000000
-20,5,61,1624704223.0,32.000000
-21,5,61,1624704223.0,32.000000
-21,6,61,1624704223.0,32.000000
-20,6,61,1624704223.0,32.000000
-19,5,61,1624704223.0,32.000000
-20,5,63,1624704223.0,32.000000
-20,4,63,1624704223.0,32.000000
-20,4,62,1624704223.0,32.000000
-21,4,62,1624704223.0,32.000000
-22,4,62,1624704223.0,32.000000
-22,5,61,1624704223.0,32.000000
-22,5,61,1624704223.0,32.000000
-23,5,61,1624704223.0,32.000000
-23,5,61,1624704223.0,32.000000
-22,4,61,1624704223.0,32.000000
-23,4,61,1624704223.0,32.000000
-22,4,61,1624704223.0,32.000000
-22,4,62,1624704223.0,32.000000
-22,5,61,1624704223.0,32.000000
-23,5,61,1624704223.0,32.000000
-23,4,61,1624704223.0,32.000000
-23,4,61,1624704223.0,32.000000
-23,4,61,1624704223.0,32.000000
-23,4,61,1624704223.0,32.000000
-24,5,61,1624704223.0,32.000000
-24,5,61,1624704223.0,32.000000
-24,4,61,1624704223.0,32.000000
-24,4,61,1624704223.0,32.000000
-24,4,61,1624704223.0,32.000000
-24,4,61,1624704223.0,32.000000
-24,4,61,1624704223.0,32.000000
-24,4,61,1624704223.0,32.000000
-24,5,61,1624704223.0,32.000000
-24,4,61,1624704223.0,32.000000
-24,4,61,1624704223.0,32.000000
-24,4,61,1624704223.0,32.000000
-24,4,61,1624704223.0,32.000000
-24,4,61,1624704223.0,32.000000
-24,5,61,1624704223.0,32.000000
-24,4,61,1624704223.0,32.000000
-24,4,61,1624704223.0,32.000000
-24,4,61,1624704223.0,32.000000
-24,4,61,1624704223.0,32.000000
-24,5,61,1624704223.0,32.000000
-24,4,60,1624704223.0,32.000000
-24,5,60,1624704223.0,32.000000
-23,4,61,1624704223.0,32.000000
-24,3,61,1624704223.0,32.000000
-24,3,61,1624704223.0,32.000000
-24,4,61,1624704223.0,32.000000
-25,5,60,1624704223.0,32.000000
-25,5,60,1624704223.0,32.000000
-25,4,60,1624704223.0,32.000000
-24,4,61,1624704223.0,32.000000
-23,4,61,1624704223.0,32.000000
-23,4,62,1624704223.0,32.000000
-23,3,62,1624704223.0,32.000000
-24,4,61,1624704223.0,32.000000
-25,3,59,1624704223.0,32.000000
-25,5,60,1624704223.0,32.000000
-25,4,61,1624704223.0,32.000000
-25,3,61,1624704223.0,32.000000
-26,4,60,1624704223.0,32.000000
-27,5,60,1624704223.0,32.000000
-27,3,60,1624704223.0,32.000000
-28,3,60,1624704223.0,32.000000
-27,4,59,1624704223.0,32.000000
-28,5,59,1624704223.0,32.000000
-26,6,58,1624704223.0,32.000000
-26,6,59,1624704223.0,32.000000
-25,6,59,1624704223.0,32.000000
-24,4,61,1624704223.0,32.000000
-24,3,61,1624704223.0,32.000000
-22,2,62,1624704223.0,32.000000
-21,3,63,1624704223.0,32.000000
-21,3,62,1624704223.0,32.000000
-24,4,61,1624704223.0,32.000000
-24,4,61,1624704223.0,32.000000
-25,5,60,1624704223.0,32.000000
-27,5,61,1624704223.0,32.000000
-31,5,62,1624704223.0,32.000000
-43,9,64,1624704223.0,32.000000
-34,14,72,1624704223.0,32.000000
-11,34,76,1624704223.0,32.000000
3,38,77,1624704223.0,32.000000
-8,29,61,1624704223.0,32.000000
-21,14,60,1624704223.0,32.000000
-24,9,69,1624704223.0,32.000000
-32,2,67,1624704223.0,32.000000
-41,-15,46,1624704223.0,32.000000
-38,-20,42,1624704223.0,32.000000
-35,-20,38,1624704223.0,32.000000
-36,-18,34,1624704223.0,32.000000
-25,-11,36,1624704223.0,32.000000
-8,-2,37,1624704223.0,32.000000
-7,4,38,1624704223.0,32.000000
-23,8,43,1624704223.0,32.000000
-12,9,45,1624704223.0,32.000000
-31,16,47,1624704223.0,32.000000
-14,30,60,1624704223.0,32.000000
-6,27,57,1624704223.0,32.000000
-30,45,64,1624704223.0,32.000000
-24,48,61,1624704223.0,32.000000
-71,37,28,1624704223.0,32.000000
-73,41,23,1624704223.0,32.000000
-63,38,9,1624704223.0,32.000000
-91,39,-5,1624704223.0,32.000000
-76,43,6,1624704223.0,32.000000
-55,38,16,1624704223.0,32.000000
-52,37,11,1624704223.0,32.000000
-48,34,11,1624704223.0,32.000000
-61,34,6,1624704223.0,32.000000
-64,33,0,1624704223.0,32.000000
-67,38,14,1624704223.0,32.000000
-63,38,20,1624704223.0,32.000000
-40,31,26,1624704223.0,32.000000
-41,27,27,1624704223.0,32.000000
-47,30,22,1624704223.0,32.000000
-43,39,15,1624704223.0,32.000000
-56,38,12,1624704223.0,32.000000
-70,47,-3,1624704223.0,32.000000
-69,42,-7,1624704223.0,32.000000
-53,36,25,1624704223.0,32.000000
-72,43,-7,1624704223.0,32.000000
-66,43,-9,1624704223.0,32.000000
-63,44,-7,1624704223.0,32.000000
-51,42,-2,1624704223.0,32.000000
-42,43,0,1624704223.0,32.000000
-45,43,19,1624704223.0,32.000000
-40,43,28,1624704223.0,32.000000
-25,31,41,1624704223.0,32.000000
-18,40,46,1624704223.0,32.000000
-15,36,47,1624704223.0,32.000000
-27,28,32,1624704223.0,32.000000
-37,25,24,1624704223.0,32.000000
-53,31,22,1624704223.0,32.000000
-76,37,23,1624704223.0,32.000000
-49,39,34,1624704223.0,32.000000
-32,40,42,1624704223.0,32.000000
-37,42,37,1624704223.0,32.000000
-37,41,33,1624704223.0,32.000000
-35,41,34,1624704223.0,32.000000
-38,49,40,1624704223.0,32.000000
-35,49,39,1624704223.0,32.000000
-39,51,35,1624704223.0,32.000000
-49,49,22,1624704223.0,32.000000
-41,51,25,1624704223.0,32.000000
-26,52,36,1624704223.0,32.000000
-26,48,27,1624704223.0,32.000000
-41,46,20,1624704223.0,32.000000
-35,43,40,1624704223.0,32.000000
-41,43,38,1624704223.0,32.000000
-40,39,37,1624704223.0,32.000000
-45,41,39,1624704223.0,32.000000
-47,44,39,1624704223.0,32.000000
-47,43,27,1624704223.0,32.000000
-47,43,26,1624704223.0,32.000000
-37,42,26,1624704223.0,32.000000
-42,40,23,1624704223.0,32.000000
-42,40,27,1624704223.0,32.000000
-42,38,32,1624704223.0,32.000000
-50,37,26,1624704223.0,32.000000
-52,37,26,1624704223.0,32.000000
-47,33,18,1624704223.0,32.000000
-45,30,17,1624704223.0,32.000000
-41,33,15,1624704223.0,32.000000
-44,36,10,1624704223.0,32.000000
-44,39,12,1624704223.0,32.000000
-44,42,11,1624704223.0,32.000000
-53,47,8,1624704223.0,32.000000
-57,53,1,1624704223.0,32.000000
-51,54,3,1624704223.0,32.000000
-47,53,14,1624704223.0,32.000000
-48,45,19,1624704223.0,32.000000
-52,41,24,1624704223.0,32.000000
-51,37,18,1624704223.0,32.000000
-46,38,19,1624704223.0,32.000000
-44,42,18,1624704223.0,32.000000
-52,39,13,1624704223.0,32.000000
-46,43,19,1624704223.0,32.000000
-43,43,29,1624704223.0,32.000000
-42,44,31,1624704223.0,32.000000
-43,42,23,1624704223.0,32.000000
-44,41,23,1624704223.0,32.000000
-44,41,30,1624704223.0,32.000000
-47,40,26,1624704223.0,32.000000
-47,41,25,1624704223.0,32.000000
-46,41,23,1624704223.0,32.000000
-46,41,23,1624704223.0,32.000000
-46,41,22,1624704223.0,32.000000
-45,42,21,1624704223.0,32.000000
-45,42,20,1624704223.0,32.000000
-46,43,20,1624704223.0,32.000000
-45,43,20,1624704223.0,32.000000
-45,44,22,1624704223.0,32.000000
-44,44,22,1624704223.0,32.000000
-44,44,21,1624704223.0,32.000000
-44,44,20,1624704223.0,32.000000
-44,44,21,1624704223.0,32.000000
-44,44,22,1624704223.0,32.000000
-43,44,21,1624704223.0,32.000000
-43,44,20,1624704223.0,32.000000
-44,44,21,1624704223.0,32.000000
-45,44,21,1624704223.0,32.000000
-45,44,22,1624704223.0,32.000000
-44,44,21,1624704223.0,32.000000
-44,44,20,1624704223.0,32.000000
-44,44,20,1624704223.0,32.000000
-45,44,20,1624704223.0,32.000000
-45,43,21,1624704223.0,32.000000
-45,44,21,1624704223.0,32.000000
-45,43,22,1624704223.0,32.000000
-44,43,22,1624704223.0,32.000000
-45,43,22,1624704223.0,32.000000
-45,43,21,1624704223.0,32.000000
-45,43,22,1624704223.0,32.000000
-45,43,22,1624704223.0,32.000000
-45,43,22,1624704223.0,32.000000
-45,43,22,1624704223.0,32.000000
-45,43,22,1624704223.0,32.000000
-45,43,22,1624704223.0,32.000000
-45,43,22,1624704223.0,32.000000
-45,43,22,1624704223.0,32.000000
-45,43,22,1624704223.0,32.000000
-45,43,22,1624704223.0,32.000000
-45,43,22,1624704223.0,32.000000
-45,43,22,1624704223.0,32.000000
-44,43,22,1624704223.0,32.000000
-45,43,22,1624704223.0,32.000000
-45,43,22,1624704223.0,32.000000
-45,43,21,1624704223.0,32.000000
-45,43,22,1624704223.0,32.000000
-45,43,22,1624704223.0,32.000000
-45,43,22,1624704223.0,32.000000
-45,43,21,1624704223.0,32.000000
-45,43,22,1624704223.0,32.000000
-45,43,22,1624704223.0,32.000000
-44,43,21,1624704223.0,32.000000
-44,43,22,1624704223.0,32.000000
-45,43,22,1624704223.0,32.000000
-45,43,22,1624704223.0,32.000000
-45,43,22,1624704223.0,32.000000
-45,43,22,1624704223.0,32.000000
-45,43,22,1624704223.0,32.000000
-45,43,22,1624704223.0,32.000000
-45,43,22,1624704223.0,32.000000
-45,43,22,1624704223.0,32.000000
-45,43,22,1624704223.0,32.000000
-45,43,22,1624704223.0,32.000000
-45,43,22,1624704223.0,32.000000
-45,43,22,1624704223.0,32.000000
-45,43,22,1624704223.0,32.000000
-45,43,22,1624704223.0,32.000000
-45,43,22,1624704223.0,32.000000
-45,43,22,1624704223.0,32.000000
-45,43,22,1624704223.0,32.000000
-45,43,22,1624704223.0,32.000000
-45,43,22,1624704223.0,32.000000
-45,43,22,1624704223.0,32.000000
-45,43,21,1624704223.0,32.000000
-45,43,22,1624704223.0,32.000000
-45,43,21,1624704223.0,32.000000
-45,43,21,1624704223.0,32.000000
-45,43,21,1624704223.0,32.000000
-45,43,22,1624704223.0,32.000000
-45,43,22,1624704223.0,32.000000
-45,43,22,1624704223.0,32.000000
-45,43,21,1624704223.0,32.000000
-45,43,22,1624704223.0,32.000000
-45,43,22,1624704223.0,32.000000
-45,43,22,1624704223.0,32.000000
-45,43,22,1624704223.0,32.000000
-45,43,22,1624704223.0,32.000000
-46,43,21,1624704223.0,32.000000
-45,43,22,1624704223.0,32.000000
-45,42,21,1624704223.0,32.000000
-46,43,22,1624704223.0,32.000000
-45,43,22,1624704223.0,32.000000
-45,43,21,1624704223.0,32.000000
-45,43,22,1624704223.0,32.000000
-45,43,21,1624704223.0,32.000000
-45,43,22,1624704223.0,32.000000
-45,43,22,1624704223.0,32.000000
-46,42,21,1624704223.0,32.000000
-45,42,21,1624704223.0,32.000000
-45,42,21,1624704223.0,32.000000
-45,43,22,1624704223.0,32.000000
-45,43,21,1624704223.0,32.000000
-45,42,22,1624704223.0,32.000000
-45,42,22,1624704223.0,32.000000
-45,42,22,1624704223.0,32.000000
-45,42,22,1624704223.0,32.000000
-45,42,22,1624704223.0,32.000000
-45,43,22,1624704223.0,32.000000
-45,42,22,1624704223.0,32.000000
-45,43,22,1624704223.0,32.000000
-45,43,22,1624704223.0,32.000000
-45,43,22,1624704223.0,32.000000
-45,42,22,1624704223.0,32.000000
-45,42,22,1624704223.0,32.000000
-45,42,22,1624704223.0,32.000000
-45,42,22,1624704223.0,32.000000
-45,43,22,1624704223.0,32.000000
-45,42,22,1624704223.0,32.000000
-45,43,22,1624704223.0,32.000000
-45,42,22,1624704223.0,32.000000
-45,43,22,1624704223.0,32.000000
-45,43,22,1624704223.0,32.000000
-45,42,22,1624704223.0,32.000000
-45,42,22,1624704223.0,32.000000
-45,42,22,1624704223.0,32.000000
-46,43,22,1624704223.0,32.000000
-45,42,22,1624704223.0,32.000000
-45,43,22,1624704223.0,32.000000
-45,42,22,1624704223.0,32.000000
-45,42,22,1624704223.0,32.000000
-45,42,22,1624704223.0,32.000000
-45,43,22,1624704223.0,32.000000
-45,43,22,1624704223.0,32.000000
-45,42,22,1624704223.0,32.000000
-45,42,22,1624704223.0,32.000000
-45,42,22,1624704223.0,32.000000
-45,43,22,1624704223.0,32.000000
-45,43,22,1624704223.0,32.000000
-45,42,22,1624704223.0,32.000000
-45,42,22,1624704223.0,32.000000
-46,43,22,1624704223.0,32.000000
-45,43,22,1624704223.0,32.000000
-45,43,22,1624704223.0,32.000000
-45,43,22,1624704223.0,32.000000
-45,42,22,1624704223.0,32.000000
-45,43,22,1624704223.0,32.000000
-45,43,21,1624704223.0,32.000000
-45,43,22,1624704223.0,32.000000
-45,43,22,1624704223.0,32.000000
-45,43,22,1624704223.0,32.000000
-45,43,22,1624704223.0,32.000000
-45,43,21,1624704223.0,32.000000
-45,43,21,1624704223.0,32.000000
-45,43,21,1624704223.0,32.000000
-45,43,21,1624704223.0,32.000000
-45,43,21,1624704223.0,32.000000
-45,43,21,1624704223.0,32.000000
-45,43,22,1624704223.0,32.000000
-45,43,22,1624704223.0,32.000000
-45,43,21,1624704223.0,32.000000
-45,43,21,1624704223.0,32.000000
-45,43,21,1624704223.0,32.000000
-45,43,21,1624704223.0,32.000000
-45,43,21,1624704223.0,32.000000
-45,43,21,1624704223.0,32.000000
-45,43,21,1624704223.0,32.000000
-45,43,21,1624704223.0,32.000000
-45,43,21,1624704223.0,32.000000
-45,43,21,1624704223.0,32.000000
-45,43,21,1624704223.0,32.000000
-45,43,21,1624704223.0,32.000000
-45,43,21,1624704223.0,32.000000
-45,43,22,1624704223.0,32.000000
-45,43,22,1624704223.0,32.000000
-45,43,21,1624704223.0,32.000000
-45,43,21,1624704223.0,32.000000
-45,43,21,1624704223.0,32.000000
-45,43,21,1624704223.0,32.000000
-45,43,21,1624704223.0,32.000000
-45,43,21,1624704223.0,32.000000
-45,43,22,1624704223.0,32.000000
-45,43,21,1624704223.0,32.000000
-45,42,21,1624704223.0,32.000000
-45,43,21,1624704223.0,32.000000
-45,43,22,1624704223.0,32.000000
-45,43,22,1624704223.0,32.000000
-45,43,22,1624704223.0,32.000000
-45,42,21,1624704223.0,32.000000
-45,43,21,1624704223.0,32.000000
-45,43,22,1624704223.0,32.000000
-45,43,21,1624704223.0,32.000000
-45,43,22,1624704223.0,32.000000
-45,43,22,1624704223.0,32.000000
-45,42,21,1624704223.0,32.000000
-46,43,22,1624704223.0,32.000000
-45,43,22,1624704223.0,32.000000
-45,42,22,1624704223.0,32.000000
-45,43,22,1624704223.0,32.000000
-45,43,22,1624704223.0,32.000000
-45,43,22,1624704223.0,32.000000
-45,42,21,1624704223.0,32.000000
-46,42,22,1624704223.0,32.000000
-45,43,22,1624704223.0,32.000000
-45,42,22,1624704223.0,32.000000
-45,42,22,1624704223.0,32.000000
-45,43,22,1624704223.0,32.000000
-45,43,22,1624704223.0,32.000000
-45,42,22,1624704223.0,32.000000
-45,42,22,1624704223.0,32.000000
-45,43,22,1624704223.0,32.000000
-45,42,22,1624704223.0,32.000000
-45,42,22,1624704223.0,32.000000
-45,42,22,1624704223.0,32.000000
-45,43,22,1624704223.0,32.000000
-45,42,22,1624704223.0,32.000000
-45,42,21,1624704223.0,32.000000
-45,42,22,1624704223.0,32.000000
-45,43,22,1624704223.0,32.000000
-45,42,22,1624704223.0,32.000000
-45,42,22,1624704223.0,32.000000
-46,42,21,1624704223.0,32.000000
-45,43,22,1624704223.0,32.000000
-45,43,21,1624704223.0,32.000000
-45,43,22,1624704223.0,32.000000
-45,43,22,1624704223.0,32.000000
-45,43,21,1624704223.0,32.000000
-45,43,21,1624704223.0,32.000000
-45,43,21,1624704223.0,32.000000
-45,43,21,1624704223.0,32.000000
-45,43,21,1624704223.0,32.000000
-45,43,22,1624704223.0,32.000000
-45,42,22,1624704223.0,32.000000
-45,43,22,1624704223.0,32.000000
-45,42,22,1624704223.0,32.000000
-46,42,22,1624704223.0,32.000000
-45,42,22,1624704223.0,32.000000
-46,43,21,1624704223.0,32.000000
-45,42,21,1624704223.0,32.000000
-45,42,21,1624704223.0,32.000000
-46,42,22,1624704223.0,32.000000
-45,42,21,1624704223.0,32.000000
-45,43,22,1624704223.0,32.000000
-45,43,22,1624704223.0,32.000000
-45,43,21,1624704223.0,32.000000
-45,43,21,1624704223.0,32.000000
-45,43,21,1624704223.0,32.000000
-45,43,21,1624704223.0,32.000000
-46,42,21,1624704223.0,32.000000
-45,43,20,1624704223.0,32.000000
-46,43,20,1624704223.0,32.000000
-46,44,21,1624704223.0,32.000000
-46,45,22,1624704223.0,32.000000
-45,44,21,1624704223.0,32.000000
-45,44,20,1624704223.0,32.000000
-46,43,19,1624704223.0,32.000000
-46,43,19,1624704223.0,32.000000
-42,44,22,1624704223.0,32.000000
-42,44,22,1624704223.0,32.000000
-44,43,22,1624704223.0,32.000000
-43,43,22,1624704223.0,32.000000
-49,40,25,1624704223.0,32.000000
-44,41,28,1624704223.0,32.000000
-41,40,29,1624704223.0,32.000000
-45,39,26,1624704223.0,32.000000
-47,37,23,1624704223.0,32.000000
-48,33,26,1624704223.0,32.000000
-42,31,32,1624704223.0,32.000000
-40,30,34,1624704223.0,32.000000
-51,35,30,1624704223.0,32.000000
-49,40,31,1624704223.0,32.000000
-43,41,34,1624704223.0,32.000000
-43,41,35,1624704223.0,32.000000
-43,40,34,1624704223.0,32.000000
-43,40,35,1624704223.0,32.000000
-45,40,36,1624704223.0,32.000000
-45,42,39,1624704223.0,32.000000
-41,40,38,1624704223.0,32.000000
-45,39,39,1624704223.0,32.000000
-39,36,39,1624704223.0,32.000000
-36,32,37,1624704223.0,32.000000
-37,30,36,1624704223.0,32.000000
-38,33,38,1624704223.0,32.000000
-39,33,40,1624704223.0,32.000000
-37,36,45,1624704223.0,32.000000
-39,38,46,1624704223.0,32.000000
-38,41,49,1624704223.0,32.000000
-38,43,51,1624704223.0,32.000000
-34,46,57,1624704223.0,32.000000
-26,43,58,1624704223.0,32.000000
-26,41,58,1624704223.0,32.000000
-27,41,62,1624704223.0,32.000000
-19,38,59,1624704223.0,32.000000
-20,31,52,1624704223.0,32.000000
-14,27,56,1624704223.0,32.000000
-18,22,54,1624704223.0,32.000000
-27,20,51,1624704223.0,32.000000
-29,22,54,1624704223.0,32.000000
-20,18,57,1624704223.0,32.000000
-20,20,63,1624704223.0,32.000000
-22,17,65,1624704223.0,32.000000
-20,16,69,1624704223.0,32.000000
-22,18,69,1624704223.0,32.000000
-28,3,58,1624704223.0,32.000000
-37,-4,47,1624704223.0,32.000000
-37,-9,45,1624704223.0,32.000000
-31,-13,47,1624704223.0,32.000000
-29,-16,46,1624704223.0,32.000000
-24,-19,46,1624704223.0,32.000000
-31,-21,51,1624704223.0,32.000000
-41,-20,51,1624704223.0,32.000000
-24,-20,56,1624704223.0,32.000000
-14,-21,60,1624704223.0,32.000000
-17,-21,63,1624704223.0,32.000000
-13,-20,63,1624704223.0,32.000000
-7,-21,62,1624704223.0,32.000000
-6,-24,58,1624704223.0,32.000000
3,-25,59,1624704223.0,32.000000
15,-25,56,1624704223.0,32.000000
-4,-35,35,1624704223.0,32.000000
-12,-42,29,1624704223.0,32.000000
2,-48,32,1624704223.0,32.000000
3,-47,30,1624704223.0,32.000000
18,-45,38,1624704223.0,32.000000
18,-44,38,1624704223.0,32.000000
13,-47,37,1624704223.0,32.000000
8,-48,44,1624704223.0,32.000000
-3,-47,40,1624704223.0,32.000000
-18,-75,23,1624704223.0,32.000000
2,-40,33,1624704223.0,32.000000
-1,-59,24,1624704223.0,32.000000
-2,-49,29,1624704223.0,32.000000
-4,-45,32,1624704223.0,32.000000
-20,-55,33,1624704223.0,32.000000
-21,-53,34,1624704223.0,32.000000
-25,-51,30,1624704223.0,32.000000
-22,-53,24,1624704223.0,32.000000
-20,-51,28,1624704223.0,32.000000
-30,-49,36,1624704223.0,32.000000
-37,-50,38,1624704223.0,32.000000
-24,-51,35,1624704223.0,32.000000
-20,-45,37,1624704223.0,32.000000
-25,-48,30,1624704223.0,32.000000
-32,-48,36,1624704223.0,32.000000
-26,-45,39,1624704223.0,32.000000
-35,-51,28,1624704223.0,32.000000
-27,-45,37,1624704223.0,32.000000
-26,-48,34,1624704223.0,32.000000
-23,-49,33,1624704223.0,32.000000
-25,-46,37,1624704223.0,32.000000
-36,-48,28,1624704223.0,32.000000
-32,-47,35,1624704223.0,32.000000
-29,-48,33,1624704223.0,32.000000
-16,-50,30,1624704223.0,32.000000
-28,-47,39,1624704223.0,32.000000
-30,-45,37,1624704223.0,32.000000
-30,-47,33,1624704223.0,32.000000
-29,-49,33,1624704223.0,32.000000
-27,-48,35,1624704223.0,32.000000
-20,-46,37,1624704223.0,32.000000
-27,-45,39,1624704223.0,32.000000
-32,-46,39,1624704223.0,32.000000
-33,-46,35,1624704223.0,32.000000
-37,-45,30,1624704223.0,32.000000
-33,-47,31,1624704223.0,32.000000
-33,-50,19,1624704223.0,32.000000
-42,-51,11,1624704223.0,32.000000
-40,-51,11,1624704223.0,32.000000
-40,-48,17,1624704223.0,32.000000
-31,-51,21,1624704223.0,32.000000
-26,-51,19,1624704223.0,32.000000
-32,-52,18,1624704223.0,32.000000
-30,-51,19,1624704223.0,32.000000
-35,-50,19,1624704223.0,32.000000
-37,-50,19,1624704223.0,32.000000
-34,-50,18,1624704223.0,32.000000
-34,-48,19,1624704223.0,32.000000
-33,-50,25,1624704223.0,32.000000
-32,-50,25,1624704223.0,32.000000
-25,-48,31,1624704223.0,32.000000
-25,-47,39,1624704223.0,32.000000
-22,-48,38,1624704223.0,32.000000
-33,-49,22,1624704223.0,32.000000
-36,-48,26,1624704223.0,32.000000
-30,-46,36,1624704223.0,32.000000
-37,-44,33,1624704223.0,32.000000
-39,-46,28,1624704223.0,32.000000
-33,-47,28,1624704223.0,32.000000
-33,-47,27,1624704223.0,32.000000
-33,-48,26,1624704223.0,32.000000
-35,-48,25,1624704223.0,32.000000
-37,-46,28,1624704223.0,32.000000
-33,-48,30,1624704223.0,32.000000
-33,-47,28,1624704223.0,32.000000
-33,-47,29,1624704223.0,32.000000
-34,-47,30,1624704223.0,32.000000
-32,-47,29,1624704223.0,32.000000
-34,-47,26,1624704223.0,32.000000
-34,-48,27,1624704223.0,32.000000
-35,-48,27,1624704223.0,32.000000
-38,-47,23,1624704223.0,32.000000
-38,-47,24,1624704223.0,32.000000
-35,-46,26,1624704223.0,32.000000
-34,-47,26,1624704223.0,32.000000
-33,-47,26,1624704223.0,32.000000
-34,-48,23,1624704223.0,32.000000
-35,-48,23,1624704223.0,32.000000
-38,-47,25,1624704223.0,32.000000
-39,-46,24,1624704223.0,32.000000
-40,-46,24,1624704223.0,32.000000
-37,-48,24,1624704223.0,32.000000
-36,-48,22,1624704223.0,32.000000
-34,-49,21,1624704223.0,32.000000
-36,-49,23,1624704223.0,32.000000
-40,-46,23,1624704223.0,32.000000
-39,-45,26,1624704223.0,32.000000
-37,-47,26,1624704223.0,32.000000
-39,-47,22,1624704223.0,32.000000
-38,-48,24,1624704223.0,32.000000
-33,-48,25,1624704223.0,32.000000
-32,-48,28,1624704223.0,32.000000
-32,-47,27,1624704223.0,32.000000
-33,-48,27,1624704223.0,32.000000
-32,-48,27,1624704223.0,32.000000
-33,-48,28,1624704223.0,32.000000
-31,-48,28,1624704223.0,32.000000
-31,-48,28,1624704223.0,32.000000
-32,-47,29,1624704223.0,32.000000
-33,-47,29,1624704223.0,32.000000
-32,-48,29,1624704223.0,32.000000
-31,-48,28,1624704223.0,32.000000
-31,-49,29,1624704223.0,32.000000
-31,-48,28,1624704223.0,32.000000
-32,-48,29,1624704223.0,32.000000
-34,-47,29,1624704223.0,32.000000
-35,-47,29,1624704223.0,32.000000
-34,-47,28,1624704223.0,32.000000
-34,-47,28,1624704223.0,32.000000
-34,-47,28,1624704223.0,32.000000
-34,-48,27,1624704223.0,32.000000
-34,-47,28,1624704223.0,32.000000
-33,-47,28,1624704223.0,32.000000
-34,-48,28,1624704223.0,32.000000
-34,-48,27,1624704223.0,32.000000
-34,-48,27,1624704223.0,32.000000
-33,-48,27,1624704223.0,32.000000
-34,-48,27,1624704223.0,32.000000
-34,-47,27,1624704223.0,32.000000
-34,-47,27,1624704223.0,32.000000
-33,-48,27,1624704223.0,32.000000
-34,-47,26,1624704223.0,32.000000
-34,-47,27,1624704223.0,32.000000
-35,-47,27,1624704223.0,32.000000
-36,-47,27,1624704223.0,32.000000
-36,-46,26,1624704223.0,32.000000
-32,-48,28,1624704223.0,32.000000
-32,-49,28,1624704223.0,32.000000
-34,-48,26,1624704223.0,32.000000
-33,-48,29,1624704223.0,32.000000
-34,-47,32,1624704223.0,32.000000
-35,-46,30,1624704223.0,32.000000
-34,-47,31,1624704223.0,32.000000
-31,-46,31,1624704223.0,32.000000
-31,-45,30,1624704223.0,32.000000
-21,-49,35,1624704223.0,32.000000
-21,-48,38,1624704223.0,32.000000
-18,-47,42,1624704223.0,32.000000
-21,-47,42,1624704223.0,32.000000
-18,-47,45,1624704223.0,32.000000
-29,-40,41,1624704223.0,32.000000
-28,-42,39,1624704223.0,32.000000
-22,-47,38,1624704223.0,32.000000
-24,-52,29,1624704223.0,32.000000
-24,-53,28,1624704223.0,32.000000
-20,-50,29,1624704223.0,32.000000
-17,-51,29,1624704223.0,32.000000
-18,-50,33,1624704223.0,32.000000
-10,-51,40,1624704223.0,32.000000
-8,-51,38,1624704223.0,32.000000
-13,-49,37,1624704223.0,32.000000
-10,-51,36,1624704223.0,32.000000
-15,-47,42,1624704223.0,32.000000
-18,-47,44,1624704223.0,32.000000
-20,-47,41,1624704223.0,32.000000
-18,-49,36,1624704223.0,32.000000
-18,-49,35,1624704223.0,32.000000
-17,-49,36,1624704223.0,32.000000
-16,-48,38,1624704223.0,32.000000
-16,-47,40,1624704223.0,32.000000
-15,-46,44,1624704223.0,32.000000
-16,-46,44,1624704223.0,32.000000
-18,-47,40,1624704223.0,32.000000
-16,-47,40,1624704223.0,32.000000
-16,-47,40,1624704223.0,32.000000
-16,-46,41,1624704223.0,32.000000
-15,-46,43,1624704223.0,32.000000
-16,-47,42,1624704223.0,32.000000
-16,-47,40,1624704223.0,32.000000
-16,-47,39,1624704223.0,32.000000
-13,-46,42,1624704223.0,32.000000
-12,-46,43,1624704223.0,32.000000
-14,-47,40,1624704223.0,32.000000
-15,-47,40,1624704223.0,32.000000
-15,-47,41,1624704223.0,32.000000
-14,-46,43,1624704223.0,32.000000
-13,-46,43,1624704223.0,32.000000
-13,-47,41,1624704223.0,32.000000
-13,-47,42,1624704223.0,32.000000
-13,-47,42,1624704223.0,32.000000
-13,-47,41,1624704223.0,32.000000
-13,-47,41,1624704223.0,32.000000
-14,-47,41,1624704223.0,32.000000
-13,-47,41,1624704223.0,32.000000
-13,-47,42,1624704223.0,32.000000
-13,-47,41,1624704223.0,32.000000
-13,-47,41,1624704223.0,32.000000
-13,-47,41,1624704223.0,32.000000
-14,-47,41,1624704223.0,32.000000
-13,-47,42,1624704223.0,32.000000
-14,-47,41,1624704223.0,32.000000
-14,-47,41,1624704223.0,32.000000
-13,-47,41,1624704223.0,32.000000
-13,-47,41,1624704223.0,32.000000
-13,-47,41,1624704223.0,32.000000
-14,-47,42,1624704223.0,32.000000
-14,-47,43,1624704223.0,32.000000
-13,-46,45,1624704223.0,32.000000
-13,-47,46,1624704223.0,32.000000
-8,-46,48,1624704223.0,32.000000
-7,-49,41,1624704223.0,32.000000
-7,-44,41,1624704223.0,32.000000
-22,-43,38,1624704223.0,32.000000
-22,-55,34,1624704223.0,32.000000
-9,-49,35,1624704223.0,32.000000
-12,-51,31,1624704223.0,32.000000
-15,-53,31,1624704223.0,32.000000
-17,-53,28,1624704223.0,32.000000
-16,-53,30,1624704223.0,32.000000
-13,-51,34,1624704223.0,32.000000
-16,-51,34,1624704223.0,32.000000
-16,-50,34,1624704223.0,32.000000
-17,-49,38,1624704223.0,32.000000
-11,-49,42,1624704223.0,32.000000
-15,-49,40,1624704223.0,32.000000
-18,-50,37,1624704223.0,32.000000
-23,-50,31,1624704223.0,32.000000
-19,-50,37,1624704223.0,32.000000
-17,-50,38,1624704223.0,32.000000
-16,-50,36,1624704223.0,32.000000
-18,-50,35,1624704223.0,32.000000
-21,-51,32,1624704223.0,32.000000
-17,-50,34,1624704223.0,32.000000
-16,-50,36,1624704223.0,32.000000
-15,-49,40,1624704223.0,32.000000
-14,-47,39,1624704223.0,32.000000
-10,-48,43,1624704223.0,32.000000
-5,-47,44,1624704223.0,32.000000
-6,-47,44,1624704223.0,32.000000
-6,-48,43,1624704223.0,32.000000
-5,-48,44,1624704223.0,32.000000
-5,-48,41,1624704223.0,32.000000
-7,-49,39,1624704223.0,32.000000
-6,-49,39,1624704223.0,32.000000
-6,-48,41,1624704223.0,32.000000
-6,-48,40,1624704223.0,32.000000
-5,-48,40,1624704223.0,32.000000
-6,-48,42,1624704223.0,32.000000
-6,-49,41,1624704223.0,32.000000
-5,-48,43,1624704223.0,32.000000
-5,-47,44,1624704223.0,32.000000
-7,-47,43,1624704223.0,32.000000
-6,-47,44,1624704223.0,32.000000
-6,-47,44,1624704223.0,32.000000
-7,-47,41,1624704223.0,32.000000
-6,-47,43,1624704223.0,32.000000
-5,-46,46,1624704223.0,32.000000
-5,-46,45,1624704223.0,32.000000
-1,-48,39,1624704223.0,32.000000
-3,-48,41,1624704223.0,32.000000
-3,-48,44,1624704223.0,32.000000
-5,-47,45,1624704223.0,32.000000
-6,-48,45,1624704223.0,32.000000
-5,-50,41,1624704223.0,32.000000
-3,-48,42,1624704223.0,32.000000
-1,-46,42,1624704223.0,32.000000
3,-47,45,1624704223.0,32.000000
-1,-49,42,1624704223.0,32.000000
-6,-52,38,1624704223.0,32.000000
-6,-51,42,1624704223.0,32.000000
-4,-51,39,1624704223.0,32.000000
-7,-51,33,1624704223.0,32.000000
-8,-53,32,1624704223.0,32.000000
-6,-53,30,1624704223.0,32.000000
-6,-54,31,1624704223.0,32.000000
-3,-54,31,1624704223.0,32.000000
-6,-54,32,1624704223.0,32.000000
-6,-53,33,1624704223.0,32.000000
-3,-52,33,1624704223.0,32.000000
-3,-53,32,1624704223.0,32.000000
-3,-53,32,1624704223.0,32.000000
-4,-53,33,1624704223.0,32.000000
-6,-53,35,1624704223.0,32.000000
-3,-53,38,1624704223.0,32.000000
-1,-52,38,1624704223.0,32.000000
-3,-52,37,1624704223.0,32.000000
-3,-52,35,1624704223.0,32.000000
-3,-53,35,1624704223.0,32.000000
-2,-53,34,1624704223.0,32.000000
-4,-53,34,1624704223.0,32.000000
-4,-52,35,1624704223.0,32.000000
-4,-52,37,1624704223.0,32.000000
-3,-52,38,1624704223.0,32.000000
-1,-52,37,1624704223.0,32.000000
-1,-53,34,1624704223.0,32.000000
-1,-54,33,1624704223.0,32.000000
-2,-54,33,1624704223.0,32.000000
-3,-53,33,1624704223.0,32.000000
-5,-52,36,1624704223.0,32.000000
-4,-51,38,1624704223.0,32.000000
-2,-52,37,1624704223.0,32.000000
0,-53,36,1624704223.0,32.000000
-1,-54,35,1624704223.0,32.000000
-4,-53,33,1624704223.0,32.000000
-3,-52,34,1624704223.0,32.000000
-1,-50,37,1624704223.0,32.000000
-1,-52,37,1624704223.0,32.000000
-1,-52,37,1624704223.0,32.000000
0,-53,36,1624704223.0,32.000000
0,-53,35,1624704223.0,32.000000
0,-53,35,1624704223.0,32.000000
-1,-52,37,1624704223.0,32.000000
0,-51,38,1624704223.0,32.000000
-3,-52,36,1624704223.0,32.000000
-1,-52,36,1624704223.0,32.000000
-2,-53,35,1624704223.0,32.000000
-2,-53,33,1624704223.0,32.000000
-2,-52,34,1624704223.0,32.000000
-3,-52,35,1624704223.0,32.000000
-4,-52,36,1624704223.0,32.000000
-5,-51,38,1624704223.0,32.000000
-2,-52,40,1624704223.0,32.000000
-3,-51,38,1624704223.0,32.000000
-4,-52,35,1624704223.0,32.000000
-2,-52,35,1624704223.0,32.000000
1,-52,36,1624704223.0,32.000000
1,-52,34,1624704223.0,32.000000
0,-53,34,1624704223.0,32.000000
-2,-52,35,1624704223.0,32.000000
-3,-52,36,1624704223.0,32.000000
-3,-52,37,1624704223.0,32.000000
-2,-52,37,1624704223.0,32.000000
-1,-52,37,1624704223.0,32.000000
-1,-52,37,1624704223.0,32.000000
-1,-52,37,1624704223.0,32.000000
-1,-52,36,1624704223.0,32.000000
-1,-52,37,1624704223.0,32.000000
-1,-52,36,1624704223.0,32.000000
-1,-52,36,1624704223.0,32.000000
-1,-52,36,1624704223.0,32.000000
-2,-52,37,1624704223.0,32.000000
-2,-52,36,1624704223.0,32.000000
-1,-52,37,1624704223.0,32.000000
-1,-52,37,1624704223.0,32.000000
-1,-52,37,1624704223.0,32.000000
-1,-52,36,1624704223.0,32.000000
-1,-52,36,1624704223.0,32.000000
-2,-52,36,1624704223.0,32.000000
-1,-52,36,1624704223.0,32.000000
-2,-52,36,1624704223.0,32.000000
-2,-52,35,1624704223.0,32.000000
-2,-52,36,1624704223.0,32.000000
-1,-52,36,1624704223.0,32.000000
-1,-52,36,1624704223.0,32.000000
-1,-52,36,1624704223.0,32.000000
-1,-52,36,1624704223.0,32.000000
-1,-52,36,1624704223.0,32.000000
-1,-52,36,1624704223.0,32.000000
-2,-52,36,1624704223.0,32.000000
-1,-52,36,1624704223.0,32.000000
-2,-52,35,1624704223.0,32.000000
-2,-52,35,1624704223.0,32.000000
-1,-52,36,1624704223.0,32.000000
-2,-52,36,1624704223.0,32.000000
-2,-52,36,1624704223.0,32.000000
-1,-52,36,1624704223.0,32.000000
-2,-52,35,1624704223.0,32.000000
-2,-52,35,1624704223.0,32.000000
-1,-52,36,1624704223.0,32.000000
-1,-52,36,1624704223.0,32.000000
-2,-52,36,1624704223.0,32.000000
-1,-52,36,1624704223.0,32.000000
-2,-52,36,1624704223.0,32.000000
-2,-52,36,1624704223.0,32.000000
-1,-52,36,1624704223.0,32.000000
-1,-52,36,1624704223.0,32.000000
-1,-52,36,1624704223.0,32.000000
-1,-52,36,1624704223.0,32.000000
-1,-52,36,1624704223.0,32.000000
-1,-52,36,1624704223.0,32.000000
-1,-52,36,1624704223.0,32.000000
-1,-52,36,1624704223.0,32.000000
-2,-52,36,1624704223.0,32.000000
-1,-52,36,1624704223.0,32.000000
-1,-52,36,1624704223.0,32.000000
-2,-52,36,1624704223.0,32.000000
-1,-52,36,1624704223.0,32.000000
-1,-52,35,1624704223.0,32.000000
-1,-52,35,1624704223.0,32.000000
-1,-52,36,1624704223.0,32.000000
-1,-52,36,1624704223.0,32.000000
-1,-52,36,1624704223.0,32.000000
-1,-52,36,1624704223.0,32.000000
-1,-52,36,1624704223.0,32.000000
-1,-52,36,1624704223.0,32.000000
-1,-52,36,1624704223.0,32.000000
-1,-52,36,1624704223.0,32.000000
-1,-52,36,1624704223.0,32.000000
-2,-52,36,1624704223.0,32.000000
-1,-52,36,1624704223.0,32.000000
-1,-52,36,1624704223.0,32.000000
-1,-52,35,1624704223.0,32.000000
-1,-52,35,1624704223.0,32.000000
-1,-52,36,1624704223.0,32.000000
-1,-52,36,1624704223.0,32.000000
-1,-52,36,1624704223.0,32.000000
-1,-52,36,1624704223.0,32.000000
-1,-52,36,1624704223.0,32.000000
-1,-52,36,1624704223.0,32.000000
-1,-52,36,1624704223.0,32.000000
-1,-52,36,1624704223.0,32.000000
-1,-52,36,1624704223.0,32.000000
-1,-52,36,1624704223.0,32.000000
-1,-52,36,1624704223.0,32.000000
-1,-52,36,1624704223.0,32.000000
-1,-52,36,1624704223.0,32.000000
-1,-52,36,1624704223.0,32.000000
-1,-52,36,1624704223.0,32.000000
-1,-52,36,1624704223.0,32.000000
-1,-52,36,1624704223.0,32.000000
-1,-52,36,1624704223.0,32.000000
-1,-52,36,1624704223.0,32.000000
-1,-52,36,1624704223.0,32.000000
-1,-52,36,1624704223.0,32.000000
-1,-52,36,1624704223.0,32.000000
-1,-52,35,1624704223.0,32.000000
-1,-52,36,1624704223.0,32.000000
-1,-53,35,1624704223.0,32.000000
-1,-53,36,1624704223.0,32.000000
-1,-52,35,1624704223.0,32.000000
-1,-52,35,1624704223.0,32.000000
-1,-53,33,1624704223.0,32.000000
-1,-52,34,1624704223.0,32.000000
-1,-53,34,1624704223.0,32.000000
-1,-52,36,1624704223.0,32.000000
-2,-52,36,1624704223.0,32.000000
-2,-52,37,1624704223.0,32.000000
0,-52,37,1624704223.0,32.000000
-1,-52,37,1624704223.0,32.000000
0,-52,37,1624704223.0,32.000000
0,-52,36,1624704223.0,32.000000
1,-52,35,1624704223.0,32.000000
0,-53,33,1624704223.0,32.000000
0,-53,33,1624704223.0,32.000000
-1,-53,34,1624704223.0,32.000000
-1,-53,34,1624704223.0,32.000000
-2,-52,35,1624704223.0,32.000000
0,-52,37,1624704223.0,32.000000
1,-52,37,1624704223.0,32.000000
2,-52,38,1624704223.0,32.000000
3,-52,38,1624704223.0,32.000000
2,-52,36,1624704223.0,32.000000
3,-52,36,1624704223.0,32.000000
3,-52,37,1624704223.0,32.000000
2,-52,36,1624704223.0,32.000000
2,-52,36,1624704223.0,32.000000
1,-52,36,1624704223.0,32.000000
1,-52,36,1624704223.0,32.000000
0,-52,36,1624704223.0,32.000000
0,-52,36,1624704223.0,32.000000
0,-52,35,1624704223.0,32.000000
0,-52,35,1624704223.0,32.000000
1,-52,35,1624704223.0,32.000000
1,-52,35,1624704223.0,32.000000
1,-52,35,1624704223.0,32.000000
1,-52,36,1624704223.0,32.000000
2,-52,36,1624704223.0,32.000000
2,-52,36,1624704223.0,32.000000
2,-52,36,1624704223.0,32.000000
2,-52,36,1624704223.0,32.000000
2,-52,36,1624704223.0,32.000000
2,-52,36,1624704223.0,32.000000
2,-52,36,1624704223.0,32.000000
1,-52,36,1624704223.0,32.000000
1,-52,36,1624704223.0,32.000000
1,-52,37,1624704223.0,32.000000
1,-51,37,1624704223.0,32.000000
1,-51,37,1624704223.0,32.000000
2,-51,38,1624704223.0,32.000000
2,-51,38,1624704223.0,32.000000
2,-51,38,1624704223.0,32.000000
2,-51,38,1624704223.0,32.000000
1,-51,38,1624704223.0,32.000000
1,-51,38,1624704223.0,32.000000
2,-51,37,1624704223.0,32.000000
1,-51,37,1624704223.0,32.000000
1,-51,36,1624704223.0,32.000000
2,-51,37,1624704223.0,32.000000
2,-51,37,1624704223.0,32.000000
2,-51,37,1624704223.0,32.000000
2,-51,37,1624704223.0,32.000000
1,-52,37,1624704223.0,32.000000
2,-51,37,1624704223.0,32.000000
2,-51,37,1624704223.0,32.000000
2,-51,37,1624704223.0,32.000000
2,-51,37,1624704223.0,32.000000
2,-51,37,1624704223.0,32.000000
2,-51,37,1624704223.0,32.000000
2,-51,37,1624704223.0,32.000000
2,-51,37,1624704223.0,32.000000
2,-51,37,1624704223.0,32.000000
2,-51,37,1624704223.0,32.000000
2,-52,37,1624704223.0,32.000000
1,-52,37,1624704223.0,32.000000
2,-51,37,1624704223.0,32.000000
2,-52,36,1624704223.0,32.000000
2,-52,36,1624704223.0,32.000000
2,-52,35,1624704223.0,32.000000
2,-52,35,1624704223.0,32.000000
2,-52,35,1624704223.0,32.000000
2,-52,36,1624704223.0,32.000000
2,-52,37,1624704223.0,32.000000
2,-52,37,1624704223.0,32.000000
2,-52,37,1624704223.0,32.000000
2,-52,36,1624704223.0,32.000000
1,-52,37,1624704223.0,32.000000
1,-52,37,1624704223.0,32.000000
1,-52,37,1624704223.0,32.000000
2,-52,37,1624704223.0,32.000000
2,-52,37,1624704223.0,32.000000
1,-52,36,1624704223.0,32.000000
1,-53,36,1624704223.0,32.000000
2,-53,35,1624704223.0,32.000000
1,-54,31,1624704223.0,32.000000
1,-55,30,1624704223.0,32.000000
1,-55,29,1624704223.0,32.000000
1,-56,27,1624704223.0,32.000000
1,-55,27,1624704223.0,32.000000
1,-54,30,1624704223.0,32.000000
2,-55,30,1624704223.0,32.000000
5,-53,34,1624704223.0,32.000000
6,-54,35,1624704223.0,32.000000
6,-54,35,1624704223.0,32.000000
5,-54,33,1624704223.0,32.000000
5,-54,33,1624704223.0,32.000000
5,-54,32,1624704223.0,32.000000
6,-54,32,1624704223.0,32.000000
5,-54,31,1624704223.0,32.000000
5,-54,31,1624704223.0,32.000000
4,-54,31,1624704223.0,32.000000
5,-55,31,1624704223.0,32.000000
3,-54,30,1624704223.0,32.000000
4,-54,31,1624704223.0,32.000000
6,-54,33,1624704223.0,32.000000
6,-54,33,1624704223.0,32.000000
6,-54,33,1624704223.0,32.000000
6,-54,33,1624704223.0,32.000000
7,-54,33,1624704223.0,32.000000
6,-54,33,1624704223.0,32.000000
7,-53,33,1624704223.0,32.000000
7,-53,34,1624704223.0,32.000000
7,-53,33,1624704223.0,32.000000
6,-53,34,1624704223.0,32.000000
5,-54,33,1624704223.0,32.000000
5,-54,33,1624704223.0,32.000000
5,-53,34,1624704223.0,32.000000
5,-53,34,1624704223.0,32.000000
5,-53,34,1624704223.0,32.000000
5,-53,34,1624704223.0,32.000000
4,-53,35,1624704223.0,32.000000
9,-53,35,1624704223.0,32.000000
7,-53,36,1624704223.0,32.000000
7,-52,36,1624704223.0,32.000000
4,-53,33,1624704223.0,32.000000
3,-54,32,1624704223.0,32.000000
3,-53,33,1624704223.0,32.000000
3,-53,34,1624704223.0,32.000000
5,-52,35,1624704223.0,32.000000
4,-52,36,1624704223.0,32.000000
5,-52,36,1624704223.0,32.000000
5,-52,35,1624704223.0,32.000000
5,-53,35,1624704223.0,32.000000
4,-52,35,1624704223.0,32.000000
4,-52,35,1624704223.0,32.000000
3,-53,35,1624704223.0,32.000000
3,-53,34,1624704223.0,32.000000
4,-53,34,1624704223.0,32.000000
4,-53,34,1624704223.0,32.000000
3,-53,35,1624704223.0,32.000000
3,-52,35,1624704223.0,32.000000
4,-52,36,1624704223.0,32.000000
4,-51,37,1624704223.0,32.000000
4,-52,36,1624704223.0,32.000000
3,-52,35,1624704223.0,32.000000
3,-52,35,1624704223.0,32.000000
4,-52,35,1624704223.0,32.000000
4,-52,36,1624704223.0,32.000000
3,-52,36,1624704223.0,32.000000
4,-52,37,1624704223.0,32.000000
2,-51,37,1624704223.0,32.000000
2,-52,37,1624704223.0,32.000000
2,-52,36,1624704223.0,32.000000
5,-52,36,1624704223.0,32.000000
5,-51,37,1624704223.0,32.000000
3,-52,37,1624704223.0,32.000000
3,-52,35,1624704223.0,32.000000
3,-52,35,1624704223.0,32.000000
3,-52,36,1624704223.0,32.000000
2,-52,36,1624704223.0,32.000000
1,-52,35,1624704223.0,32.000000
3,-53,35,1624704223.0,32.000000
2,-52,35,1624704223.0,32.000000
2,-52,35,1624704223.0,32.000000
3,-52,36,1624704223.0,32.000000
4,-52,36,1624704223.0,32.000000
2,-52,36,1624704223.0,32.000000
2,-52,35,1624704223.0,32.000000
2,-53,35,1624704223.0,32.000000
2,-53,36,1624704223.0,32.000000
2,-52,36,1624704223.0,32.000000
3,-52,36,1624704223.0,32.000000
3,-52,36,1624704223.0,32.000000
3,-52,35,1624704223.0,32.000000
3,-52,35,1624704223.0,32.000000
3,-52,35,1624704223.0,32.000000
4,-52,36,1624704223.0,32.000000
3,-52,36,1624704223.0,32.000000
4,-52,36,1624704223.0,32.000000
4,-52,36,1624704223.0,32.000000
3,-52,36,1624704223.0,32.000000
3,-52,36,1624704223.0,32.000000
4,-52,35,1624704223.0,32.000000
4,-52,36,1624704223.0,32.000000
4,-52,36,1624704223.0,32.000000
3,-52,37,1624704223.0,32.000000
3,-52,36,1624704223.0,32.000000
4,-52,36,1624704223.0,32.000000
3,-52,37,1624704223.0,32.000000
3,-52,36,1624704223.0,32.000000
4,-52,36,1624704223.0,32.000000
4,-52,36,1624704223.0,32.000000
5,-52,36,1624704223.0,32.000000
3,-52,35,1624704223.0,32.000000
2,-52,35,1624704223.0,32.000000
2,-52,37,1624704223.0,32.000000
3,-51,37,1624704223.0,32.000000
3,-52,36,1624704223.0,32.000000
4,-52,36,1624704223.0,32.000000
4,-52,37,1624704223.0,32.000000
4,-52,36,1624704223.0,32.000000
4,-52,37,1624704223.0,32.000000
3,-52,36,1624704223.0,32.000000
4,-52,36,1624704223.0,32.000000
4,-52,36,1624704223.0,32.000000
3,-52,37,1624704223.0,32.000000
3,-52,37,1624704223.0,32.000000
4,-52,37,1624704223.0,32.000000
4,-52,37,1624704223.0,32.000000
3,-52,36,1624704223.0,32.000000
3,-52,37,1624704223.0,32.000000
4,-52,37,1624704223.0,32.000000
3,-52,36,1624704223.0,32.000000
4,-51,36,1624704223.0,32.000000
3,-52,36,1624704223.0,32.000000
4,-51,37,1624704223.0,32.000000
4,-51,36,1624704223.0,32.000000
4,-52,36,1624704223.0,32.000000
4,-52,37,1624704223.0,32.000000
3,-52,37,1624704223.0,32.000000
3,-51,36,1624704223.0,32.000000
4,-52,36,1624704223.0,32.000000
3,-51,36,1624704223.0,32.000000
4,-51,36,1624704223.0,32.000000
4,-51,36,1624704223.0,32.000000
4,-51,37,1624704223.0,32.000000
3,-51,37,1624704223.0,32.000000
3,-52,37,1624704223.0,32.000000
3,-51,36,1624704223.0,32.000000
4,-52,37,1624704223.0,32.000000
4,-51,37,1624704223.0,32.000000
4,-51,37,1624704223.0,32.000000
3,-52,36,1624704223.0,32.000000
3,-52,37,1624704223.0,32.000000
4,-51,37,1624704223.0,32.000000
3,-52,37,1624704223.0,32.000000
4,-52,37,1624704223.0,32.000000
4,-52,37,1624704223.0,32.000000
3,-51,37,1624704223.0,32.000000
4,-51,36,1624704223.0,32.000000
3,-51,37,1624704223.0,32.000000
3,-52,37,1624704223.0,32.000000
3,-52,37,1624704223.0,32.000000
4,-51,37,1624704223.0,32.000000
3,-52,37,1624704223.0,32.000000
3,-51,37,1624704223.0,32.000000
3,-51,37,1624704223.0,32.000000
3,-51,37,1624704223.0,32.000000
3,-52,37,1624704223.0,32.000000
3,-51,37,1624704223.0,32.000000
3,-51,36,1624704223.0,32.000000
3,-51,36,1624704223.0,32.000000
3,-51,37,1624704223.0,32.000000
3,-52,37,1624704223.0,32.000000
3,-52,37,1624704223.0,32.000000
4,-52,36,1624704223.0,32.000000
4,-52,37,1624704223.0,32.000000
3,-51,37,1624704223.0,32.000000
4,-51,37,1624704223.0,32.000000
3,-51,37,1624704223.0,32.000000
3,-51,36,1624704223.0,32.000000
3,-51,37,1624704223.0,32.000000
4,-51,37,1624704223.0,32.000000
3,-51,37,1624704223.0,32.000000
4,-51,36,1624704223.0,32.000000
4,-51,37,1624704223.0,32.000000
4,-51,37,1624704223.0,32.000000
4,-51,36,1624704223.0,32.000000
4,-51,37,1624704223.0,32.000000
4,-51,37,1624704223.0,32.000000
3,-51,36,1624704223.0,32.000000
3,-51,36,1624704223.0,32.000000
3,-52,37,1624704223.0,32.000000
4,-51,37,1624704223.0,32.000000
4,-52,37,1624704223.0,32.000000
4,-51,36,1624704223.0,32.000000
3,-51,36,1624704223.0,32.000000
3,-51,37,1624704223.0,32.000000
3,-51,36,1624704223.0,32.000000
4,-51,36,1624704223.0,32.000000
4,-51,36,1624704223.0,32.000000
4,-51,37,1624704223.0,32.000000
3,-51,36,1624704223.0,32.000000
3,-51,36,1624704223.0,32.000000
3,-52,37,1624704223.0,32.000000
4,-51,36,1624704223.0,32.000000
4,-51,37,1624704223.0,32.000000
3,-52,37,1624704223.0,32.000000
4,-51,37,1624704223.0,32.000000
4,-51,36,1624704223.0,32.000000
4,-51,37,1624704223.0,32.000000
4,-52,37,1624704223.0,32.000000
4,-51,37,1624704223.0,32.000000
4,-51,37,1624704223.0,32.000000
4,-51,37,1624704223.0,32.000000
4,-51,37,1624704223.0,32.000000
4,-52,37,1624704223.0,32.000000
4,-52,36,1624704223.0,32.000000
4,-51,36,1624704223.0,32.000000
4,-51,37,1624704223.0,32.000000
4,-52,37,1624704223.0,32.000000
4,-52,36,1624704223.0,32.000000
4,-51,37,1624704223.0,32.000000
4,-52,37,1624704223.0,32.000000
3,-52,36,1624704223.0,32.000000
5,-51,37,1624704223.0,32.000000
5,-52,36,1624704223.0,32.000000
3,-52,35,1624704223.0,32.000000
3,-52,35,1624704223.0,32.000000
2,-52,36,1624704223.0,32.000000
1,-52,36,1624704223.0,32.000000
0,-51,37,1624704223.0,32.000000
1,-52,39,1624704223.0,32.000000
1,-52,38,1624704223.0,32.000000
1,-51,37,1624704223.0,32.000000
1,-52,36,1624704223.0,32.000000
4,-52,35,1624704223.0,32.000000
3,-53,33,1624704223.0,32.000000
4,-52,32,1624704223.0,32.000000
9,-52,33,1624704223.0,32.000000
7,-53,34,1624704223.0,32.000000
4,-53,37,1624704223.0,32.000000
3,-52,38,1624704223.0,32.000000
2,-49,42,1624704223.0,32.000000
3,-47,47,1624704223.0,32.000000
-1,-47,44,1624704223.0,32.000000
8,-49,42,1624704223.0,32.000000
9,-49,39,1624704223.0,32.000000
9,-51,36,1624704223.0,32.000000
2,-52,31,1624704223.0,32.000000
-2,-51,31,1624704223.0,32.000000
-8,-48,35,1624704223.0,32.000000
-6,-50,38,1624704223.0,32.000000
-4,-50,42,1624704223.0,32.000000
3,-48,44,1624704223.0,32.000000
1,-50,45,1624704223.0,32.000000
-7,-50,44,1624704223.0,32.000000
-2,-48,40,1624704223.0,32.000000
1,-50,39,1624704223.0,32.000000
-1,-53,33,1624704223.0,32.000000
4,-52,44,1624704223.0,32.000000
-8,-47,39,1624704223.0,32.000000
-3,-46,43,1624704223.0,32.000000
5,-51,42,1624704223.0,32.000000
3,-50,36,1624704223.0,32.000000
1,-51,35,1624704223.0,32.000000
2,-51,36,1624704223.0,32.000000
3,-51,37,1624704223.0,32.000000
4,-49,39,1624704223.0,32.000000
-2,-52,37,1624704223.0,32.000000
-1,-51,37,1624704223.0,32.000000
2,-50,39,1624704223.0,32.000000
1,-50,38,1624704223.0,32.000000
-2,-50,39,1624704223.0,32.000000
-2,-50,40,1624704223.0,32.000000
-1,-50,40,1624704223.0,32.000000
1,-51,39,1624704223.0,32.000000
1,-51,37,1624704223.0,32.000000
2,-51,36,1624704223.0,32.000000
5,-51,36,1624704223.0,32.000000
5,-51,35,1624704223.0,32.000000
8,-52,35,1624704223.0,32.000000
8,-52,35,1624704223.0,32.000000
7,-52,35,1624704223.0,32.000000
6,-52,35,1624704223.0,32.000000
5,-51,38,1624704223.0,32.000000
4,-51,39,1624704223.0,32.000000
3,-50,39,1624704223.0,32.000000
2,-51,38,1624704223.0,32.000000
3,-51,37,1624704223.0,32.000000
4,-52,37,1624704223.0,32.000000
5,-52,36,1624704223.0,32.000000
5,-52,35,1624704223.0,32.000000
5,-52,35,1624704223.0,32.000000
6,-52,34,1624704223.0,32.000000
6,-52,34,1624704223.0,32.000000
5,-52,35,1624704223.0,32.000000
4,-52,36,1624704223.0,32.000000
3,-52,37,1624704223.0,32.000000
3,-51,37,1624704223.0,32.000000
2,-51,38,1624704223.0,32.000000
2,-51,38,1624704223.0,32.000000
3,-51,37,1624704223.0,32.000000
3,-52,37,1624704223.0,32.000000
3,-52,36,1624704223.0,32.000000
4,-52,36,1624704223.0,32.000000
5,-52,36,1624704223.0,32.000000
5,-52,36,1624704223.0,32.000000
5,-52,35,1624704223.0,32.000000
5,-52,35,1624704223.0,32.000000
5,-52,36,1624704223.0,32.000000
4,-52,36,1624704223.0,32.000000
4,-52,36,1624704223.0,32.000000
4,-52,36,1624704223.0,32.000000
4,-52,36,1624704223.0,32.000000
3,-52,36,1624704223.0,32.000000
3,-52,36,1624704223.0,32.000000
4,-52,36,1624704223.0,32.000000
3,-52,36,1624704223.0,32.000000
3,-52,36,1624704223.0,32.000000
3,-52,36,1624704223.0,32.000000
3,-52,36,1624704223.0,32.000000
3,-52,36,1624704223.0,32.000000
2,-52,36,1624704223.0,32.000000
2,-52,36,1624704223.0,32.000000
3,-52,36,1624704223.0,32.000000
3,-52,36,1624704223.0,32.000000
3,-52,36,1624704223.0,32.000000
3,-52,36,1624704223.0,32.000000
3,-52,36,1624704223.0,32.000000
3,-52,36,1624704223.0,32.000000
3,-52,36,1624704223.0,32.000000
3,-52,36,1624704223.0,32.000000
3,-52,36,1624704223.0,32.000000
4,-52,36,1624704223.0,32.000000
3,-52,36,1624704223.0,32.000000
3,-52,36,1624704223.0,32.000000
3,-52,36,1624704223.0,32.000000
4,-52,36,1624704223.0,32.000000
4,-52,35,1624704223.0,32.000000
3,-52,35,1624704223.0,32.000000
3,-52,36,1624704223.0,32.000000
3,-52,36,1624704223.0,32.000000
3,-52,37,1624704223.0,32.000000
2,-51,37,1624704223.0,32.000000
2,-52,37,1624704223.0,32.000000
2,-51,37,1624704223.0,32.000000
3,-52,37,1624704223.0,32.000000
3,-52,36,1624704223.0,32.000000
4,-52,36,1624704223.0,32.000000
5,-52,35,1624704223.0,32.000000
5,-52,35,1624704223.0,32.000000
6,-52,34,1624704223.0,32.000000
5,-52,34,1624704223.0,32.000000
5,-52,35,1624704223.0,32.000000
3,-52,36,1624704223.0,32.000000
3,-52,37,1624704223.0,32.000000
2,-51,37,1624704223.0,32.000000
2,-51,37,1624704223.0,32.000000
2,-52,37,1624704223.0,32.000000
3,-52,36,1624704223.0,32.000000
3,-52,36,1624704223.0,32.000000
3,-52,35,1624704223.0,32.000000
4,-52,36,1624704223.0,32.000000
5,-52,36,1624704223.0,32.000000
5,-52,35,1624704223.0,32.000000
5,-52,35,1624704223.0,32.000000
5,-52,35,1624704223.0,32.000000
5,-52,35,1624704223.0,32.000000
5,-52,35,1624704223.0,32.000000
4,-52,35,1624704223.0,32.000000
3,-52,36,1624704223.0,32.000000
3,-52,36,1624704223.0,32.000000
3,-52,37,1624704223.0,32.000000
2,-52,37,1624704223.0,32.000000
2,-51,37,1624704223.0,32.000000
3,-51,38,1624704223.0,32.000000
3,-52,37,1624704223.0,32.000000
3,-52,37,1624704223.0,32.000000
4,-52,36,1624704223.0,32.000000
6,-52,35,1624704223.0,32.000000
6,-52,34,1624704223.0,32.000000
6,-53,34,1624704223.0,32.000000
5,-53,34,1624704223.0,32.000000
4,-52,36,1624704223.0,32.000000
2,-51,38,1624704223.0,32.000000
1,-51,38,1624704223.0,32.000000
1,-51,39,1624704223.0,32.000000
2,-51,39,1624704223.0,32.000000
3,-52,36,1624704223.0,32.000000
5,-53,33,1624704223.0,32.000000
6,-52,33,1624704223.0,32.000000
9,-53,33,1624704223.0,32.000000
8,-53,33,1624704223.0,32.000000
5,-53,32,1624704223.0,32.000000
4,-52,35,1624704223.0,32.000000
3,-52,36,1624704223.0,32.000000
1,-51,38,1624704223.0,32.000000
0,-51,38,1624704223.0,32.000000
0,-51,39,1624704223.0,32.000000
0,-51,38,1624704223.0,32.000000
0,-52,38,1624704223.0,32.000000
2,-52,36,1624704223.0,32.000000
3,-52,36,1624704223.0,32.000000
5,-52,36,1624704223.0,32.000000
6,-52,35,1624704223.0,32.000000
8,-52,35,1624704223.0,32.000000
6,-53,34,1624704223.0,32.000000
5,-53,33,1624704223.0,32.000000
4,-52,35,1624704223.0,32.000000
3,-52,35,1624704223.0,32.000000
2,-51,37,1624704223.0,32.000000
3,-52,36,1624704223.0,32.000000
1,-52,35,1624704223.0,32.000000
6,-52,35,1624704223.0,32.000000
9,-51,37,1624704223.0,32.000000
2,-50,43,1624704223.0,32.000000
9,-50,43,1624704223.0,32.000000
10,-53,36,1624704223.0,32.000000
11,-52,34,1624704223.0,32.000000
11,-54,34,1624704223.0,32.000000
-3,-56,25,1624704223.0,32.000000
10,-55,28,1624704223.0,32.000000
7,-54,28,1624704223.0,32.000000
7,-57,32,1624704223.0,32.000000
11,-53,32,1624704223.0,32.000000
9,-57,26,1624704223.0,32.000000
7,-57,23,1624704223.0,32.000000
6,-57,23,1624704223.0,32.000000
3,-56,26,1624704223.0,32.000000
4,-55,30,1624704223.0,32.000000
2,-52,38,1624704223.0,32.000000
12,-51,40,1624704223.0,32.000000
12,-52,37,1624704223.0,32.000000
10,-54,31,1624704223.0,32.000000
9,-55,28,1624704223.0,32.000000
8,-56,25,1624704223.0,32.000000
8,-56,26,1624704223.0,32.000000
8,-56,28,1624704223.0,32.000000
7,-54,31,1624704223.0,32.000000
8,-54,32,1624704223.0,32.000000
12,-54,32,1624704223.0,32.000000
7,-54,30,1624704223.0,32.000000
4,-54,30,1624704223.0,32.000000
8,-54,32,1624704223.0,32.000000
10,-54,32,1624704223.0,32.000000
8,-54,32,1624704223.0,32.000000
8,-54,32,1624704223.0,32.000000
9,-53,33,1624704223.0,32.000000
9,-53,34,1624704223.0,32.000000
8,-53,34,1624704223.0,32.000000
7,-53,35,1624704223.0,32.000000
7,-53,34,1624704223.0,32.000000
6,-53,33,1624704223.0,32.000000
6,-54,32,1624704223.0,32.000000
6,-54,32,1624704223.0,32.000000
4,-54,31,1624704223.0,32.000000
4,-54,31,1624704223.0,32.000000
5,-54,33,1624704223.0,32.000000
5,-53,34,1624704223.0,32.000000
5,-53,35,1624704223.0,32.000000
5,-52,36,1624704223.0,32.000000
5,-52,37,1624704223.0,32.000000
8,-52,36,1624704223.0,32.000000
9,-53,34,1624704223.0,32.000000
9,-53,32,1624704223.0,32.000000
6,-54,30,1624704223.0,32.000000
5,-54,30,1624704223.0,32.000000
6,-53,33,1624704223.0,32.000000
6,-52,36,1624704223.0,32.000000
7,-51,37,1624704223.0,32.000000
9,-51,36,1624704223.0,32.000000
10,-51,36,1624704223.0,32.000000
11,-52,35,1624704223.0,32.000000
9,-52,33,1624704223.0,32.000000
10,-52,33,1624704223.0,32.000000
7,-52,33,1624704223.0,32.000000
7,-51,35,1624704223.0,32.000000
5,-50,37,1624704223.0,32.000000
5,-49,41,1624704223.0,32.000000
6,-48,42,1624704223.0,32.000000
10,-48,43,1624704223.0,32.000000
11,-48,43,1624704223.0,32.000000
11,-49,40,1624704223.0,32.000000
9,-49,39,1624704223.0,32.000000
6,-49,38,1624704223.0,32.000000
2,-53,40,1624704223.0,32.000000
4,-48,39,1624704223.0,32.000000
4,-50,43,1624704223.0,32.000000
7,-45,43,1624704223.0,32.000000
8,-49,43,1624704223.0,32.000000
7,-47,43,1624704223.0,32.000000
4,-49,40,1624704223.0,32.000000
3,-48,41,1624704223.0,32.000000
3,-47,42,1624704223.0,32.000000
3,-46,43,1624704223.0,32.000000
3,-45,44,1624704223.0,32.000000
4,-46,45,1624704223.0,32.000000
6,-45,45,1624704223.0,32.000000
6,-45,45,1624704223.0,32.000000
4,-45,44,1624704223.0,32.000000
5,-45,45,1624704223.0,32.000000
5,-45,45,1624704223.0,32.000000
5,-45,45,1624704223.0,32.000000
5,-45,45,1624704223.0,32.000000
6,-44,46,1624704223.0,32.000000
6,-45,45,1624704223.0,32.000000
7,-45,46,1624704223.0,32.000000
6,-44,45,1624704223.0,32.000000
6,-45,45,1624704223.0,32.000000
6,-45,45,1624704223.0,32.000000
7,-45,45,1624704223.0,32.000000
6,-45,45,1624704223.0,32.000000
6,-45,45,1624704223.0,32.000000
6,-45,45,1624704223.0,32.000000
6,-45,45,1624704223.0,32.000000
7,-45,45,1624704223.0,32.000000
6,-45,45,1624704223.0,32.000000
5,-45,45,1624704223.0,32.000000
6,-45,45,1624704223.0,32.000000
6,-45,44,1624704223.0,32.000000
5,-46,44,1624704223.0,32.000000
5,-46,43,1624704223.0,32.000000
7,-46,43,1624704223.0,32.000000
7,-46,44,1624704223.0,32.000000
5,-45,44,1624704223.0,32.000000
9,-44,45,1624704223.0,32.000000
12,-45,45,1624704223.0,32.000000
12,-47,41,1624704223.0,32.000000
9,-48,40,1624704223.0,32.000000
5,-49,38,1624704223.0,32.000000
5,-48,38,1624704223.0,32.000000
5,-48,39,1624704223.0,32.000000
4,-46,42,1624704223.0,32.000000
4,-46,43,1624704223.0,32.000000
4,-45,47,1624704223.0,32.000000
6,-45,48,1624704223.0,32.000000
9,-45,49,1624704223.0,32.000000
8,-46,45,1624704223.0,32.000000
10,-47,43,1624704223.0,32.000000
12,-48,39,1624704223.0,32.000000
13,-49,38,1624704223.0,32.000000
9,-50,36,1624704223.0,32.000000
5,-50,37,1624704223.0,32.000000
3,-49,38,1624704223.0,32.000000
1,-47,41,1624704223.0,32.000000
2,-47,42,1624704223.0,32.000000
7,-46,44,1624704223.0,32.000000
13,-48,44,1624704223.0,32.000000
13,-49,42,1624704223.0,32.000000
10,-50,37,1624704223.0,32.000000
8,-51,36,1624704223.0,32.000000
6,-51,35,1624704223.0,32.000000
5,-50,37,1624704223.0,32.000000
5,-50,38,1624704223.0,32.000000
6,-48,42,1624704223.0,32.000000
6,-47,45,1624704223.0,32.000000
13,-46,47,1624704223.0,32.000000
15,-48,42,1624704223.0,32.000000
12,-49,39,1624704223.0,32.000000
6,-50,35,1624704223.0,32.000000
7,-51,35,1624704223.0,32.000000
9,-51,35,1624704223.0,32.000000
8,-51,35,1624704223.0,32.000000
8,-51,36,1624704223.0,32.000000
11,-51,36,1624704223.0,32.000000
12,-51,36,1624704223.0,32.000000
13,-52,35,1624704223.0,32.000000
10,-53,32,1624704223.0,32.000000
9,-53,31,1624704223.0,32.000000
7,-54,30,1624704223.0,32.000000
8,-54,30,1624704223.0,32.000000
9,-54,29,1624704223.0,32.000000
8,-55,29,1624704223.0,32.000000
8,-54,30,1624704223.0,32.000000
8,-54,30,1624704223.0,32.000000
8,-54,30,1624704223.0,32.000000
6,-53,32,1624704223.0,32.000000
7,-55,33,1624704223.0,32.000000
9,-54,33,1624704223.0,32.000000
6,-53,33,1624704223.0,32.000000
6,-54,34,1624704223.0,32.000000
9,-53,34,1624704223.0,32.000000
9,-54,33,1624704223.0,32.000000
7,-54,32,1624704223.0,32.000000
7,-54,31,1624704223.0,32.000000
8,-54,31,1624704223.0,32.000000
7,-54,31,1624704223.0,32.000000
7,-54,31,1624704223.0,32.000000
7,-54,32,1624704223.0,32.000000
7,-54,33,1624704223.0,32.000000
8,-53,33,1624704223.0,32.000000
7,-54,33,1624704223.0,32.000000
7,-54,32,1624704223.0,32.000000
7,-54,31,1624704223.0,32.000000
7,-54,31,1624704223.0,32.000000
8,-54,31,1624704223.0,32.000000
9,-54,32,1624704223.0,32.000000
8,-54,32,1624704223.0,32.000000
8,-54,33,1624704223.0,32.000000
9,-54,32,1624704223.0,32.000000
9,-54,32,1624704223.0,32.000000
7,-54,33,1624704223.0,32.000000
8,-53,33,1624704223.0,32.000000
8,-54,32,1624704223.0,32.000000
9,-55,29,1624704223.0,32.000000
10,-55,28,1624704223.0,32.000000
12,-56,27,1624704223.0,32.000000
10,-55,28,1624704223.0,32.000000
3,-56,26,1624704223.0,32.000000
8,-56,29,1624704223.0,32.000000
9,-56,29,1624704223.0,32.000000
9,-56,28,1624704223.0,32.000000
8,-56,27,1624704223.0,32.000000
7,-56,28,1624704223.0,32.000000
8,-55,29,1624704223.0,32.000000
9,-55,30,1624704223.0,32.000000
10,-54,30,1624704223.0,32.000000
11,-55,29,1624704223.0,32.000000
11,-55,30,1624704223.0,32.000000
12,-55,29,1624704223.0,32.000000
10,-56,27,1624704223.0,32.000000
10,-56,26,1624704223.0,32.000000
10,-56,27,1624704223.0,32.000000
9,-56,26,1624704223.0,32.000000
9,-56,27,1624704223.0,32.000000
8,-55,29,1624704223.0,32.000000
10,-55,30,1624704223.0,32.000000
9,-55,29,1624704223.0,32.000000
12,-55,29,1624704223.0,32.000000
12,-55,28,1624704223.0,32.000000
12,-56,26,1624704223.0,32.000000
10,-56,26,1624704223.0,32.000000
8,-56,26,1624704223.0,32.000000
9,-56,27,1624704223.0,32.000000
10,-55,29,1624704223.0,32.000000
11,-55,29,1624704223.0,32.000000
11,-55,28,1624704223.0,32.000000
12,-55,28,1624704223.0,32.000000
12,-55,28,1624704223.0,32.000000
11,-56,27,1624704223.0,32.000000
10,-56,26,1624704223.0,32.000000
10,-56,26,1624704223.0,32.000000
10,-56,26,1624704223.0,32.000000
9,-56,27,1624704223.0,32.000000
10,-56,27,1624704223.0,32.000000
11,-56,28,1624704223.0,32.000000
