ACC_X,ACC_Y,ACC_Z,start_time_unix,sampling_rate
-37,22,47,1624704226.0,32.000000
-37,22,46,1624704226.0,32.000000
-38,22,46,1624704226.0,32.000000
-38,22,46,1624704226.0,32.000000
-37,23,46,1624704226.0,32.000000
-37,23,46,1624704226.0,32.000000
-37,23,45,1624704226.0,32.000000
-36,23,46,1624704226.0,32.000000
-36,23,47,1624704226.0,32.000000
-36,23,46,1624704226.0,32.000000
-36,23,46,1624704226.0,32.000000
-37,23,46,1624704226.0,32.000000
-37,23,46,1624704226.0,32.000000
-37,23,46,1624704226.0,32.000000
-37,23,46,1624704226.0,32.000000
-37,22,47,1624704226.0,32.000000
-37,23,46,1624704226.0,32.000000
-37,23,46,1624704226.0,32.000000
-37,23,46,1624704226.0,32.000000
-37,23,45,1624704226.0,32.000000
-37,22,46,1624704226.0,32.000000
-37,22,46,1624704226.0,32.000000
-37,23,46,1624704226.0,32.000000
-38,22,45,1624704226.0,32.000000
-38,22,45,1624704226.0,32.000000
-39,22,45,1624704226.0,32.000000
-38,22,46,1624704226.0,32.000000
-38,22,45,1624704226.0,32.000000
-38,22,45,1624704226.0,32.000000
-38,22,45,1624704226.0,32.000000
-38,22,45,1624704226.0,32.000000
-39,22,45,1624704226.0,32.000000
-38,22,45,1624704226.0,32.000000
-38,22,45,1624704226.0,32.000000
-38,22,45,1624704226.0,32.000000
-38,22,45,1624704226.0,32.000000
-38,22,45,1624704226.0,32.000000
-38,22,45,1624704226.0,32.000000
-38,22,46,1624704226.0,32.000000
-38,22,45,1624704226.0,32.000000
-38,22,45,1624704226.0,32.000000
-38,22,45,1624704226.0,32.000000
-38,22,45,1624704226.0,32.000000
-38,22,45,1624704226.0,32.000000
-38,22,46,1624704226.0,32.000000
-38,22,45,1624704226.0,32.000000
-38,22,46,1624704226.0,32.000000
-38,22,45,1624704226.0,32.000000
-38,22,46,1624704226.0,32.000000
-38,22,45,1624704226.0,32.000000
-38,22,45,1624704226.0,32.000000
-39,22,45,1624704226.0,32.000000
-38,22,45,1624704226.0,32.000000
-38,22,45,1624704226.0,32.000000
-38,22,45,1624704226.0,32.000000
-38,22,45,1624704226.0,32.000000
-38,22,45,1624704226.0,32.000000
-38,22,45,1624704226.0,32.000000
-38,22,45,1624704226.0,32.000000
-38,22,46,1624704226.0,32.000000
-38,22,46,1624704226.0,32.000000
-38,22,45,1624704226.0,32.000000
-38,22,46,1624704226.0,32.000000
-38,22,45,1624704226.0,32.000000
-38,22,46,1624704226.0,32.000000
-38,22,46,1624704226.0,32.000000
-38,22,45,1624704226.0,32.000000
-38,22,45,1624704226.0,32.000000
-38,22,45,1624704226.0,32.000000
-38,22,46,1624704226.0,32.000000
-38,22,46,1624704226.0,32.000000
-38,22,46,1624704226.0,32.000000
-38,22,45,1624704226.0,32.000000
-38,22,45,1624704226.0,32.000000
-38,22,45,1624704226.0,32.000000
-38,22,45,1624704226.0,32.000000
-38,22,45,1624704226.0,32.000000
-38,22,46,1624704226.0,32.000000
-38,22,46,1624704226.0,32.000000
-38,22,45,1624704226.0,32.000000
-38,22,45,1624704226.0,32.000000
-38,22,46,1624704226.0,32.000000
-38,22,45,1624704226.0,32.000000
-38,22,45,1624704226.0,32.000000
-38,22,45,1624704226.0,32.000000
-39,22,45,1624704226.0,32.000000
-38,22,45,1624704226.0,32.000000
-38,22,45,1624704226.0,32.000000
-38,22,45,1624704226.0,32.000000
-38,22,46,1624704226.0,32.000000
-39,22,46,1624704226.0,32.000000
-39,21,45,1624704226.0,32.000000
-38,22,46,1624704226.0,32.000000
-38,22,44,1624704226.0,32.000000
-38,22,44,1624704226.0,32.000000
-39,22,45,1624704226.0,32.000000
-39,21,47,1624704226.0,32.000000
-39,21,47,1624704226.0,32.000000
-39,21,46,1624704226.0,32.000000
-38,23,47,1624704226.0,32.000000
-37,23,47,1624704226.0,32.000000
-35,24,45,1624704226.0,32.000000
-34,26,43,1624704226.0,32.000000
-36,28,41,1624704226.0,32.000000
-36,27,43,1624704226.0,32.000000
-37,26,45,1624704226.0,32.000000
-37,22,47,1624704226.0,32.000000
-37,22,47,1624704226.0,32.000000
-37,21,47,1624704226.0,32.000000
-38,22,47,1624704226.0,32.000000
-38,22,46,1624704226.0,32.000000
-39,23,44,1624704226.0,32.000000
-38,24,44,1624704226.0,32.000000
-38,24,44,1624704226.0,32.000000
-37,23,45,1624704226.0,32.000000
-38,22,46,1624704226.0,32.000000
-39,21,46,1624704226.0,32.000000
-40,22,45,1624704226.0,32.000000
-40,21,44,1624704226.0,32.000000
-40,22,44,1624704226.0,32.000000
-39,22,45,1624704226.0,32.000000
-38,22,45,1624704226.0,32.000000
-38,22,45,1624704226.0,32.000000
-38,23,45,1624704226.0,32.000000
-38,22,45,1624704226.0,32.000000
-39,22,44,1624704226.0,32.000000
-39,22,45,1624704226.0,32.000000
-38,22,45,1624704226.0,32.000000
-38,22,45,1624704226.0,32.000000
-39,22,45,1624704226.0,32.000000
-39,22,44,1624704226.0,32.000000
-39,22,45,1624704226.0,32.000000
-39,22,44,1624704226.0,32.000000
-39,22,45,1624704226.0,32.000000
-39,22,45,1624704226.0,32.000000
-40,21,44,1624704226.0,32.000000
-40,21,45,1624704226.0,32.000000
-40,21,47,1624704226.0,32.000000
-43,19,48,1624704226.0,32.000000
-60,13,47,1624704226.0,32.000000
-64,10,47,1624704226.0,32.000000
-61,12,45,1624704226.0,32.000000
-57,18,36,1624704226.0,32.000000
-38,21,31,1624704226.0,32.000000
-31,27,28,1624704226.0,32.000000
-24,35,20,1624704226.0,32.000000
-21,44,21,1624704226.0,32.000000
-30,45,20,1624704226.0,32.000000
-30,42,31,1624704226.0,32.000000
-29,45,32,1624704226.0,32.000000
-31,50,38,1624704226.0,32.000000
-29,51,41,1624704226.0,32.000000
-27,51,45,1624704226.0,32.000000
-18,51,53,1624704226.0,32.000000
-21,49,50,1624704226.0,32.000000
-26,47,46,1624704226.0,32.000000
-34,47,44,1624704226.0,32.000000
-27,48,44,1624704226.0,32.000000
-20,46,43,1624704226.0,32.000000
-25,45,42,1624704226.0,32.000000
-30,44,36,1624704226.0,32.000000
-31,42,33,1624704226.0,32.000000
-34,41,32,1624704226.0,32.000000
-37,41,28,1624704226.0,32.000000
-32,41,27,1624704226.0,32.000000
-41,39,30,1624704226.0,32.000000
-43,37,30,1624704226.0,32.000000
-39,36,31,1624704226.0,32.000000
-47,29,29,1624704226.0,32.000000
-50,27,29,1624704226.0,32.000000
-48,28,29,1624704226.0,32.000000
-47,26,25,1624704226.0,32.000000
-44,25,25,1624704226.0,32.000000
-46,26,27,1624704226.0,32.000000
-46,27,27,1624704226.0,32.000000
-44,27,29,1624704226.0,32.000000
-38,31,31,1624704226.0,32.000000
-38,35,30,1624704226.0,32.000000
-41,39,33,1624704226.0,32.000000
-35,44,37,1624704226.0,32.000000
-37,45,37,1624704226.0,32.000000
-39,49,41,1624704226.0,32.000000
-42,49,42,1624704226.0,32.000000
-44,48,38,1624704226.0,32.000000
-39,47,37,1624704226.0,32.000000
-38,45,35,1624704226.0,32.000000
-38,41,30,1624704226.0,32.000000
-36,40,30,1624704226.0,32.000000
-35,40,31,1624704226.0,32.000000
-32,39,27,1624704226.0,32.000000
-32,39,27,1624704226.0,32.000000
-35,40,27,1624704226.0,32.000000
-36,40,27,1624704226.0,32.000000
-36,41,27,1624704226.0,32.000000
-37,41,28,1624704226.0,32.000000
-36,42,30,1624704226.0,32.000000
-35,41,31,1624704226.0,32.000000
-35,41,31,1624704226.0,32.000000
-34,41,31,1624704226.0,32.000000
-37,39,30,1624704226.0,32.000000
-37,37,30,1624704226.0,32.000000
-34,38,31,1624704226.0,32.000000
-35,35,38,1624704226.0,32.000000
-34,36,41,1624704226.0,32.000000
-24,33,49,1624704226.0,32.000000
-23,33,52,1624704226.0,32.000000
-22,32,51,1624704226.0,32.000000
-35,31,47,1624704226.0,32.000000
-36,33,45,1624704226.0,32.000000
-33,31,45,1624704226.0,32.000000
-44,42,64,1624704226.0,32.000000
-28,17,57,1624704226.0,32.000000
-27,29,51,1624704226.0,32.000000
-29,23,53,1624704226.0,32.000000
-28,24,50,1624704226.0,32.000000
-33,28,46,1624704226.0,32.000000
-33,29,45,1624704226.0,32.000000
-33,27,47,1624704226.0,32.000000
-34,29,46,1624704226.0,32.000000
-35,28,45,1624704226.0,32.000000
-34,27,47,1624704226.0,32.000000
-33,26,48,1624704226.0,32.000000
-29,25,50,1624704226.0,32.000000
-29,22,52,1624704226.0,32.000000
-30,20,53,1624704226.0,32.000000
-31,19,51,1624704226.0,32.000000
-32,18,52,1624704226.0,32.000000
-32,17,52,1624704226.0,32.000000
-35,18,49,1624704226.0,32.000000
-35,18,49,1624704226.0,32.000000
-35,17,50,1624704226.0,32.000000
-34,16,50,1624704226.0,32.000000
-34,16,51,1624704226.0,32.000000
-32,16,52,1624704226.0,32.000000
-32,16,52,1624704226.0,32.000000
-33,16,52,1624704226.0,32.000000
-32,15,52,1624704226.0,32.000000
-32,15,52,1624704226.0,32.000000
-33,15,52,1624704226.0,32.000000
-33,15,52,1624704226.0,32.000000
-33,15,52,1624704226.0,32.000000
-32,15,52,1624704226.0,32.000000
-32,15,52,1624704226.0,32.000000
-32,14,53,1624704226.0,32.000000
-34,13,54,1624704226.0,32.000000
-35,10,54,1624704226.0,32.000000
-34,7,53,1624704226.0,32.000000
-36,17,50,1624704226.0,32.000000
-52,38,57,1624704226.0,32.000000
-30,27,57,1624704226.0,32.000000
-28,30,50,1624704226.0,32.000000
-38,32,41,1624704226.0,32.000000
-37,33,42,1624704226.0,32.000000
-37,32,44,1624704226.0,32.000000
-35,31,45,1624704226.0,32.000000
-37,30,47,1624704226.0,32.000000
-32,30,51,1624704226.0,32.000000
-24,26,54,1624704226.0,32.000000
-24,27,55,1624704226.0,32.000000
-16,29,59,1624704226.0,32.000000
-11,28,55,1624704226.0,32.000000
-21,31,55,1624704226.0,32.000000
-31,31,47,1624704226.0,32.000000
-25,34,46,1624704226.0,32.000000
-10,21,39,1624704226.0,32.000000
-36,14,18,1624704226.0,32.000000
-29,10,32,1624704226.0,32.000000
-8,-2,37,1624704226.0,32.000000
-14,-6,32,1624704226.0,32.000000
-3,-11,55,1624704226.0,32.000000
15,-20,51,1624704226.0,32.000000
-9,-26,57,1624704226.0,32.000000
-18,-32,68,1624704226.0,32.000000
-26,-37,50,1624704226.0,32.000000
10,-45,103,1624704226.0,32.000000
-57,-67,17,1624704226.0,32.000000
-42,-48,11,1624704226.0,32.000000
9,-53,24,1624704226.0,32.000000
-10,-57,23,1624704226.0,32.000000
-16,-56,14,1624704226.0,32.000000
-36,-73,11,1624704226.0,32.000000
-12,-65,10,1624704226.0,32.000000
-23,-67,3,1624704226.0,32.000000
-9,-55,17,1624704226.0,32.000000
-12,-67,7,1624704226.0,32.000000
-10,-72,2,1624704226.0,32.000000
-13,-63,-3,1624704226.0,32.000000
-14,-51,7,1624704226.0,32.000000
-6,-66,-5,1624704226.0,32.000000
-6,-64,-9,1624704226.0,32.000000
-13,-68,6,1624704226.0,32.000000
-9,-63,-2,1624704226.0,32.000000
-13,-61,-7,1624704226.0,32.000000
-5,-64,13,1624704226.0,32.000000
-4,-64,7,1624704226.0,32.000000
-6,-60,-3,1624704226.0,32.000000
-5,-63,-6,1624704226.0,32.000000
-14,-52,-9,1624704226.0,32.000000
-28,-72,6,1624704226.0,32.000000
-33,-70,5,1624704226.0,32.000000
-27,-59,5,1624704226.0,32.000000
-10,-58,1,1624704226.0,32.000000
-17,-54,0,1624704226.0,32.000000
-24,-60,17,1624704226.0,32.000000
-31,-51,31,1624704226.0,32.000000
-30,-53,24,1624704226.0,32.000000
-32,-48,10,1624704226.0,32.000000
-33,-48,10,1624704226.0,32.000000
-35,-50,20,1624704226.0,32.000000
-34,-47,29,1624704226.0,32.000000
-33,-48,29,1624704226.0,32.000000
-35,-48,26,1624704226.0,32.000000
-34,-47,24,1624704226.0,32.000000
-35,-49,19,1624704226.0,32.000000
-30,-53,19,1624704226.0,32.000000
-31,-58,15,1624704226.0,32.000000
-24,-58,10,1624704226.0,32.000000
-25,-60,11,1624704226.0,32.000000
-19,-60,17,1624704226.0,32.000000
-22,-59,9,1624704226.0,32.000000
-23,-58,13,1624704226.0,32.000000
-33,-54,21,1624704226.0,32.000000
-25,-52,16,1624704226.0,32.000000
-27,-57,13,1624704226.0,32.000000
-22,-56,10,1624704226.0,32.000000
-24,-63,13,1624704226.0,32.000000
-18,-57,9,1624704226.0,32.000000
-27,-63,11,1624704226.0,32.000000
-28,-61,10,1624704226.0,32.000000
-27,-60,7,1624704226.0,32.000000
-27,-58,8,1624704226.0,32.000000
-31,-55,18,1624704226.0,32.000000
-30,-52,20,1624704226.0,32.000000
-32,-54,19,1624704226.0,32.000000
-33,-50,20,1624704226.0,32.000000
-32,-46,21,1624704226.0,32.000000
-30,-47,27,1624704226.0,32.000000
-35,-45,32,1624704226.0,32.000000
-41,-43,29,1624704226.0,32.000000
-31,-42,33,1624704226.0,32.000000
-34,-44,35,1624704226.0,32.000000
-31,-43,36,1624704226.0,32.000000
-35,-41,32,1624704226.0,32.000000
-36,-41,30,1624704226.0,32.000000
-31,-42,38,1624704226.0,32.000000
-34,-47,41,1624704226.0,32.000000
-33,-45,41,1624704226.0,32.000000
-26,-48,41,1624704226.0,32.000000
-29,-44,37,1624704226.0,32.000000
-31,-40,26,1624704226.0,32.000000
-36,-44,19,1624704226.0,32.000000
-31,-47,18,1624704226.0,32.000000
-16,-54,8,1624704226.0,32.000000
-33,-60,-10,1624704226.0,32.000000
-27,-63,13,1624704226.0,32.000000
-22,-61,15,1624704226.0,32.000000
-20,-60,11,1624704226.0,32.000000
-22,-66,10,1624704226.0,32.000000
-27,-53,13,1624704226.0,32.000000
-27,-46,24,1624704226.0,32.000000
-36,-49,17,1624704226.0,32.000000
-42,-45,13,1624704226.0,32.000000
-42,-55,14,1624704226.0,32.000000
-31,-56,14,1624704226.0,32.000000
-31,-56,18,1624704226.0,32.000000
-37,-51,21,1624704226.0,32.000000
-41,-47,23,1624704226.0,32.000000
-44,-45,24,1624704226.0,32.000000
-54,-42,21,1624704226.0,32.000000
-52,-48,15,1624704226.0,32.000000
-34,-52,43,1624704226.0,32.000000
-20,-47,61,1624704226.0,32.000000
-36,-44,55,1624704226.0,32.000000
-24,-29,70,1624704226.0,32.000000
-41,-35,62,1624704226.0,32.000000
-26,-21,59,1624704226.0,32.000000
-15,-10,54,1624704226.0,32.000000
-16,-7,49,1624704226.0,32.000000
-14,0,48,1624704226.0,32.000000
-27,11,46,1624704226.0,32.000000
-24,13,46,1624704226.0,32.000000
-22,16,48,1624704226.0,32.000000
-25,21,47,1624704226.0,32.000000
-3,29,45,1624704226.0,32.000000
16,36,53,1624704226.0,32.000000
14,36,55,1624704226.0,32.000000
-2,34,42,1624704226.0,32.000000
-9,36,41,1624704226.0,32.000000
-16,40,39,1624704226.0,32.000000
-19,39,37,1624704226.0,32.000000
-22,38,34,1624704226.0,32.000000
-25,37,28,1624704226.0,32.000000
-31,35,27,1624704226.0,32.000000
-37,29,25,1624704226.0,32.000000
-42,26,17,1624704226.0,32.000000
-43,25,17,1624704226.0,32.000000
-63,13,19,1624704226.0,32.000000
-69,17,16,1624704226.0,32.000000
-67,20,15,1624704226.0,32.000000
-67,26,19,1624704226.0,32.000000
-66,26,23,1624704226.0,32.000000
-118,37,27,1624704226.0,32.000000
-42,21,32,1624704226.0,32.000000
-48,29,31,1624704226.0,32.000000
-42,27,29,1624704226.0,32.000000
-39,23,35,1624704226.0,32.000000
-33,26,44,1624704226.0,32.000000
-30,28,47,1624704226.0,32.000000
-30,25,48,1624704226.0,32.000000
-33,25,49,1624704226.0,32.000000
-33,26,48,1624704226.0,32.000000
-37,27,49,1624704226.0,32.000000
-34,27,47,1624704226.0,32.000000
-36,26,46,1624704226.0,32.000000
-36,26,45,1624704226.0,32.000000
-36,26,44,1624704226.0,32.000000
-36,26,45,1624704226.0,32.000000
-35,26,44,1624704226.0,32.000000
-35,26,44,1624704226.0,32.000000
-37,25,53,1624704226.0,32.000000
-42,13,71,1624704226.0,32.000000
-77,-4,81,1624704226.0,32.000000
-90,13,69,1624704226.0,32.000000
-68,-3,67,1624704226.0,32.000000
-52,6,57,1624704226.0,32.000000
-37,20,39,1624704226.0,32.000000
-27,19,32,1624704226.0,32.000000
-15,30,19,1624704226.0,32.000000
-2,41,15,1624704226.0,32.000000
-2,36,15,1624704226.0,32.000000
-9,26,20,1624704226.0,32.000000
-10,25,28,1624704226.0,32.000000
-27,18,43,1624704226.0,32.000000
-19,16,47,1624704226.0,32.000000
-21,7,42,1624704226.0,32.000000
-32,-1,37,1624704226.0,32.000000
-36,-5,46,1624704226.0,32.000000
-22,-9,69,1624704226.0,32.000000
-10,-7,75,1624704226.0,32.000000
-9,-8,74,1624704226.0,32.000000
-24,-22,64,1624704226.0,32.000000
-61,-28,59,1624704226.0,32.000000
-41,-35,59,1624704226.0,32.000000
-17,-48,50,1624704226.0,32.000000
-11,-44,50,1624704226.0,32.000000
-1,-52,68,1624704226.0,32.000000
-10,-45,40,1624704226.0,32.000000
-17,-46,37,1624704226.0,32.000000
-18,-41,37,1624704226.0,32.000000
-12,-43,41,1624704226.0,32.000000
-12,-43,38,1624704226.0,32.000000
-7,-53,29,1624704226.0,32.000000
-19,-55,19,1624704226.0,32.000000
-27,-59,9,1624704226.0,32.000000
-25,-63,1,1624704226.0,32.000000
-21,-61,-1,1624704226.0,32.000000
-17,-59,-3,1624704226.0,32.000000
-26,-60,-4,1624704226.0,32.000000
-33,-69,-1,1624704226.0,32.000000
-37,-59,-8,1624704226.0,32.000000
-40,-49,-9,1624704226.0,32.000000
-53,-44,9,1624704226.0,32.000000
-52,-46,9,1624704226.0,32.000000
-61,-45,12,1624704226.0,32.000000
-35,-57,19,1624704226.0,32.000000
-35,-58,19,1624704226.0,32.000000
-36,-58,13,1624704226.0,32.000000
-36,-52,7,1624704226.0,32.000000
-38,-54,10,1624704226.0,32.000000
-36,-57,15,1624704226.0,32.000000
-39,-55,4,1624704226.0,32.000000
-34,-50,5,1624704226.0,32.000000
-9,-59,9,1624704226.0,32.000000
-18,-58,-2,1624704226.0,32.000000
-24,-56,0,1624704226.0,32.000000
-32,-55,3,1624704226.0,32.000000
-29,-53,3,1624704226.0,32.000000
-30,-55,6,1624704226.0,32.000000
-29,-57,9,1624704226.0,32.000000
-31,-58,4,1624704226.0,32.000000
-31,-56,6,1624704226.0,32.000000
-30,-56,7,1624704226.0,32.000000
-31,-55,3,1624704226.0,32.000000
-31,-55,2,1624704226.0,32.000000
-30,-57,6,1624704226.0,32.000000
-32,-57,-3,1624704226.0,32.000000
-32,-54,-3,1624704226.0,32.000000
-32,-56,7,1624704226.0,32.000000
-31,-55,6,1624704226.0,32.000000
-31,-56,4,1624704226.0,32.000000
-27,-58,6,1624704226.0,32.000000
-26,-60,2,1624704226.0,32.000000
-24,-61,-3,1624704226.0,32.000000
-21,-61,2,1624704226.0,32.000000
-25,-59,1,1624704226.0,32.000000
-24,-58,3,1624704226.0,32.000000
-25,-57,2,1624704226.0,32.000000
-17,-62,0,1624704226.0,32.000000
-22,-61,1,1624704226.0,32.000000
-25,-60,3,1624704226.0,32.000000
-27,-58,4,1624704226.0,32.000000
-25,-57,5,1624704226.0,32.000000
-27,-57,4,1624704226.0,32.000000
-31,-56,4,1624704226.0,32.000000
-25,-56,3,1624704226.0,32.000000
-38,-56,2,1624704226.0,32.000000
-34,-53,-2,1624704226.0,32.000000
-26,-58,14,1624704226.0,32.000000
-40,-55,12,1624704226.0,32.000000
-36,-56,20,1624704226.0,32.000000
-49,-53,7,1624704226.0,32.000000
-42,-45,10,1624704226.0,32.000000
-33,-45,32,1624704226.0,32.000000
-1,-44,42,1624704226.0,32.000000
-44,-40,14,1624704226.0,32.000000
-41,-37,23,1624704226.0,32.000000
-40,-38,26,1624704226.0,32.000000
-23,-40,29,1624704226.0,32.000000
-17,-52,25,1624704226.0,32.000000
-17,-66,20,1624704226.0,32.000000
-39,-54,34,1624704226.0,32.000000
-40,-41,35,1624704226.0,32.000000
-34,-38,29,1624704226.0,32.000000
-28,-48,38,1624704226.0,32.000000
-37,-47,28,1624704226.0,32.000000
-25,-52,27,1624704226.0,32.000000
-21,-60,18,1624704226.0,32.000000
-55,-50,25,1624704226.0,32.000000
-23,-64,23,1624704226.0,32.000000
-24,-54,10,1624704226.0,32.000000
-30,-47,26,1624704226.0,32.000000
-27,-58,8,1624704226.0,32.000000
-3,-64,11,1624704226.0,32.000000
-8,-64,5,1624704226.0,32.000000
-24,-60,10,1624704226.0,32.000000
-16,-61,9,1624704226.0,32.000000
-35,-36,26,1624704226.0,32.000000
-22,-54,25,1624704226.0,32.000000
-23,-57,24,1624704226.0,32.000000
-37,-62,21,1624704226.0,32.000000
-40,-58,24,1624704226.0,32.000000
-24,-47,27,1624704226.0,32.000000
-36,-46,22,1624704226.0,32.000000
-37,-45,21,1624704226.0,32.000000
-42,-40,27,1624704226.0,32.000000
-40,-36,29,1624704226.0,32.000000
-39,-39,28,1624704226.0,32.000000
-42,-36,28,1624704226.0,32.000000
-43,-37,28,1624704226.0,32.000000
-44,-38,26,1624704226.0,32.000000
-44,-36,28,1624704226.0,32.000000
-45,-37,28,1624704226.0,32.000000
-43,-38,28,1624704226.0,32.000000
-43,-38,29,1624704226.0,32.000000
-42,-37,28,1624704226.0,32.000000
-40,-39,27,1624704226.0,32.000000
-42,-39,26,1624704226.0,32.000000
-43,-40,26,1624704226.0,32.000000
-42,-40,26,1624704226.0,32.000000
-41,-41,25,1624704226.0,32.000000
-43,-40,24,1624704226.0,32.000000
-42,-41,24,1624704226.0,32.000000
-43,-38,27,1624704226.0,32.000000
-43,-37,28,1624704226.0,32.000000
-43,-37,28,1624704226.0,32.000000
-43,-37,29,1624704226.0,32.000000
-43,-37,28,1624704226.0,32.000000
-43,-38,28,1624704226.0,32.000000
-43,-37,27,1624704226.0,32.000000
-44,-37,28,1624704226.0,32.000000
-43,-37,28,1624704226.0,32.000000
-43,-37,28,1624704226.0,32.000000
-43,-37,29,1624704226.0,32.000000
-43,-37,29,1624704226.0,32.000000
-43,-37,29,1624704226.0,32.000000
-43,-37,29,1624704226.0,32.000000
-43,-37,29,1624704226.0,32.000000
-43,-37,28,1624704226.0,32.000000
-43,-37,29,1624704226.0,32.000000
-42,-37,29,1624704226.0,32.000000
-43,-37,29,1624704226.0,32.000000
-43,-38,29,1624704226.0,32.000000
-42,-37,28,1624704226.0,32.000000
-42,-37,28,1624704226.0,32.000000
-42,-37,28,1624704226.0,32.000000
-43,-37,28,1624704226.0,32.000000
-43,-38,28,1624704226.0,32.000000
-42,-38,28,1624704226.0,32.000000
-42,-38,28,1624704226.0,32.000000
-42,-37,29,1624704226.0,32.000000
-43,-37,29,1624704226.0,32.000000
-43,-37,29,1624704226.0,32.000000
-43,-37,29,1624704226.0,32.000000
-42,-37,29,1624704226.0,32.000000
-42,-37,29,1624704226.0,32.000000
-42,-37,28,1624704226.0,32.000000
-42,-37,29,1624704226.0,32.000000
-42,-38,28,1624704226.0,32.000000
-42,-37,29,1624704226.0,32.000000
-42,-37,29,1624704226.0,32.000000
-43,-37,29,1624704226.0,32.000000
-42,-37,29,1624704226.0,32.000000
-42,-37,29,1624704226.0,32.000000
-42,-38,29,1624704226.0,32.000000
-41,-38,30,1624704226.0,32.000000
-42,-38,30,1624704226.0,32.000000
-43,-38,29,1624704226.0,32.000000
-43,-40,31,1624704226.0,32.000000
-45,-40,33,1624704226.0,32.000000
-45,-43,34,1624704226.0,32.000000
-46,-44,39,1624704226.0,32.000000
-45,-42,39,1624704226.0,32.000000
-40,-41,38,1624704226.0,32.000000
-32,-41,39,1624704226.0,32.000000
-62,-30,29,1624704226.0,32.000000
-61,-31,36,1624704226.0,32.000000
-67,-28,18,1624704226.0,32.000000
-67,-24,25,1624704226.0,32.000000
-57,-21,14,1624704226.0,32.000000
-52,-19,21,1624704226.0,32.000000
-43,-26,41,1624704226.0,32.000000
-44,-25,40,1624704226.0,32.000000
-27,-10,25,1624704226.0,32.000000
-2,2,24,1624704226.0,32.000000
40,-4,30,1624704226.0,32.000000
-10,-13,28,1624704226.0,32.000000
-14,-19,38,1624704226.0,32.000000
-18,-25,54,1624704226.0,32.000000
-6,-23,56,1624704226.0,32.000000
-20,-39,43,1624704226.0,32.000000
-41,-63,-2,1624704226.0,32.000000
-63,-54,-15,1624704226.0,32.000000
-90,-58,-14,1624704226.0,32.000000
-84,-51,4,1624704226.0,32.000000
-82,-52,3,1624704226.0,32.000000
-78,-52,15,1624704226.0,32.000000
-70,-45,7,1624704226.0,32.000000
-8,-39,28,1624704226.0,32.000000
-18,-35,22,1624704226.0,32.000000
-29,-35,22,1624704226.0,32.000000
-36,-50,21,1624704226.0,32.000000
-46,-55,11,1624704226.0,32.000000
-62,-49,8,1624704226.0,32.000000
-55,-51,-1,1624704226.0,32.000000
-44,-52,6,1624704226.0,32.000000
-58,-46,13,1624704226.0,32.000000
-53,-37,10,1624704226.0,32.000000
-20,-40,17,1624704226.0,32.000000
-33,-24,8,1624704226.0,32.000000
-34,-30,17,1624704226.0,32.000000
-40,-51,21,1624704226.0,32.000000
-38,-39,21,1624704226.0,32.000000
-41,-41,23,1624704226.0,32.000000
-52,-54,25,1624704226.0,32.000000
-56,-48,23,1624704226.0,32.000000
-49,-42,18,1624704226.0,32.000000
-45,-40,21,1624704226.0,32.000000
-42,-41,21,1624704226.0,32.000000
-41,-40,23,1624704226.0,32.000000
-46,-38,21,1624704226.0,32.000000
-44,-40,21,1624704226.0,32.000000
-47,-38,19,1624704226.0,32.000000
-47,-38,20,1624704226.0,32.000000
-46,-42,20,1624704226.0,32.000000
-56,-44,21,1624704226.0,32.000000
-73,-46,16,1624704226.0,32.000000
-56,-40,29,1624704226.0,32.000000
-45,-40,31,1624704226.0,32.000000
-52,-28,38,1624704226.0,32.000000
-33,-29,39,1624704226.0,32.000000
-32,-26,49,1624704226.0,32.000000
-34,-5,58,1624704226.0,32.000000
-18,-7,53,1624704226.0,32.000000
-12,-3,46,1624704226.0,32.000000
-7,5,46,1624704226.0,32.000000
-7,7,48,1624704226.0,32.000000
3,6,53,1624704226.0,32.000000
6,5,59,1624704226.0,32.000000
10,2,68,1624704226.0,32.000000
6,3,68,1624704226.0,32.000000
3,3,61,1624704226.0,32.000000
-3,-1,60,1624704226.0,32.000000
-8,-2,56,1624704226.0,32.000000
-14,-4,53,1624704226.0,32.000000
-19,-11,53,1624704226.0,32.000000
-20,-13,53,1624704226.0,32.000000
-15,-18,61,1624704226.0,32.000000
-23,-19,60,1624704226.0,32.000000
-27,-18,55,1624704226.0,32.000000
-43,-30,55,1624704226.0,32.000000
-28,-8,60,1624704226.0,32.000000
-23,-8,58,1624704226.0,32.000000
-32,-7,58,1624704226.0,32.000000
-30,-7,60,1624704226.0,32.000000
-34,-8,54,1624704226.0,32.000000
-27,-10,52,1624704226.0,32.000000
-34,-13,52,1624704226.0,32.000000
-43,-10,51,1624704226.0,32.000000
-37,-12,51,1624704226.0,32.000000
-38,-11,50,1624704226.0,32.000000
-37,-13,49,1624704226.0,32.000000
-34,-12,50,1624704226.0,32.000000
-37,-11,50,1624704226.0,32.000000
-36,-10,51,1624704226.0,32.000000
-38,-10,49,1624704226.0,32.000000
-34,-12,50,1624704226.0,32.000000
-38,-11,51,1624704226.0,32.000000
-30,-11,52,1624704226.0,32.000000
-44,-7,48,1624704226.0,32.000000
-38,-8,49,1624704226.0,32.000000
-36,-10,50,1624704226.0,32.000000
-38,-11,48,1624704226.0,32.000000
-37,-9,50,1624704226.0,32.000000
-38,-10,52,1624704226.0,32.000000
-42,-4,48,1624704226.0,32.000000
-39,-1,50,1624704226.0,32.000000
-35,-5,53,1624704226.0,32.000000
-39,-6,48,1624704226.0,32.000000
-37,-8,51,1624704226.0,32.000000
-34,-8,52,1624704226.0,32.000000
-33,-8,53,1624704226.0,32.000000
-36,-5,53,1624704226.0,32.000000
-33,-6,54,1624704226.0,32.000000
-28,-7,57,1624704226.0,32.000000
-32,-5,53,1624704226.0,32.000000
-19,-7,62,1624704226.0,32.000000
-47,-5,46,1624704226.0,32.000000
-51,-9,34,1624704226.0,32.000000
-25,-22,57,1624704226.0,32.000000
-29,-20,54,1624704226.0,32.000000
-27,-18,55,1624704226.0,32.000000
-29,-14,54,1624704226.0,32.000000
-31,-14,55,1624704226.0,32.000000
-33,-13,59,1624704226.0,32.000000
-39,-10,77,1624704226.0,32.000000
-33,-11,92,1624704226.0,32.000000
-50,2,63,1624704226.0,32.000000
-82,3,33,1624704226.0,32.000000
-20,18,52,1624704226.0,32.000000
-49,23,46,1624704226.0,32.000000
-41,31,46,1624704226.0,32.000000
-27,33,35,1624704226.0,32.000000
-25,33,35,1624704226.0,32.000000
-22,34,40,1624704226.0,32.000000
-36,35,45,1624704226.0,32.000000
-35,33,47,1624704226.0,32.000000
-25,29,53,1624704226.0,32.000000
-8,30,54,1624704226.0,32.000000
-7,30,49,1624704226.0,32.000000
-12,30,40,1624704226.0,32.000000
-15,31,34,1624704226.0,32.000000
-12,39,28,1624704226.0,32.000000
-8,42,30,1624704226.0,32.000000
-3,46,30,1624704226.0,32.000000
-8,52,30,1624704226.0,32.000000
-9,53,30,1624704226.0,32.000000
-15,52,23,1624704226.0,32.000000
-16,52,18,1624704226.0,32.000000
-20,54,13,1624704226.0,32.000000
-31,92,-1,1624704226.0,32.000000
-18,43,-4,1624704226.0,32.000000
-11,52,-15,1624704226.0,32.000000
-30,67,-31,1624704226.0,32.000000
-30,60,-26,1624704226.0,32.000000
-18,62,-24,1624704226.0,32.000000
-11,58,-22,1624704226.0,32.000000
-14,61,-23,1624704226.0,32.000000
-19,59,-21,1624704226.0,32.000000
-30,60,-28,1624704226.0,32.000000
-31,61,-33,1624704226.0,32.000000
-21,59,-24,1624704226.0,32.000000
-22,57,-17,1624704226.0,32.000000
-17,56,-7,1624704226.0,32.000000
-14,55,-2,1624704226.0,32.000000
-7,52,19,1624704226.0,32.000000
-5,47,33,1624704226.0,32.000000
-3,43,45,1624704226.0,32.000000
-13,45,45,1624704226.0,32.000000
-86,53,26,1624704226.0,32.000000
-31,52,56,1624704226.0,32.000000
-17,42,42,1624704226.0,32.000000
-22,49,33,1624704226.0,32.000000
-18,47,37,1624704226.0,32.000000
-20,48,39,1624704226.0,32.000000
-23,48,38,1624704226.0,32.000000
-26,48,37,1624704226.0,32.000000
-25,47,35,1624704226.0,32.000000
-24,47,35,1624704226.0,32.000000
-22,49,35,1624704226.0,32.000000
-23,49,33,1624704226.0,32.000000
-24,50,33,1624704226.0,32.000000
-21,50,33,1624704226.0,32.000000
-20,50,34,1624704226.0,32.000000
-21,48,42,1624704226.0,32.000000
-19,48,44,1624704226.0,32.000000
-24,47,39,1624704226.0,32.000000
-24,49,40,1624704226.0,32.000000
-27,53,31,1624704226.0,32.000000
-22,52,27,1624704226.0,32.000000
-16,51,29,1624704226.0,32.000000
-10,52,29,1624704226.0,32.000000
-3,51,34,1624704226.0,32.000000
-2,51,34,1624704226.0,32.000000
3,53,31,1624704226.0,32.000000
4,54,31,1624704226.0,32.000000
5,55,32,1624704226.0,32.000000
3,56,32,1624704226.0,32.000000
0,56,32,1624704226.0,32.000000
-2,55,33,1624704226.0,32.000000
-2,53,35,1624704226.0,32.000000
-2,53,36,1624704226.0,32.000000
-2,52,36,1624704226.0,32.000000
-2,53,36,1624704226.0,32.000000
-2,53,34,1624704226.0,32.000000
-3,53,34,1624704226.0,32.000000
-4,53,35,1624704226.0,32.000000
-8,53,34,1624704226.0,32.000000
-7,52,37,1624704226.0,32.000000
-8,51,37,1624704226.0,32.000000
-9,51,37,1624704226.0,32.000000
-9,51,37,1624704226.0,32.000000
-7,51,38,1624704226.0,32.000000
-9,52,38,1624704226.0,32.000000
-8,52,37,1624704226.0,32.000000
-9,53,34,1624704226.0,32.000000
-10,53,33,1624704226.0,32.000000
-10,53,35,1624704226.0,32.000000
-11,52,37,1624704226.0,32.000000
-12,51,36,1624704226.0,32.000000
-12,49,38,1624704226.0,32.000000
-11,49,40,1624704226.0,32.000000
-11,50,40,1624704226.0,32.000000
-11,50,38,1624704226.0,32.000000
-9,51,37,1624704226.0,32.000000
-8,51,36,1624704226.0,32.000000
-10,51,37,1624704226.0,32.000000
-10,51,38,1624704226.0,32.000000
-9,51,37,1624704226.0,32.000000
-8,51,37,1624704226.0,32.000000
-8,51,37,1624704226.0,32.000000
-8,51,37,1624704226.0,32.000000
-9,51,37,1624704226.0,32.000000
-14,52,40,1624704226.0,32.000000
-12,53,40,1624704226.0,32.000000
-10,53,42,1624704226.0,32.000000
-17,49,40,1624704226.0,32.000000
-17,50,39,1624704226.0,32.000000
-2,47,45,1624704226.0,32.000000
-1,47,41,1624704226.0,32.000000
-2,49,40,1624704226.0,32.000000
0,47,41,1624704226.0,32.000000
4,46,38,1624704226.0,32.000000
5,40,39,1624704226.0,32.000000
1,41,37,1624704226.0,32.000000
2,45,37,1624704226.0,32.000000
4,43,38,1624704226.0,32.000000
4,44,40,1624704226.0,32.000000
5,47,45,1624704226.0,32.000000
4,45,40,1624704226.0,32.000000
3,48,33,1624704226.0,32.000000
1,54,23,1624704226.0,32.000000
-1,44,10,1624704226.0,32.000000
-7,40,1,1624704226.0,32.000000
-27,41,-13,1624704226.0,32.000000
-27,57,-15,1624704226.0,32.000000
-29,75,-15,1624704226.0,32.000000
-32,94,11,1624704226.0,32.000000
0,59,52,1624704226.0,32.000000
-48,30,47,1624704226.0,32.000000
-55,30,20,1624704226.0,32.000000
-74,9,-1,1624704226.0,32.000000
-64,42,40,1624704226.0,32.000000
-66,42,45,1624704226.0,32.000000
-81,63,1,1624704226.0,32.000000
-36,37,23,1624704226.0,32.000000
-110,13,18,1624704226.0,32.000000
-55,41,-13,1624704226.0,32.000000
-60,20,-102,1624704226.0,32.000000
-76,-37,-46,1624704226.0,32.000000
-65,26,-27,1624704226.0,32.000000
-52,15,-21,1624704226.0,32.000000
-37,20,-8,1624704226.0,32.000000
-37,23,-5,1624704226.0,32.000000
-22,35,8,1624704226.0,32.000000
-26,42,16,1624704226.0,32.000000
-19,39,25,1624704226.0,32.000000
-30,39,35,1624704226.0,32.000000
-44,42,39,1624704226.0,32.000000
-34,44,45,1624704226.0,32.000000
-33,42,38,1624704226.0,32.000000
-42,35,40,1624704226.0,32.000000
-37,33,65,1624704226.0,32.000000
-27,29,69,1624704226.0,32.000000
-32,30,49,1624704226.0,32.000000
-34,30,35,1624704226.0,32.000000
-28,28,43,1624704226.0,32.000000
-29,29,48,1624704226.0,32.000000
-30,28,45,1624704226.0,32.000000
-34,27,43,1624704226.0,32.000000
-35,28,46,1624704226.0,32.000000
-32,27,48,1624704226.0,32.000000
-34,27,48,1624704226.0,32.000000
-32,26,45,1624704226.0,32.000000
-26,26,46,1624704226.0,32.000000
-33,24,46,1624704226.0,32.000000
-21,24,57,1624704226.0,32.000000
-27,25,53,1624704226.0,32.000000
-26,29,56,1624704226.0,32.000000
-24,27,60,1624704226.0,32.000000
-28,27,52,1624704226.0,32.000000
-27,27,52,1624704226.0,32.000000
-25,27,49,1624704226.0,32.000000
-35,24,41,1624704226.0,32.000000
-20,30,60,1624704226.0,32.000000
-35,27,50,1624704226.0,32.000000
-28,26,48,1624704226.0,32.000000
-32,25,50,1624704226.0,32.000000
-34,27,55,1624704226.0,32.000000
-28,29,50,1624704226.0,32.000000
-29,28,48,1624704226.0,32.000000
-35,35,53,1624704226.0,32.000000
-30,42,53,1624704226.0,32.000000
-32,36,39,1624704226.0,32.000000
-37,34,34,1624704226.0,32.000000
-34,36,36,1624704226.0,32.000000
-26,33,38,1624704226.0,32.000000
-28,32,36,1624704226.0,32.000000
-26,31,35,1624704226.0,32.000000
-22,28,36,1624704226.0,32.000000
-28,27,37,1624704226.0,32.000000
-29,29,39,1624704226.0,32.000000
-37,31,38,1624704226.0,32.000000
-37,27,51,1624704226.0,32.000000
-25,25,70,1624704226.0,32.000000
-10,30,70,1624704226.0,32.000000
-36,30,50,1624704226.0,32.000000
-34,26,47,1624704226.0,32.000000
-32,24,48,1624704226.0,32.000000
-32,25,48,1624704226.0,32.000000
-26,26,48,1624704226.0,32.000000
-26,25,48,1624704226.0,32.000000
-29,29,47,1624704226.0,32.000000
-30,30,47,1624704226.0,32.000000
-32,31,46,1624704226.0,32.000000
-32,29,50,1624704226.0,32.000000
-25,22,64,1624704226.0,32.000000
-23,25,60,1624704226.0,32.000000
-24,26,55,1624704226.0,32.000000
-27,26,50,1624704226.0,32.000000
-27,25,48,1624704226.0,32.000000
-30,27,47,1624704226.0,32.000000
-30,25,50,1624704226.0,32.000000
-29,24,50,1624704226.0,32.000000
-30,25,53,1624704226.0,32.000000
-26,24,54,1624704226.0,32.000000
-27,23,51,1624704226.0,32.000000
-31,23,51,1624704226.0,32.000000
-30,23,56,1624704226.0,32.000000
-28,24,57,1624704226.0,32.000000
-39,24,48,1624704226.0,32.000000
-37,28,47,1624704226.0,32.000000
-33,23,39,1624704226.0,32.000000
-43,22,35,1624704226.0,32.000000
-44,25,36,1624704226.0,32.000000
-46,26,35,1624704226.0,32.000000
-48,32,40,1624704226.0,32.000000
-44,37,46,1624704226.0,32.000000
-35,34,40,1624704226.0,32.000000
-30,30,37,1624704226.0,32.000000
-22,27,37,1624704226.0,32.000000
-24,25,36,1624704226.0,32.000000
-24,22,34,1624704226.0,32.000000
-20,25,48,1624704226.0,32.000000
-26,26,55,1624704226.0,32.000000
-43,31,49,1624704226.0,32.000000
-32,23,43,1624704226.0,32.000000
-36,26,45,1624704226.0,32.000000
-23,27,57,1624704226.0,32.000000
-21,26,64,1624704226.0,32.000000
-21,25,63,1624704226.0,32.000000
-26,27,57,1624704226.0,32.000000
-27,25,54,1624704226.0,32.000000
-27,23,52,1624704226.0,32.000000
-27,21,53,1624704226.0,32.000000
-24,21,54,1624704226.0,32.000000
-24,22,55,1624704226.0,32.000000
-23,22,55,1624704226.0,32.000000
-24,22,55,1624704226.0,32.000000
-24,22,55,1624704226.0,32.000000
-23,21,55,1624704226.0,32.000000
-24,22,55,1624704226.0,32.000000
-24,22,55,1624704226.0,32.000000
-23,21,55,1624704226.0,32.000000
-23,21,54,1624704226.0,32.000000
-23,21,54,1624704226.0,32.000000
-23,21,54,1624704226.0,32.000000
-23,21,54,1624704226.0,32.000000
-23,22,55,1624704226.0,32.000000
-23,22,54,1624704226.0,32.000000
-23,22,55,1624704226.0,32.000000
-23,22,54,1624704226.0,32.000000
-23,23,53,1624704226.0,32.000000
-25,23,54,1624704226.0,32.000000
-24,23,54,1624704226.0,32.000000
-23,24,55,1624704226.0,32.000000
-25,25,54,1624704226.0,32.000000
-25,24,53,1624704226.0,32.000000
-25,24,54,1624704226.0,32.000000
-24,23,54,1624704226.0,32.000000
-24,23,54,1624704226.0,32.000000
-25,24,52,1624704226.0,32.000000
-25,24,52,1624704226.0,32.000000
-25,23,52,1624704226.0,32.000000
-24,23,54,1624704226.0,32.000000
-24,23,54,1624704226.0,32.000000
-24,23,54,1624704226.0,32.000000
-24,23,55,1624704226.0,32.000000
-23,23,54,1624704226.0,32.000000
-25,23,54,1624704226.0,32.000000
-24,23,54,1624704226.0,32.000000
-24,23,54,1624704226.0,32.000000
-25,23,53,1624704226.0,32.000000
-24,23,53,1624704226.0,32.000000
-25,24,53,1624704226.0,32.000000
-24,24,53,1624704226.0,32.000000
-25,23,53,1624704226.0,32.000000
-25,24,53,1624704226.0,32.000000
-25,24,53,1624704226.0,32.000000
-25,24,55,1624704226.0,32.000000
-24,23,54,1624704226.0,32.000000
-24,24,53,1624704226.0,32.000000
-26,25,54,1624704226.0,32.000000
-24,25,52,1624704226.0,32.000000
-25,24,53,1624704226.0,32.000000
-24,23,53,1624704226.0,32.000000
-24,23,54,1624704226.0,32.000000
-24,23,54,1624704226.0,32.000000
-25,23,53,1624704226.0,32.000000
-25,24,53,1624704226.0,32.000000
-25,24,53,1624704226.0,32.000000
-25,24,53,1624704226.0,32.000000
-25,23,53,1624704226.0,32.000000
-25,22,54,1624704226.0,32.000000
-25,22,54,1624704226.0,32.000000
-25,22,54,1624704226.0,32.000000
-25,23,53,1624704226.0,32.000000
-25,23,53,1624704226.0,32.000000
-25,23,53,1624704226.0,32.000000
-25,23,53,1624704226.0,32.000000
-25,23,54,1624704226.0,32.000000
-25,24,53,1624704226.0,32.000000
-25,23,53,1624704226.0,32.000000
-25,24,53,1624704226.0,32.000000
-25,23,53,1624704226.0,32.000000
-25,23,53,1624704226.0,32.000000
-25,24,53,1624704226.0,32.000000
-25,24,53,1624704226.0,32.000000
-25,24,53,1624704226.0,32.000000
-25,24,53,1624704226.0,32.000000
-25,24,53,1624704226.0,32.000000
-25,24,53,1624704226.0,32.000000
-25,24,53,1624704226.0,32.000000
-25,24,53,1624704226.0,32.000000
-25,24,53,1624704226.0,32.000000
-25,24,53,1624704226.0,32.000000
-25,24,53,1624704226.0,32.000000
-25,24,53,1624704226.0,32.000000
-25,24,53,1624704226.0,32.000000
-25,23,53,1624704226.0,32.000000
-25,23,53,1624704226.0,32.000000
-25,23,53,1624704226.0,32.000000
-25,23,53,1624704226.0,32.000000
-25,24,53,1624704226.0,32.000000
-25,23,53,1624704226.0,32.000000
-25,23,53,1624704226.0,32.000000
-25,23,53,1624704226.0,32.000000
-25,23,53,1624704226.0,32.000000
-25,23,53,1624704226.0,32.000000
-25,23,53,1624704226.0,32.000000
-25,23,53,1624704226.0,32.000000
-25,23,53,1624704226.0,32.000000
-25,23,53,1624704226.0,32.000000
-25,23,53,1624704226.0,32.000000
-25,23,53,1624704226.0,32.000000
-25,24,53,1624704226.0,32.000000
-25,23,53,1624704226.0,32.000000
-25,24,53,1624704226.0,32.000000
-25,23,53,1624704226.0,32.000000
-25,24,53,1624704226.0,32.000000
-25,24,53,1624704226.0,32.000000
-25,24,53,1624704226.0,32.000000
-25,24,53,1624704226.0,32.000000
-25,24,53,1624704226.0,32.000000
-25,24,53,1624704226.0,32.000000
-25,24,53,1624704226.0,32.000000
-25,24,53,1624704226.0,32.000000
-25,24,53,1624704226.0,32.000000
-25,24,53,1624704226.0,32.000000
-25,24,53,1624704226.0,32.000000
-25,24,53,1624704226.0,32.000000
-25,24,53,1624704226.0,32.000000
-25,24,53,1624704226.0,32.000000
-25,24,53,1624704226.0,32.000000
-25,24,53,1624704226.0,32.000000
-25,24,53,1624704226.0,32.000000
-25,24,53,1624704226.0,32.000000
-25,24,53,1624704226.0,32.000000
-25,24,53,1624704226.0,32.000000
-25,24,53,1624704226.0,32.000000
-25,23,53,1624704226.0,32.000000
-25,23,53,1624704226.0,32.000000
-25,24,53,1624704226.0,32.000000
-25,23,53,1624704226.0,32.000000
-25,23,53,1624704226.0,32.000000
-25,24,53,1624704226.0,32.000000
-25,24,53,1624704226.0,32.000000
-25,24,53,1624704226.0,32.000000
-25,24,53,1624704226.0,32.000000
-25,24,53,1624704226.0,32.000000
-25,24,53,1624704226.0,32.000000
-25,24,53,1624704226.0,32.000000
-25,24,53,1624704226.0,32.000000
-25,24,53,1624704226.0,32.000000
-25,24,53,1624704226.0,32.000000
-25,24,53,1624704226.0,32.000000
-25,25,53,1624704226.0,32.000000
-26,24,52,1624704226.0,32.000000
-26,24,52,1624704226.0,32.000000
-25,24,53,1624704226.0,32.000000
-25,24,53,1624704226.0,32.000000
-25,24,53,1624704226.0,32.000000
-25,24,53,1624704226.0,32.000000
-26,24,53,1624704226.0,32.000000
-25,24,53,1624704226.0,32.000000
-25,24,53,1624704226.0,32.000000
-25,24,53,1624704226.0,32.000000
-25,24,53,1624704226.0,32.000000
-25,24,53,1624704226.0,32.000000
-25,24,53,1624704226.0,32.000000
-25,24,53,1624704226.0,32.000000
-25,24,53,1624704226.0,32.000000
-25,24,53,1624704226.0,32.000000
-25,23,53,1624704226.0,32.000000
-25,24,53,1624704226.0,32.000000
-25,23,53,1624704226.0,32.000000
-26,24,53,1624704226.0,32.000000
-25,24,53,1624704226.0,32.000000
-25,24,53,1624704226.0,32.000000
-25,24,53,1624704226.0,32.000000
-25,24,53,1624704226.0,32.000000
-25,24,53,1624704226.0,32.000000
-25,24,53,1624704226.0,32.000000
-25,24,53,1624704226.0,32.000000
-25,24,53,1624704226.0,32.000000
-25,24,53,1624704226.0,32.000000
-25,24,53,1624704226.0,32.000000
-25,24,53,1624704226.0,32.000000
-25,24,53,1624704226.0,32.000000
-25,24,53,1624704226.0,32.000000
-25,24,53,1624704226.0,32.000000
-25,24,53,1624704226.0,32.000000
-25,24,53,1624704226.0,32.000000
-25,24,53,1624704226.0,32.000000
-25,24,53,1624704226.0,32.000000
-25,24,53,1624704226.0,32.000000
-25,24,53,1624704226.0,32.000000
-25,24,53,1624704226.0,32.000000
-25,24,53,1624704226.0,32.000000
-25,24,53,1624704226.0,32.000000
-25,24,53,1624704226.0,32.000000
-25,24,53,1624704226.0,32.000000
-25,24,53,1624704226.0,32.000000
-25,24,53,1624704226.0,32.000000
-25,24,53,1624704226.0,32.000000
-25,24,53,1624704226.0,32.000000
-25,24,53,1624704226.0,32.000000
-25,24,53,1624704226.0,32.000000
-25,24,53,1624704226.0,32.000000
-25,24,53,1624704226.0,32.000000
-25,24,53,1624704226.0,32.000000
-25,23,53,1624704226.0,32.000000
-25,24,53,1624704226.0,32.000000
-25,24,53,1624704226.0,32.000000
-25,24,53,1624704226.0,32.000000
-25,23,53,1624704226.0,32.000000
-25,23,53,1624704226.0,32.000000
-25,24,53,1624704226.0,32.000000
-25,24,53,1624704226.0,32.000000
-25,24,53,1624704226.0,32.000000
-25,24,53,1624704226.0,32.000000
-25,24,53,1624704226.0,32.000000
-25,24,53,1624704226.0,32.000000
-25,24,53,1624704226.0,32.000000
-25,24,53,1624704226.0,32.000000
-25,24,53,1624704226.0,32.000000
-25,24,53,1624704226.0,32.000000
-25,24,53,1624704226.0,32.000000
-25,24,53,1624704226.0,32.000000
-25,24,53,1624704226.0,32.000000
-25,24,53,1624704226.0,32.000000
-25,24,53,1624704226.0,32.000000
-25,24,53,1624704226.0,32.000000
-25,24,53,1624704226.0,32.000000
-25,24,53,1624704226.0,32.000000
-25,23,53,1624704226.0,32.000000
-25,24,53,1624704226.0,32.000000
-25,24,53,1624704226.0,32.000000
-25,24,53,1624704226.0,32.000000
-25,24,53,1624704226.0,32.000000
-25,24,53,1624704226.0,32.000000
-25,24,53,1624704226.0,32.000000
-25,24,53,1624704226.0,32.000000
-25,24,53,1624704226.0,32.000000
-25,24,53,1624704226.0,32.000000
-25,24,53,1624704226.0,32.000000
-25,24,53,1624704226.0,32.000000
-25,24,53,1624704226.0,32.000000
-25,24,53,1624704226.0,32.000000
-25,24,52,1624704226.0,32.000000
-25,24,53,1624704226.0,32.000000
-25,24,53,1624704226.0,32.000000
-25,25,53,1624704226.0,32.000000
-25,25,53,1624704226.0,32.000000
-25,24,53,1624704226.0,32.000000
-25,25,53,1624704226.0,32.000000
-25,24,53,1624704226.0,32.000000
-25,24,53,1624704226.0,32.000000
-25,24,53,1624704226.0,32.000000
-25,24,53,1624704226.0,32.000000
-25,24,53,1624704226.0,32.000000
-25,24,53,1624704226.0,32.000000
-25,24,53,1624704226.0,32.000000
-25,24,53,1624704226.0,32.000000
-25,25,53,1624704226.0,32.000000
-25,24,53,1624704226.0,32.000000
-25,25,53,1624704226.0,32.000000
-25,24,53,1624704226.0,32.000000
-25,25,53,1624704226.0,32.000000
-25,25,53,1624704226.0,32.000000
-25,25,53,1624704226.0,32.000000
-25,25,53,1624704226.0,32.000000
-25,25,53,1624704226.0,32.000000
-25,24,53,1624704226.0,32.000000
-25,24,53,1624704226.0,32.000000
-25,25,53,1624704226.0,32.000000
-25,25,53,1624704226.0,32.000000
-25,24,53,1624704226.0,32.000000
-25,24,53,1624704226.0,32.000000
-25,24,53,1624704226.0,32.000000
-25,24,53,1624704226.0,32.000000
-25,24,53,1624704226.0,32.000000
-25,24,53,1624704226.0,32.000000
-25,24,53,1624704226.0,32.000000
-25,24,53,1624704226.0,32.000000
-25,24,53,1624704226.0,32.000000
-25,24,53,1624704226.0,32.000000
-25,24,53,1624704226.0,32.000000
-25,24,53,1624704226.0,32.000000
-25,24,53,1624704226.0,32.000000
-25,24,53,1624704226.0,32.000000
-25,24,53,1624704226.0,32.000000
-25,24,53,1624704226.0,32.000000
-25,24,53,1624704226.0,32.000000
-25,24,53,1624704226.0,32.000000
-25,24,53,1624704226.0,32.000000
-25,24,53,1624704226.0,32.000000
-25,24,53,1624704226.0,32.000000
-25,24,53,1624704226.0,32.000000
-25,24,53,1624704226.0,32.000000
-25,24,53,1624704226.0,32.000000
-25,24,53,1624704226.0,32.000000
-25,24,53,1624704226.0,32.000000
-25,24,53,1624704226.0,32.000000
-25,24,53,1624704226.0,32.000000
-25,24,53,1624704226.0,32.000000
-25,24,53,1624704226.0,32.000000
-25,25,53,1624704226.0,32.000000
-25,25,53,1624704226.0,32.000000
-25,24,53,1624704226.0,32.000000
-25,25,53,1624704226.0,32.000000
-25,25,53,1624704226.0,32.000000
-25,25,53,1624704226.0,32.000000
-25,25,53,1624704226.0,32.000000
-25,25,53,1624704226.0,32.000000
-25,25,53,1624704226.0,32.000000
-25,25,53,1624704226.0,32.000000
-25,25,53,1624704226.0,32.000000
-25,25,53,1624704226.0,32.000000
-25,25,53,1624704226.0,32.000000
-25,25,53,1624704226.0,32.000000
-25,24,53,1624704226.0,32.000000
-25,25,53,1624704226.0,32.000000
-25,25,53,1624704226.0,32.000000
-24,24,53,1624704226.0,32.000000
-25,24,53,1624704226.0,32.000000
-25,25,53,1624704226.0,32.000000
-25,26,53,1624704226.0,32.000000
-25,25,53,1624704226.0,32.000000
-25,24,53,1624704226.0,32.000000
-25,24,53,1624704226.0,32.000000
-25,24,53,1624704226.0,32.000000
-25,24,53,1624704226.0,32.000000
-25,25,52,1624704226.0,32.000000
-25,25,53,1624704226.0,32.000000
-25,25,53,1624704226.0,32.000000
-25,25,53,1624704226.0,32.000000
-25,24,53,1624704226.0,32.000000
-25,24,53,1624704226.0,32.000000
-25,24,53,1624704226.0,32.000000
-25,24,52,1624704226.0,32.000000
-25,24,53,1624704226.0,32.000000
-25,25,53,1624704226.0,32.000000
-25,24,53,1624704226.0,32.000000
-25,24,53,1624704226.0,32.000000
-25,25,53,1624704226.0,32.000000
-25,26,53,1624704226.0,32.000000
-25,25,53,1624704226.0,32.000000
-25,24,53,1624704226.0,32.000000
-25,24,53,1624704226.0,32.000000
-25,24,53,1624704226.0,32.000000
-25,24,53,1624704226.0,32.000000
-25,25,52,1624704226.0,32.000000
-25,26,52,1624704226.0,32.000000
-25,26,53,1624704226.0,32.000000
-25,25,53,1624704226.0,32.000000
-25,24,53,1624704226.0,32.000000
-24,24,53,1624704226.0,32.000000
-25,24,53,1624704226.0,32.000000
-25,24,52,1624704226.0,32.000000
-25,25,53,1624704226.0,32.000000
-25,25,53,1624704226.0,32.000000
-25,25,53,1624704226.0,32.000000
-25,25,53,1624704226.0,32.000000
-25,25,53,1624704226.0,32.000000
-25,25,53,1624704226.0,32.000000
-25,25,53,1624704226.0,32.000000
-25,25,53,1624704226.0,32.000000
-25,25,53,1624704226.0,32.000000
-25,25,53,1624704226.0,32.000000
-25,25,53,1624704226.0,32.000000
-25,25,53,1624704226.0,32.000000
-25,25,53,1624704226.0,32.000000
-25,25,53,1624704226.0,32.000000
-25,25,53,1624704226.0,32.000000
-25,25,53,1624704226.0,32.000000
-25,25,53,1624704226.0,32.000000
-25,25,53,1624704226.0,32.000000
-25,25,52,1624704226.0,32.000000
-25,25,53,1624704226.0,32.000000
-25,25,53,1624704226.0,32.000000
-25,25,53,1624704226.0,32.000000
-25,25,53,1624704226.0,32.000000
-25,25,53,1624704226.0,32.000000
-25,25,53,1624704226.0,32.000000
-25,25,53,1624704226.0,32.000000
-25,25,53,1624704226.0,32.000000
-25,25,53,1624704226.0,32.000000
-25,25,53,1624704226.0,32.000000
-25,25,53,1624704226.0,32.000000
-25,25,53,1624704226.0,32.000000
-25,25,53,1624704226.0,32.000000
-25,25,53,1624704226.0,32.000000
-25,25,53,1624704226.0,32.000000
-25,25,53,1624704226.0,32.000000
-25,25,53,1624704226.0,32.000000
-25,25,53,1624704226.0,32.000000
-25,25,53,1624704226.0,32.000000
-25,25,53,1624704226.0,32.000000
-25,25,53,1624704226.0,32.000000
-25,25,53,1624704226.0,32.000000
-25,25,53,1624704226.0,32.000000
-25,25,53,1624704226.0,32.000000
-25,25,53,1624704226.0,32.000000
-25,25,53,1624704226.0,32.000000
-25,25,53,1624704226.0,32.000000
-25,25,53,1624704226.0,32.000000
-25,25,53,1624704226.0,32.000000
-25,25,53,1624704226.0,32.000000
-25,25,53,1624704226.0,32.000000
-25,25,53,1624704226.0,32.000000
-25,24,53,1624704226.0,32.000000
-25,25,53,1624704226.0,32.000000
-25,25,53,1624704226.0,32.000000
-25,24,53,1624704226.0,32.000000
-25,25,53,1624704226.0,32.000000
-25,24,53,1624704226.0,32.000000
-25,24,53,1624704226.0,32.000000
-25,24,53,1624704226.0,32.000000
-25,24,53,1624704226.0,32.000000
-25,25,53,1624704226.0,32.000000
-25,24,53,1624704226.0,32.000000
-25,24,53,1624704226.0,32.000000
-25,24,53,1624704226.0,32.000000
-25,24,52,1624704226.0,32.000000
-25,24,53,1624704226.0,32.000000
-25,25,53,1624704226.0,32.000000
-25,24,53,1624704226.0,32.000000
-25,25,53,1624704226.0,32.000000
-25,24,53,1624704226.0,32.000000
-25,24,53,1624704226.0,32.000000
-25,24,53,1624704226.0,32.000000
-25,25,52,1624704226.0,32.000000
-25,24,53,1624704226.0,32.000000
-25,24,53,1624704226.0,32.000000
-25,24,53,1624704226.0,32.000000
-25,24,53,1624704226.0,32.000000
-25,25,53,1624704226.0,32.000000
-25,24,53,1624704226.0,32.000000
-25,25,53,1624704226.0,32.000000
-25,24,53,1624704226.0,32.000000
-25,24,53,1624704226.0,32.000000
-25,24,53,1624704226.0,32.000000
-25,25,53,1624704226.0,32.000000
-25,25,53,1624704226.0,32.000000
-25,25,53,1624704226.0,32.000000
-25,25,53,1624704226.0,32.000000
-25,25,53,1624704226.0,32.000000
-25,25,53,1624704226.0,32.000000
-25,25,53,1624704226.0,32.000000
-25,25,53,1624704226.0,32.000000
-25,25,53,1624704226.0,32.000000
-25,25,53,1624704226.0,32.000000
-25,25,53,1624704226.0,32.000000
-25,25,53,1624704226.0,32.000000
-25,25,53,1624704226.0,32.000000
-25,25,53,1624704226.0,32.000000
-25,25,53,1624704226.0,32.000000
-25,25,53,1624704226.0,32.000000
-25,25,53,1624704226.0,32.000000
-25,25,53,1624704226.0,32.000000
-25,25,53,1624704226.0,32.000000
-25,25,53,1624704226.0,32.000000
-25,25,53,1624704226.0,32.000000
-25,24,53,1624704226.0,32.000000
-25,25,53,1624704226.0,32.000000
-25,25,53,1624704226.0,32.000000
-25,24,53,1624704226.0,32.000000
-25,24,53,1624704226.0,32.000000
-25,23,53,1624704226.0,32.000000
-25,24,52,1624704226.0,32.000000
-25,23,52,1624704226.0,32.000000
-25,23,53,1624704226.0,32.000000
-25,23,53,1624704226.0,32.000000
-25,24,54,1624704226.0,32.000000
-25,25,53,1624704226.0,32.000000
-25,25,52,1624704226.0,32.000000
-25,23,53,1624704226.0,32.000000
-25,22,53,1624704226.0,32.000000
-25,21,53,1624704226.0,32.000000
-25,22,53,1624704226.0,32.000000
-25,22,53,1624704226.0,32.000000
-24,22,54,1624704226.0,32.000000
-24,22,54,1624704226.0,32.000000
-25,23,54,1624704226.0,32.000000
-25,24,54,1624704226.0,32.000000
-25,23,54,1624704226.0,32.000000
-25,23,53,1624704226.0,32.000000
-25,23,54,1624704226.0,32.000000
-24,23,54,1624704226.0,32.000000
-24,22,54,1624704226.0,32.000000
-24,22,53,1624704226.0,32.000000
-25,23,53,1624704226.0,32.000000
-25,23,53,1624704226.0,32.000000
-25,23,53,1624704226.0,32.000000
-24,23,54,1624704226.0,32.000000
-24,24,54,1624704226.0,32.000000
-24,24,54,1624704226.0,32.000000
-24,24,54,1624704226.0,32.000000
-25,24,54,1624704226.0,32.000000
-25,24,53,1624704226.0,32.000000
-25,23,55,1624704226.0,32.000000
-25,23,57,1624704226.0,32.000000
-27,21,62,1624704226.0,32.000000
-31,22,65,1624704226.0,32.000000
-12,29,73,1624704226.0,32.000000
-15,32,62,1624704226.0,32.000000
-23,34,56,1624704226.0,32.000000
-28,36,47,1624704226.0,32.000000
-32,37,48,1624704226.0,32.000000
-27,41,49,1624704226.0,32.000000
-10,40,52,1624704226.0,32.000000
-12,41,51,1624704226.0,32.000000
-14,42,44,1624704226.0,32.000000
-11,44,42,1624704226.0,32.000000
-9,44,43,1624704226.0,32.000000
-6,45,43,1624704226.0,32.000000
-6,46,42,1624704226.0,32.000000
-7,47,42,1624704226.0,32.000000
-4,48,37,1624704226.0,32.000000
-1,48,34,1624704226.0,32.000000
-2,48,33,1624704226.0,32.000000
-5,48,32,1624704226.0,32.000000
-3,49,27,1624704226.0,32.000000
-6,49,25,1624704226.0,32.000000
-11,49,26,1624704226.0,32.000000
-7,50,27,1624704226.0,32.000000
-6,51,28,1624704226.0,32.000000
-10,50,28,1624704226.0,32.000000
-6,51,29,1624704226.0,32.000000
-4,51,29,1624704226.0,32.000000
-6,48,31,1624704226.0,32.000000
-10,46,35,1624704226.0,32.000000
-7,46,37,1624704226.0,32.000000
-2,46,41,1624704226.0,32.000000
-1,42,42,1624704226.0,32.000000
-1,40,43,1624704226.0,32.000000
-7,34,46,1624704226.0,32.000000
-14,29,46,1624704226.0,32.000000
-28,22,43,1624704226.0,32.000000
-35,20,45,1624704226.0,32.000000
-61,12,39,1624704226.0,32.000000
-57,21,42,1624704226.0,32.000000
-57,22,44,1624704226.0,32.000000
-54,25,47,1624704226.0,32.000000
-52,24,54,1624704226.0,32.000000
-44,23,52,1624704226.0,32.000000
-33,22,44,1624704226.0,32.000000
-30,21,46,1624704226.0,32.000000
-33,21,50,1624704226.0,32.000000
-37,22,52,1624704226.0,32.000000
-31,21,55,1624704226.0,32.000000
-30,18,53,1624704226.0,32.000000
-30,17,54,1624704226.0,32.000000
-30,17,55,1624704226.0,32.000000
-30,17,56,1624704226.0,32.000000
-28,14,60,1624704226.0,32.000000
-24,13,59,1624704226.0,32.000000
-22,11,57,1624704226.0,32.000000
-17,11,60,1624704226.0,32.000000
-12,10,59,1624704226.0,32.000000
-9,12,56,1624704226.0,32.000000
-11,15,64,1624704226.0,32.000000
-24,15,68,1624704226.0,32.000000
-35,13,73,1624704226.0,32.000000
-24,10,64,1624704226.0,32.000000
-19,14,53,1624704226.0,32.000000
-19,15,46,1624704226.0,32.000000
-20,20,46,1624704226.0,32.000000
-20,22,50,1624704226.0,32.000000
-25,24,54,1624704226.0,32.000000
-27,20,56,1624704226.0,32.000000
-25,20,56,1624704226.0,32.000000
-25,20,56,1624704226.0,32.000000
-23,19,56,1624704226.0,32.000000
-20,20,54,1624704226.0,32.000000
-19,20,54,1624704226.0,32.000000
-20,20,54,1624704226.0,32.000000
-21,21,56,1624704226.0,32.000000
-22,21,56,1624704226.0,32.000000
-24,19,56,1624704226.0,32.000000
-23,18,56,1624704226.0,32.000000
-24,17,55,1624704226.0,32.000000
-25,17,55,1624704226.0,32.000000
-29,16,54,1624704226.0,32.000000
-36,16,50,1624704226.0,32.000000
-42,16,50,1624704226.0,32.000000
-41,17,50,1624704226.0,32.000000
-40,16,46,1624704226.0,32.000000
-40,16,44,1624704226.0,32.000000
-43,16,43,1624704226.0,32.000000
-41,16,46,1624704226.0,32.000000
-42,15,46,1624704226.0,32.000000
-39,17,45,1624704226.0,32.000000
-43,15,42,1624704226.0,32.000000
-44,16,46,1624704226.0,32.000000
-36,16,50,1624704226.0,32.000000
-37,15,48,1624704226.0,32.000000
-38,14,48,1624704226.0,32.000000
-38,13,50,1624704226.0,32.000000
-38,13,49,1624704226.0,32.000000
-39,12,49,1624704226.0,32.000000
-39,13,49,1624704226.0,32.000000
-39,13,49,1624704226.0,32.000000
-39,13,48,1624704226.0,32.000000
-39,13,48,1624704226.0,32.000000
-38,14,48,1624704226.0,32.000000
-38,14,48,1624704226.0,32.000000
-38,14,48,1624704226.0,32.000000
-39,14,48,1624704226.0,32.000000
-38,14,48,1624704226.0,32.000000
-38,13,49,1624704226.0,32.000000
-38,13,49,1624704226.0,32.000000
-38,13,48,1624704226.0,32.000000
-38,13,49,1624704226.0,32.000000
-38,13,49,1624704226.0,32.000000
-38,13,48,1624704226.0,32.000000
-38,13,49,1624704226.0,32.000000
-38,13,48,1624704226.0,32.000000
-38,13,49,1624704226.0,32.000000
-38,13,48,1624704226.0,32.000000
-38,13,49,1624704226.0,32.000000
-38,13,48,1624704226.0,32.000000
-38,13,49,1624704226.0,32.000000
-38,13,49,1624704226.0,32.000000
-38,13,48,1624704226.0,32.000000
-38,13,49,1624704226.0,32.000000
-39,12,49,1624704226.0,32.000000
-39,13,48,1624704226.0,32.000000
-39,13,48,1624704226.0,32.000000
-39,13,48,1624704226.0,32.000000
-39,13,48,1624704226.0,32.000000
-39,13,49,1624704226.0,32.000000
-43,13,45,1624704226.0,32.000000
-43,13,47,1624704226.0,32.000000
-38,12,51,1624704226.0,32.000000
-38,13,49,1624704226.0,32.000000
-31,15,54,1624704226.0,32.000000
-27,14,56,1624704226.0,32.000000
-33,13,54,1624704226.0,32.000000
-19,13,61,1624704226.0,32.000000
-13,14,60,1624704226.0,32.000000
-17,15,57,1624704226.0,32.000000
-8,13,66,1624704226.0,32.000000
5,14,63,1624704226.0,32.000000
-2,20,50,1624704226.0,32.000000
9,22,60,1624704226.0,32.000000
8,24,60,1624704226.0,32.000000
4,24,54,1624704226.0,32.000000
3,24,57,1624704226.0,32.000000
3,21,60,1624704226.0,32.000000
-1,18,62,1624704226.0,32.000000
-6,17,62,1624704226.0,32.000000
-5,17,61,1624704226.0,32.000000
-7,16,62,1624704226.0,32.000000
-4,16,64,1624704226.0,32.000000
-1,17,63,1624704226.0,32.000000
-2,18,60,1624704226.0,32.000000
-4,19,59,1624704226.0,32.000000
-4,19,58,1624704226.0,32.000000
-6,19,59,1624704226.0,32.000000
-9,19,60,1624704226.0,32.000000
-9,18,62,1624704226.0,32.000000
-7,18,62,1624704226.0,32.000000
-5,17,60,1624704226.0,32.000000
-6,17,60,1624704226.0,32.000000
-6,18,60,1624704226.0,32.000000
-6,19,60,1624704226.0,32.000000
-7,18,60,1624704226.0,32.000000
-8,18,60,1624704226.0,32.000000
-8,18,58,1624704226.0,32.000000
-9,18,58,1624704226.0,32.000000
-8,20,61,1624704226.0,32.000000
-7,17,60,1624704226.0,32.000000
-8,18,58,1624704226.0,32.000000
-5,17,62,1624704226.0,32.000000
-3,17,62,1624704226.0,32.000000
-4,17,60,1624704226.0,32.000000
-4,16,61,1624704226.0,32.000000
-6,16,61,1624704226.0,32.000000
-6,16,59,1624704226.0,32.000000
-11,17,62,1624704226.0,32.000000
-7,16,64,1624704226.0,32.000000
-7,16,60,1624704226.0,32.000000
-5,17,59,1624704226.0,32.000000
-8,18,59,1624704226.0,32.000000
-8,19,58,1624704226.0,32.000000
-9,20,59,1624704226.0,32.000000
-9,19,61,1624704226.0,32.000000
-9,17,60,1624704226.0,32.000000
-8,16,61,1624704226.0,32.000000
-8,16,61,1624704226.0,32.000000
-8,16,62,1624704226.0,32.000000
-8,16,61,1624704226.0,32.000000
-8,18,61,1624704226.0,32.000000
-9,18,60,1624704226.0,32.000000
-9,18,60,1624704226.0,32.000000
-9,18,59,1624704226.0,32.000000
-10,18,59,1624704226.0,32.000000
-10,18,59,1624704226.0,32.000000
-11,18,61,1624704226.0,32.000000
-11,18,60,1624704226.0,32.000000
-11,18,60,1624704226.0,32.000000
-11,17,60,1624704226.0,32.000000
-11,17,60,1624704226.0,32.000000
-11,18,60,1624704226.0,32.000000
-11,18,60,1624704226.0,32.000000
-11,18,59,1624704226.0,32.000000
-12,19,60,1624704226.0,32.000000
-12,19,60,1624704226.0,32.000000
-12,18,59,1624704226.0,32.000000
-12,18,59,1624704226.0,32.000000
-11,18,59,1624704226.0,32.000000
-13,18,60,1624704226.0,32.000000
-12,18,60,1624704226.0,32.000000
-12,17,59,1624704226.0,32.000000
-12,18,60,1624704226.0,32.000000
-12,17,60,1624704226.0,32.000000
-12,18,59,1624704226.0,32.000000
-12,18,59,1624704226.0,32.000000
-12,18,59,1624704226.0,32.000000
-12,18,59,1624704226.0,32.000000
-12,18,59,1624704226.0,32.000000
-12,17,59,1624704226.0,32.000000
-12,17,60,1624704226.0,32.000000
-12,17,59,1624704226.0,32.000000
-13,18,60,1624704226.0,32.000000
-12,17,60,1624704226.0,32.000000
-12,17,60,1624704226.0,32.000000
-13,17,59,1624704226.0,32.000000
-12,18,60,1624704226.0,32.000000
-13,18,59,1624704226.0,32.000000
-13,18,59,1624704226.0,32.000000
-12,17,59,1624704226.0,32.000000
-12,17,60,1624704226.0,32.000000
-12,18,60,1624704226.0,32.000000
-13,18,60,1624704226.0,32.000000
-12,18,59,1624704226.0,32.000000
-12,18,59,1624704226.0,32.000000
-12,18,59,1624704226.0,32.000000
-12,18,59,1624704226.0,32.000000
-12,18,59,1624704226.0,32.000000
-12,17,60,1624704226.0,32.000000
-13,17,60,1624704226.0,32.000000
-12,17,60,1624704226.0,32.000000
-12,17,60,1624704226.0,32.000000
-12,17,60,1624704226.0,32.000000
-13,17,59,1624704226.0,32.000000
-13,18,59,1624704226.0,32.000000
-12,18,59,1624704226.0,32.000000
-13,18,59,1624704226.0,32.000000
-13,18,59,1624704226.0,32.000000
-12,18,59,1624704226.0,32.000000
-12,18,60,1624704226.0,32.000000
-12,17,59,1624704226.0,32.000000
-12,18,60,1624704226.0,32.000000
-13,18,59,1624704226.0,32.000000
-13,18,59,1624704226.0,32.000000
-12,18,59,1624704226.0,32.000000
-13,18,59,1624704226.0,32.000000
-13,18,60,1624704226.0,32.000000
-13,18,59,1624704226.0,32.000000
-12,18,59,1624704226.0,32.000000
-12,17,60,1624704226.0,32.000000
-12,17,60,1624704226.0,32.000000
-12,18,60,1624704226.0,32.000000
-12,18,60,1624704226.0,32.000000
-12,18,59,1624704226.0,32.000000
-12,18,59,1624704226.0,32.000000
-12,18,59,1624704226.0,32.000000
-12,18,60,1624704226.0,32.000000
-12,18,59,1624704226.0,32.000000
-12,18,60,1624704226.0,32.000000
-12,18,59,1624704226.0,32.000000
-12,18,59,1624704226.0,32.000000
-12,18,59,1624704226.0,32.000000
-13,18,59,1624704226.0,32.000000
-12,18,59,1624704226.0,32.000000
-11,18,60,1624704226.0,32.000000
-12,18,60,1624704226.0,32.000000
-13,18,59,1624704226.0,32.000000
-12,18,59,1624704226.0,32.000000
-11,18,59,1624704226.0,32.000000
-12,18,60,1624704226.0,32.000000
-11,18,59,1624704226.0,32.000000
-11,18,59,1624704226.0,32.000000
-11,18,60,1624704226.0,32.000000
-11,18,60,1624704226.0,32.000000
-11,17,59,1624704226.0,32.000000
-11,17,59,1624704226.0,32.000000
-11,17,60,1624704226.0,32.000000
-11,17,60,1624704226.0,32.000000
-11,17,60,1624704226.0,32.000000
-11,17,60,1624704226.0,32.000000
-12,17,60,1624704226.0,32.000000
-12,16,60,1624704226.0,32.000000
-12,16,60,1624704226.0,32.000000
-12,16,60,1624704226.0,32.000000
-12,16,61,1624704226.0,32.000000
-11,17,60,1624704226.0,32.000000
-11,17,60,1624704226.0,32.000000
-12,16,60,1624704226.0,32.000000
-11,16,60,1624704226.0,32.000000
-11,17,60,1624704226.0,32.000000
-13,17,59,1624704226.0,32.000000
-12,17,60,1624704226.0,32.000000
-11,17,60,1624704226.0,32.000000
-12,17,60,1624704226.0,32.000000
-12,17,60,1624704226.0,32.000000
-14,17,59,1624704226.0,32.000000
-12,17,60,1624704226.0,32.000000
-10,17,61,1624704226.0,32.000000
-11,17,60,1624704226.0,32.000000
-9,17,61,1624704226.0,32.000000
-6,17,61,1624704226.0,32.000000
-7,17,60,1624704226.0,32.000000
-9,18,60,1624704226.0,32.000000
-1,17,61,1624704226.0,32.000000
-1,18,60,1624704226.0,32.000000
-1,19,60,1624704226.0,32.000000
-1,18,60,1624704226.0,32.000000
2,18,60,1624704226.0,32.000000
3,20,60,1624704226.0,32.000000
3,18,61,1624704226.0,32.000000
7,17,61,1624704226.0,32.000000
9,18,61,1624704226.0,32.000000
11,17,62,1624704226.0,32.000000
15,16,60,1624704226.0,32.000000
15,16,60,1624704226.0,32.000000
15,17,59,1624704226.0,32.000000
18,16,59,1624704226.0,32.000000
19,16,59,1624704226.0,32.000000
17,17,57,1624704226.0,32.000000
16,17,57,1624704226.0,32.000000
16,17,58,1624704226.0,32.000000
17,16,57,1624704226.0,32.000000
16,16,57,1624704226.0,32.000000
16,16,58,1624704226.0,32.000000
15,16,59,1624704226.0,32.000000
14,15,60,1624704226.0,32.000000
10,14,63,1624704226.0,32.000000
4,14,61,1624704226.0,32.000000
-6,15,62,1624704226.0,32.000000
-4,16,63,1624704226.0,32.000000
-5,15,62,1624704226.0,32.000000
-5,16,62,1624704226.0,32.000000
-5,17,62,1624704226.0,32.000000
-6,16,61,1624704226.0,32.000000
-5,15,62,1624704226.0,32.000000
-6,15,61,1624704226.0,32.000000
-5,15,62,1624704226.0,32.000000
-5,15,61,1624704226.0,32.000000
-4,15,62,1624704226.0,32.000000
-2,15,62,1624704226.0,32.000000
-3,15,62,1624704226.0,32.000000
-12,16,59,1624704226.0,32.000000
-22,16,57,1624704226.0,32.000000
-24,16,56,1624704226.0,32.000000
-21,17,56,1624704226.0,32.000000
-20,16,56,1624704226.0,32.000000
-21,16,58,1624704226.0,32.000000
-24,15,57,1624704226.0,32.000000
-25,15,58,1624704226.0,32.000000
-25,15,55,1624704226.0,32.000000
-27,15,57,1624704226.0,32.000000
-26,15,58,1624704226.0,32.000000
-26,16,56,1624704226.0,32.000000
-25,16,58,1624704226.0,32.000000
-25,17,56,1624704226.0,32.000000
-21,17,56,1624704226.0,32.000000
-23,19,52,1624704226.0,32.000000
-21,19,56,1624704226.0,32.000000
-20,19,56,1624704226.0,32.000000
-22,19,54,1624704226.0,32.000000
-25,20,54,1624704226.0,32.000000
-25,19,53,1624704226.0,32.000000
-27,19,53,1624704226.0,32.000000
-30,20,52,1624704226.0,32.000000
-32,19,50,1624704226.0,32.000000
-28,18,53,1624704226.0,32.000000
-29,18,54,1624704226.0,32.000000
-31,17,52,1624704226.0,32.000000
-31,16,54,1624704226.0,32.000000
-30,16,54,1624704226.0,32.000000
-30,17,52,1624704226.0,32.000000
-31,17,53,1624704226.0,32.000000
-32,16,53,1624704226.0,32.000000
-32,15,53,1624704226.0,32.000000
-32,15,52,1624704226.0,32.000000
-33,15,53,1624704226.0,32.000000
-34,15,52,1624704226.0,32.000000
-33,15,52,1624704226.0,32.000000
-34,14,52,1624704226.0,32.000000
-34,14,52,1624704226.0,32.000000
-34,14,52,1624704226.0,32.000000
-35,14,52,1624704226.0,32.000000
-34,15,52,1624704226.0,32.000000
-33,16,51,1624704226.0,32.000000
-32,16,51,1624704226.0,32.000000
-33,16,50,1624704226.0,32.000000
-33,16,51,1624704226.0,32.000000
-34,16,51,1624704226.0,32.000000
-35,15,51,1624704226.0,32.000000
-35,15,51,1624704226.0,32.000000
-35,15,51,1624704226.0,32.000000
-35,14,51,1624704226.0,32.000000
-36,14,51,1624704226.0,32.000000
-36,14,51,1624704226.0,32.000000
-36,14,51,1624704226.0,32.000000
-35,14,51,1624704226.0,32.000000
-35,14,51,1624704226.0,32.000000
-34,14,51,1624704226.0,32.000000
-35,15,51,1624704226.0,32.000000
-35,15,51,1624704226.0,32.000000
-34,15,51,1624704226.0,32.000000
-34,15,51,1624704226.0,32.000000
-34,16,51,1624704226.0,32.000000
-35,16,51,1624704226.0,32.000000
-34,16,50,1624704226.0,32.000000
-34,15,51,1624704226.0,32.000000
-34,15,51,1624704226.0,32.000000
-34,15,51,1624704226.0,32.000000
-35,15,50,1624704226.0,32.000000
-35,15,51,1624704226.0,32.000000
-35,14,51,1624704226.0,32.000000
-35,14,51,1624704226.0,32.000000
-34,14,51,1624704226.0,32.000000
-35,14,51,1624704226.0,32.000000
-35,14,51,1624704226.0,32.000000
-35,13,52,1624704226.0,32.000000
-35,13,51,1624704226.0,32.000000
-35,14,51,1624704226.0,32.000000
-35,14,51,1624704226.0,32.000000
-35,14,51,1624704226.0,32.000000
-35,14,51,1624704226.0,32.000000
-35,14,50,1624704226.0,32.000000
-35,14,51,1624704226.0,32.000000
-35,14,50,1624704226.0,32.000000
-35,14,51,1624704226.0,32.000000
-35,14,51,1624704226.0,32.000000
-35,14,51,1624704226.0,32.000000
-36,14,51,1624704226.0,32.000000
-35,14,51,1624704226.0,32.000000
-35,14,51,1624704226.0,32.000000
-35,14,51,1624704226.0,32.000000
-34,14,51,1624704226.0,32.000000
-34,14,51,1624704226.0,32.000000
-34,15,51,1624704226.0,32.000000
-35,15,51,1624704226.0,32.000000
-35,15,51,1624704226.0,32.000000
-35,15,51,1624704226.0,32.000000
-35,15,50,1624704226.0,32.000000
-35,14,51,1624704226.0,32.000000
-35,14,51,1624704226.0,32.000000
-35,14,51,1624704226.0,32.000000
-35,14,51,1624704226.0,32.000000
-35,15,51,1624704226.0,32.000000
-35,15,51,1624704226.0,32.000000
-34,15,51,1624704226.0,32.000000
-35,15,51,1624704226.0,32.000000
-35,15,51,1624704226.0,32.000000
-35,15,51,1624704226.0,32.000000
-35,15,51,1624704226.0,32.000000
-35,14,51,1624704226.0,32.000000
-35,14,51,1624704226.0,32.000000
-35,15,51,1624704226.0,32.000000
-35,15,51,1624704226.0,32.000000
-35,15,51,1624704226.0,32.000000
-34,15,50,1624704226.0,32.000000
-35,14,51,1624704226.0,32.000000
-35,14,51,1624704226.0,32.000000
-35,14,51,1624704226.0,32.000000
-35,14,51,1624704226.0,32.000000
-35,15,51,1624704226.0,32.000000
-35,16,50,1624704226.0,32.000000
-35,16,50,1624704226.0,32.000000
-35,16,50,1624704226.0,32.000000
-41,14,51,1624704226.0,32.000000
-51,19,54,1624704226.0,32.000000
-62,22,72,1624704226.0,32.000000
-71,36,68,1624704226.0,32.000000
-73,41,61,1624704226.0,32.000000
-54,38,53,1624704226.0,32.000000
-37,38,34,1624704226.0,32.000000
-35,39,31,1624704226.0,32.000000
-20,38,27,1624704226.0,32.000000
-16,38,26,1624704226.0,32.000000
-15,30,29,1624704226.0,32.000000
-27,21,23,1624704226.0,32.000000
-33,18,20,1624704226.0,32.000000
-43,17,23,1624704226.0,32.000000
-41,19,27,1624704226.0,32.000000
-35,22,26,1624704226.0,32.000000
-42,31,17,1624704226.0,32.000000
-46,35,13,1624704226.0,32.000000
-53,42,4,1624704226.0,32.000000
-54,48,4,1624704226.0,32.000000
-49,48,7,1624704226.0,32.000000
-43,45,15,1624704226.0,32.000000
-45,42,17,1624704226.0,32.000000
-35,38,21,1624704226.0,32.000000
-33,34,20,1624704226.0,32.000000
-32,31,24,1624704226.0,32.000000
-16,30,45,1624704226.0,32.000000
-18,31,58,1624704226.0,32.000000
-25,30,60,1624704226.0,32.000000
-31,27,63,1624704226.0,32.000000
-35,25,66,1624704226.0,32.000000
-35,23,66,1624704226.0,32.000000
-29,23,58,1624704226.0,32.000000
-24,22,54,1624704226.0,32.000000
-29,21,43,1624704226.0,32.000000
-38,17,38,1624704226.0,32.000000
-35,11,40,1624704226.0,32.000000
-38,3,33,1624704226.0,32.000000
-42,0,33,1624704226.0,32.000000
-22,-3,39,1624704226.0,32.000000
-50,-6,29,1624704226.0,32.000000
-59,-3,28,1624704226.0,32.000000
-55,-2,29,1624704226.0,32.000000
-52,-5,25,1624704226.0,32.000000
-60,-11,20,1624704226.0,32.000000
-64,-18,21,1624704226.0,32.000000
-58,-23,21,1624704226.0,32.000000
-62,-31,25,1624704226.0,32.000000
-70,-29,22,1624704226.0,32.000000
-63,-33,23,1624704226.0,32.000000
-61,-39,28,1624704226.0,32.000000
-54,-33,27,1624704226.0,32.000000
-61,-38,10,1624704226.0,32.000000
-59,-38,11,1624704226.0,32.000000
-45,-33,8,1624704226.0,32.000000
-56,-31,-10,1624704226.0,32.000000
-33,-33,4,1624704226.0,32.000000
-38,-35,-27,1624704226.0,32.000000
-64,-28,-60,1624704226.0,32.000000
-76,-26,-63,1624704226.0,32.000000
-84,-22,-49,1624704226.0,32.000000
-68,-25,-41,1624704226.0,32.000000
-43,-23,-29,1624704226.0,32.000000
-37,-26,-4,1624704226.0,32.000000
-34,-29,7,1624704226.0,32.000000
-58,-31,2,1624704226.0,32.000000
-54,-34,-2,1624704226.0,32.000000
-65,-35,-6,1624704226.0,32.000000
-63,-22,-7,1624704226.0,32.000000
-51,-27,5,1624704226.0,32.000000
-27,-33,40,1624704226.0,32.000000
-54,-35,35,1624704226.0,32.000000
-61,-32,13,1624704226.0,32.000000
-69,-25,-13,1624704226.0,32.000000
-64,-23,-10,1624704226.0,32.000000
-59,-27,9,1624704226.0,32.000000
-59,-29,24,1624704226.0,32.000000
-54,-25,28,1624704226.0,32.000000
-52,-27,22,1624704226.0,32.000000
-52,-28,24,1624704226.0,32.000000
-64,-28,12,1624704226.0,32.000000
-67,-21,9,1624704226.0,32.000000
-56,-18,11,1624704226.0,32.000000
-50,-17,12,1624704226.0,32.000000
-55,-18,15,1624704226.0,32.000000
-56,-16,18,1624704226.0,32.000000
-61,-21,24,1624704226.0,32.000000
-56,-22,29,1624704226.0,32.000000
-66,-23,23,1624704226.0,32.000000
-56,-26,31,1624704226.0,32.000000
-44,-28,39,1624704226.0,32.000000
-44,-22,35,1624704226.0,32.000000
-40,-24,38,1624704226.0,32.000000
-28,-25,39,1624704226.0,32.000000
-32,-25,36,1624704226.0,32.000000
-34,-25,38,1624704226.0,32.000000
-41,-25,34,1624704226.0,32.000000
-42,-22,50,1624704226.0,32.000000
-42,-21,58,1624704226.0,32.000000
-53,-23,66,1624704226.0,32.000000
-57,-21,53,1624704226.0,32.000000
-38,-29,33,1624704226.0,32.000000
-53,-32,32,1624704226.0,32.000000
-46,-30,33,1624704226.0,32.000000
-37,-26,39,1624704226.0,32.000000
-39,-27,40,1624704226.0,32.000000
-43,-25,33,1624704226.0,32.000000
-47,-26,28,1624704226.0,32.000000
-52,-26,25,1624704226.0,32.000000
-58,-23,20,1624704226.0,32.000000
-51,-18,23,1624704226.0,32.000000
-51,-18,22,1624704226.0,32.000000
-49,-21,17,1624704226.0,32.000000
-48,-22,17,1624704226.0,32.000000
-49,-29,13,1624704226.0,32.000000
-51,-34,13,1624704226.0,32.000000
-51,-38,14,1624704226.0,32.000000
-51,-49,27,1624704226.0,32.000000
-50,-48,25,1624704226.0,32.000000
-51,-39,20,1624704226.0,32.000000
-52,-32,20,1624704226.0,32.000000
-53,-31,19,1624704226.0,32.000000
-54,-30,15,1624704226.0,32.000000
-54,-32,16,1624704226.0,32.000000
-51,-34,17,1624704226.0,32.000000
-50,-35,15,1624704226.0,32.000000
-52,-35,15,1624704226.0,32.000000
-51,-34,17,1624704226.0,32.000000
-51,-32,16,1624704226.0,32.000000
-51,-33,17,1624704226.0,32.000000
-51,-34,16,1624704226.0,32.000000
-52,-34,15,1624704226.0,32.000000
-51,-34,17,1624704226.0,32.000000
-51,-34,16,1624704226.0,32.000000
-51,-34,16,1624704226.0,32.000000
-51,-35,16,1624704226.0,32.000000
-51,-35,16,1624704226.0,32.000000
-51,-35,16,1624704226.0,32.000000
-51,-34,16,1624704226.0,32.000000
-52,-34,16,1624704226.0,32.000000
-51,-34,16,1624704226.0,32.000000
-51,-34,16,1624704226.0,32.000000
-51,-33,16,1624704226.0,32.000000
-51,-34,16,1624704226.0,32.000000
-51,-33,16,1624704226.0,32.000000
-51,-34,16,1624704226.0,32.000000
-51,-34,16,1624704226.0,32.000000
-51,-34,16,1624704226.0,32.000000
-52,-34,16,1624704226.0,32.000000
-51,-34,16,1624704226.0,32.000000
-51,-34,16,1624704226.0,32.000000
-51,-34,16,1624704226.0,32.000000
-50,-34,16,1624704226.0,32.000000
-51,-35,16,1624704226.0,32.000000
-51,-35,16,1624704226.0,32.000000
-51,-35,16,1624704226.0,32.000000
-50,-35,16,1624704226.0,32.000000
-51,-35,16,1624704226.0,32.000000
-50,-35,16,1624704226.0,32.000000
-51,-35,16,1624704226.0,32.000000
-51,-35,16,1624704226.0,32.000000
-51,-35,16,1624704226.0,32.000000
-51,-35,16,1624704226.0,32.000000
-51,-35,16,1624704226.0,32.000000
-51,-35,16,1624704226.0,32.000000
-51,-35,16,1624704226.0,32.000000
-51,-34,16,1624704226.0,32.000000
-51,-35,16,1624704226.0,32.000000
-51,-35,16,1624704226.0,32.000000
-51,-34,16,1624704226.0,32.000000
-51,-34,16,1624704226.0,32.000000
-51,-34,16,1624704226.0,32.000000
-51,-34,16,1624704226.0,32.000000
-51,-34,16,1624704226.0,32.000000
-51,-34,16,1624704226.0,32.000000
-51,-34,16,1624704226.0,32.000000
-52,-34,16,1624704226.0,32.000000
-51,-34,16,1624704226.0,32.000000
-51,-34,16,1624704226.0,32.000000
-51,-34,17,1624704226.0,32.000000
-51,-34,16,1624704226.0,32.000000
-51,-34,16,1624704226.0,32.000000
-51,-34,16,1624704226.0,32.000000
-51,-34,16,1624704226.0,32.000000
-51,-34,16,1624704226.0,32.000000
-51,-34,16,1624704226.0,32.000000
-51,-34,16,1624704226.0,32.000000
-51,-34,16,1624704226.0,32.000000
-51,-34,16,1624704226.0,32.000000
-51,-34,16,1624704226.0,32.000000
-51,-35,16,1624704226.0,32.000000
-51,-35,16,1624704226.0,32.000000
-51,-35,16,1624704226.0,32.000000
-50,-35,16,1624704226.0,32.000000
-51,-35,16,1624704226.0,32.000000
-51,-34,16,1624704226.0,32.000000
-51,-34,16,1624704226.0,32.000000
-51,-35,16,1624704226.0,32.000000
-51,-35,16,1624704226.0,32.000000
-51,-35,16,1624704226.0,32.000000
-50,-35,16,1624704226.0,32.000000
-51,-35,16,1624704226.0,32.000000
-51,-35,15,1624704226.0,32.000000
-51,-35,16,1624704226.0,32.000000
-51,-35,16,1624704226.0,32.000000
-50,-35,16,1624704226.0,32.000000
-50,-35,16,1624704226.0,32.000000
-50,-35,16,1624704226.0,32.000000
-51,-35,16,1624704226.0,32.000000
-51,-35,16,1624704226.0,32.000000
-51,-35,16,1624704226.0,32.000000
-51,-35,15,1624704226.0,32.000000
-50,-35,16,1624704226.0,32.000000
-50,-35,16,1624704226.0,32.000000
-50,-35,16,1624704226.0,32.000000
-50,-35,16,1624704226.0,32.000000
-50,-35,15,1624704226.0,32.000000
-50,-36,15,1624704226.0,32.000000
-50,-36,15,1624704226.0,32.000000
-50,-36,15,1624704226.0,32.000000
-50,-36,16,1624704226.0,32.000000
-49,-36,16,1624704226.0,32.000000
-50,-36,15,1624704226.0,32.000000
-50,-36,16,1624704226.0,32.000000
-50,-36,15,1624704226.0,32.000000
-50,-36,15,1624704226.0,32.000000
-50,-36,15,1624704226.0,32.000000
-50,-36,15,1624704226.0,32.000000
-50,-36,16,1624704226.0,32.000000
-50,-36,16,1624704226.0,32.000000
-50,-36,16,1624704226.0,32.000000
-50,-36,16,1624704226.0,32.000000
-50,-36,16,1624704226.0,32.000000
-50,-36,15,1624704226.0,32.000000
-50,-35,16,1624704226.0,32.000000
-50,-36,16,1624704226.0,32.000000
-50,-36,16,1624704226.0,32.000000
-50,-36,16,1624704226.0,32.000000
-50,-35,16,1624704226.0,32.000000
-50,-36,16,1624704226.0,32.000000
-50,-36,16,1624704226.0,32.000000
-50,-36,16,1624704226.0,32.000000
-50,-36,16,1624704226.0,32.000000
-50,-36,16,1624704226.0,32.000000
-50,-36,15,1624704226.0,32.000000
-50,-36,16,1624704226.0,32.000000
-50,-36,16,1624704226.0,32.000000
-50,-36,16,1624704226.0,32.000000
-50,-36,16,1624704226.0,32.000000
-50,-36,16,1624704226.0,32.000000
-50,-36,16,1624704226.0,32.000000
-50,-36,15,1624704226.0,32.000000
-50,-36,16,1624704226.0,32.000000
-50,-36,16,1624704226.0,32.000000
-50,-36,16,1624704226.0,32.000000
-50,-36,15,1624704226.0,32.000000
-50,-35,15,1624704226.0,32.000000
-50,-36,16,1624704226.0,32.000000
-50,-36,16,1624704226.0,32.000000
-50,-36,16,1624704226.0,32.000000
-50,-36,16,1624704226.0,32.000000
-50,-35,16,1624704226.0,32.000000
-50,-35,16,1624704226.0,32.000000
-50,-36,16,1624704226.0,32.000000
-50,-36,16,1624704226.0,32.000000
-50,-36,15,1624704226.0,32.000000
-50,-36,16,1624704226.0,32.000000
-50,-36,16,1624704226.0,32.000000
-50,-36,16,1624704226.0,32.000000
-50,-36,16,1624704226.0,32.000000
-50,-36,16,1624704226.0,32.000000
-50,-36,16,1624704226.0,32.000000
-50,-36,16,1624704226.0,32.000000
-50,-36,16,1624704226.0,32.000000
-50,-36,15,1624704226.0,32.000000
-50,-36,16,1624704226.0,32.000000
-50,-36,16,1624704226.0,32.000000
-50,-36,16,1624704226.0,32.000000
-50,-35,16,1624704226.0,32.000000
-50,-36,16,1624704226.0,32.000000
-51,-35,16,1624704226.0,32.000000
-50,-36,16,1624704226.0,32.000000
-50,-36,16,1624704226.0,32.000000
-50,-35,15,1624704226.0,32.000000
-50,-36,16,1624704226.0,32.000000
-50,-36,16,1624704226.0,32.000000
-50,-36,16,1624704226.0,32.000000
-50,-35,16,1624704226.0,32.000000
-50,-36,16,1624704226.0,32.000000
-50,-36,16,1624704226.0,32.000000
-50,-36,16,1624704226.0,32.000000
-50,-36,16,1624704226.0,32.000000
-50,-36,16,1624704226.0,32.000000
-50,-36,15,1624704226.0,32.000000
-50,-36,16,1624704226.0,32.000000
-50,-36,15,1624704226.0,32.000000
-50,-36,16,1624704226.0,32.000000
-50,-36,16,1624704226.0,32.000000
-50,-36,16,1624704226.0,32.000000
-50,-36,16,1624704226.0,32.000000
-50,-36,16,1624704226.0,32.000000
-50,-36,16,1624704226.0,32.000000
-50,-36,15,1624704226.0,32.000000
-50,-36,16,1624704226.0,32.000000
-50,-36,16,1624704226.0,32.000000
-50,-36,16,1624704226.0,32.000000
-50,-36,16,1624704226.0,32.000000
-50,-36,16,1624704226.0,32.000000
-50,-36,15,1624704226.0,32.000000
-50,-36,15,1624704226.0,32.000000
-50,-36,16,1624704226.0,32.000000
-50,-36,16,1624704226.0,32.000000
-50,-36,16,1624704226.0,32.000000
-50,-36,16,1624704226.0,32.000000
-50,-36,16,1624704226.0,32.000000
-50,-36,16,1624704226.0,32.000000
-50,-36,16,1624704226.0,32.000000
-50,-36,16,1624704226.0,32.000000
-50,-36,16,1624704226.0,32.000000
-50,-36,16,1624704226.0,32.000000
-50,-36,16,1624704226.0,32.000000
-50,-36,16,1624704226.0,32.000000
-50,-36,16,1624704226.0,32.000000
-50,-36,16,1624704226.0,32.000000
-50,-36,16,1624704226.0,32.000000
-50,-36,16,1624704226.0,32.000000
-50,-36,16,1624704226.0,32.000000
-50,-36,16,1624704226.0,32.000000
-50,-36,16,1624704226.0,32.000000
-50,-36,16,1624704226.0,32.000000
-50,-36,16,1624704226.0,32.000000
-50,-35,16,1624704226.0,32.000000
-50,-36,16,1624704226.0,32.000000
-50,-36,15,1624704226.0,32.000000
-50,-36,16,1624704226.0,32.000000
-50,-36,16,1624704226.0,32.000000
-50,-36,16,1624704226.0,32.000000
-50,-35,16,1624704226.0,32.000000
-50,-36,16,1624704226.0,32.000000
-50,-36,16,1624704226.0,32.000000
-50,-36,16,1624704226.0,32.000000
-50,-36,16,1624704226.0,32.000000
-50,-36,16,1624704226.0,32.000000
-50,-36,16,1624704226.0,32.000000
-50,-36,16,1624704226.0,32.000000
-50,-36,16,1624704226.0,32.000000
-50,-36,16,1624704226.0,32.000000
-50,-35,16,1624704226.0,32.000000
-50,-36,16,1624704226.0,32.000000
-50,-36,16,1624704226.0,32.000000
-50,-36,16,1624704226.0,32.000000
-50,-36,16,1624704226.0,32.000000
-50,-36,16,1624704226.0,32.000000
-50,-36,16,1624704226.0,32.000000
-50,-36,16,1624704226.0,32.000000
-50,-35,16,1624704226.0,32.000000
-50,-36,16,1624704226.0,32.000000
-50,-35,16,1624704226.0,32.000000
-50,-36,16,1624704226.0,32.000000
-50,-36,16,1624704226.0,32.000000
-50,-36,15,1624704226.0,32.000000
-50,-36,16,1624704226.0,32.000000
-50,-36,16,1624704226.0,32.000000
-50,-36,15,1624704226.0,32.000000
-50,-35,16,1624704226.0,32.000000
-50,-35,16,1624704226.0,32.000000
-50,-35,16,1624704226.0,32.000000
-50,-35,16,1624704226.0,32.000000
-50,-35,16,1624704226.0,32.000000
-50,-35,16,1624704226.0,32.000000
-50,-35,16,1624704226.0,32.000000
-50,-35,16,1624704226.0,32.000000
-51,-35,16,1624704226.0,32.000000
-51,-35,16,1624704226.0,32.000000
-51,-35,16,1624704226.0,32.000000
-51,-35,17,1624704226.0,32.000000
-51,-34,17,1624704226.0,32.000000
-51,-34,17,1624704226.0,32.000000
-52,-34,17,1624704226.0,32.000000
-51,-34,17,1624704226.0,32.000000
-51,-34,17,1624704226.0,32.000000
-51,-34,17,1624704226.0,32.000000
-52,-34,16,1624704226.0,32.000000
-52,-34,17,1624704226.0,32.000000
-52,-34,16,1624704226.0,32.000000
-52,-33,16,1624704226.0,32.000000
-50,-31,15,1624704226.0,32.000000
-52,-32,16,1624704226.0,32.000000
-53,-31,16,1624704226.0,32.000000
-52,-32,17,1624704226.0,32.000000
-53,-31,17,1624704226.0,32.000000
-53,-30,17,1624704226.0,32.000000
-54,-29,18,1624704226.0,32.000000
-55,-28,17,1624704226.0,32.000000
-54,-27,20,1624704226.0,32.000000
-54,-28,20,1624704226.0,32.000000
-54,-27,24,1624704226.0,32.000000
-57,-19,22,1624704226.0,32.000000
-55,-22,23,1624704226.0,32.000000
-53,-22,21,1624704226.0,32.000000
-58,-24,23,1624704226.0,32.000000
-58,-26,25,1624704226.0,32.000000
-56,-29,32,1624704226.0,32.000000
-57,-30,35,1624704226.0,32.000000
-55,-27,33,1624704226.0,32.000000
-54,-23,36,1624704226.0,32.000000
-57,-23,36,1624704226.0,32.000000
-55,-22,40,1624704226.0,32.000000
-47,-18,42,1624704226.0,32.000000
-48,-18,41,1624704226.0,32.000000
-42,-15,42,1624704226.0,32.000000
-44,-12,43,1624704226.0,32.000000
-46,-8,40,1624704226.0,32.000000
-49,-7,37,1624704226.0,32.000000
-48,-7,40,1624704226.0,32.000000
-44,-6,45,1624704226.0,32.000000
-46,-6,43,1624704226.0,32.000000
-52,-5,43,1624704226.0,32.000000
-59,-6,37,1624704226.0,32.000000
-58,-4,40,1624704226.0,32.000000
-56,-4,41,1624704226.0,32.000000
-58,2,39,1624704226.0,32.000000
-56,1,36,1624704226.0,32.000000
-48,5,35,1624704226.0,32.000000
-48,6,32,1624704226.0,32.000000
-46,12,27,1624704226.0,32.000000
-36,15,29,1624704226.0,32.000000
-32,17,31,1624704226.0,32.000000
-26,20,35,1624704226.0,32.000000
-26,21,37,1624704226.0,32.000000
-35,25,40,1624704226.0,32.000000
-40,28,42,1624704226.0,32.000000
-36,28,46,1624704226.0,32.000000
-30,30,51,1624704226.0,32.000000
-29,32,51,1624704226.0,32.000000
-29,33,51,1624704226.0,32.000000
-27,35,51,1624704226.0,32.000000
-24,36,51,1624704226.0,32.000000
-20,40,49,1624704226.0,32.000000
-17,40,48,1624704226.0,32.000000
-15,40,49,1624704226.0,32.000000
-16,41,48,1624704226.0,32.000000
-19,41,47,1624704226.0,32.000000
-13,40,48,1624704226.0,32.000000
-11,38,48,1624704226.0,32.000000
-11,37,49,1624704226.0,32.000000
-7,37,52,1624704226.0,32.000000
-10,36,43,1624704226.0,32.000000
-12,37,38,1624704226.0,32.000000
1,37,43,1624704226.0,32.000000
3,42,46,1624704226.0,32.000000
7,43,42,1624704226.0,32.000000
5,46,32,1624704226.0,32.000000
3,53,28,1624704226.0,32.000000
-7,52,27,1624704226.0,32.000000
-10,53,26,1624704226.0,32.000000
-17,57,25,1624704226.0,32.000000
-24,58,29,1624704226.0,32.000000
-24,68,33,1624704226.0,32.000000
-3,47,44,1624704226.0,32.000000
-9,50,38,1624704226.0,32.000000
-11,53,36,1624704226.0,32.000000
-15,55,34,1624704226.0,32.000000
-10,55,34,1624704226.0,32.000000
-2,56,35,1624704226.0,32.000000
-11,54,26,1624704226.0,32.000000
-14,57,22,1624704226.0,32.000000
-15,54,21,1624704226.0,32.000000
-13,55,29,1624704226.0,32.000000
-6,53,39,1624704226.0,32.000000
-3,52,38,1624704226.0,32.000000
-2,51,38,1624704226.0,32.000000
-6,49,34,1624704226.0,32.000000
-12,52,34,1624704226.0,32.000000
-9,51,43,1624704226.0,32.000000
-5,50,43,1624704226.0,32.000000
-8,51,33,1624704226.0,32.000000
-6,47,42,1624704226.0,32.000000
-7,51,41,1624704226.0,32.000000
-1,50,44,1624704226.0,32.000000
-12,47,41,1624704226.0,32.000000
-13,50,39,1624704226.0,32.000000
-6,47,44,1624704226.0,32.000000
-12,49,48,1624704226.0,32.000000
-2,49,51,1624704226.0,32.000000
2,44,36,1624704226.0,32.000000
-2,50,40,1624704226.0,32.000000
-9,49,46,1624704226.0,32.000000
-5,47,46,1624704226.0,32.000000
-1,45,46,1624704226.0,32.000000
2,44,46,1624704226.0,32.000000
-5,50,40,1624704226.0,32.000000
-11,53,36,1624704226.0,32.000000
-16,50,36,1624704226.0,32.000000
-15,47,38,1624704226.0,32.000000
-17,50,43,1624704226.0,32.000000
-7,43,44,1624704226.0,32.000000
-15,52,39,1624704226.0,32.000000
-8,54,39,1624704226.0,32.000000
-4,52,40,1624704226.0,32.000000
1,53,37,1624704226.0,32.000000
-3,53,30,1624704226.0,32.000000
-4,54,28,1624704226.0,32.000000
3,52,32,1624704226.0,32.000000
1,54,34,1624704226.0,32.000000
0,51,35,1624704226.0,32.000000
1,52,36,1624704226.0,32.000000
2,51,36,1624704226.0,32.000000
3,52,39,1624704226.0,32.000000
2,50,41,1624704226.0,32.000000
-2,51,39,1624704226.0,32.000000
-4,51,40,1624704226.0,32.000000
0,50,41,1624704226.0,32.000000
3,52,33,1624704226.0,32.000000
1,51,37,1624704226.0,32.000000
-1,49,43,1624704226.0,32.000000
-10,49,42,1624704226.0,32.000000
-7,50,40,1624704226.0,32.000000
-8,49,41,1624704226.0,32.000000
-11,50,45,1624704226.0,32.000000
-10,50,43,1624704226.0,32.000000
-8,49,39,1624704226.0,32.000000
-6,49,40,1624704226.0,32.000000
-8,50,37,1624704226.0,32.000000
-11,50,36,1624704226.0,32.000000
-11,52,36,1624704226.0,32.000000
-8,49,38,1624704226.0,32.000000
-9,50,37,1624704226.0,32.000000
-7,50,38,1624704226.0,32.000000
-9,50,40,1624704226.0,32.000000
-8,50,39,1624704226.0,32.000000
-10,50,37,1624704226.0,32.000000
-13,50,36,1624704226.0,32.000000
-14,50,36,1624704226.0,32.000000
-13,49,37,1624704226.0,32.000000
-12,50,39,1624704226.0,32.000000
-12,50,38,1624704226.0,32.000000
-7,50,40,1624704226.0,32.000000
-10,50,38,1624704226.0,32.000000
-14,51,35,1624704226.0,32.000000
-12,50,35,1624704226.0,32.000000
-13,49,36,1624704226.0,32.000000
-13,49,40,1624704226.0,32.000000
-11,50,40,1624704226.0,32.000000
-11,50,38,1624704226.0,32.000000
-15,51,32,1624704226.0,32.000000
-13,51,33,1624704226.0,32.000000
-13,50,34,1624704226.0,32.000000
-12,50,38,1624704226.0,32.000000
-8,50,40,1624704226.0,32.000000
-6,49,40,1624704226.0,32.000000
-10,49,39,1624704226.0,32.000000
-8,48,44,1624704226.0,32.000000
-12,48,41,1624704226.0,32.000000
-13,48,41,1624704226.0,32.000000
-11,48,43,1624704226.0,32.000000
-8,48,41,1624704226.0,32.000000
-8,48,40,1624704226.0,32.000000
-8,48,41,1624704226.0,32.000000
-9,49,41,1624704226.0,32.000000
-8,48,39,1624704226.0,32.000000
-10,49,42,1624704226.0,32.000000
-12,49,40,1624704226.0,32.000000
-12,49,39,1624704226.0,32.000000
-12,49,38,1624704226.0,32.000000
-13,50,37,1624704226.0,32.000000
-12,50,37,1624704226.0,32.000000
-12,50,37,1624704226.0,32.000000
-12,49,38,1624704226.0,32.000000
-11,49,38,1624704226.0,32.000000
-11,49,39,1624704226.0,32.000000
-12,49,38,1624704226.0,32.000000
-12,50,38,1624704226.0,32.000000
-11,50,38,1624704226.0,32.000000
-12,49,39,1624704226.0,32.000000
-13,50,39,1624704226.0,32.000000
-13,49,38,1624704226.0,32.000000
-12,50,39,1624704226.0,32.000000
-11,49,38,1624704226.0,32.000000
-12,49,39,1624704226.0,32.000000
-12,49,39,1624704226.0,32.000000
-11,49,39,1624704226.0,32.000000
-11,49,38,1624704226.0,32.000000
-12,50,38,1624704226.0,32.000000
-13,50,38,1624704226.0,32.000000
-13,49,37,1624704226.0,32.000000
-17,48,37,1624704226.0,32.000000
-11,48,41,1624704226.0,32.000000
-9,49,41,1624704226.0,32.000000
-15,50,38,1624704226.0,32.000000
-18,52,35,1624704226.0,32.000000
-7,51,37,1624704226.0,32.000000
-15,50,35,1624704226.0,32.000000
-16,50,36,1624704226.0,32.000000
-4,47,42,1624704226.0,32.000000
-2,48,41,1624704226.0,32.000000
-11,48,39,1624704226.0,32.000000
-5,50,42,1624704226.0,32.000000
-2,52,38,1624704226.0,32.000000
-1,51,37,1624704226.0,32.000000
-13,50,38,1624704226.0,32.000000
-7,49,40,1624704226.0,32.000000
9,50,39,1624704226.0,32.000000
10,52,38,1624704226.0,32.000000
10,56,34,1624704226.0,32.000000
11,55,31,1624704226.0,32.000000
16,53,33,1624704226.0,32.000000
11,53,30,1624704226.0,32.000000
5,54,31,1624704226.0,32.000000
11,54,34,1624704226.0,32.000000
10,53,30,1624704226.0,32.000000
11,54,30,1624704226.0,32.000000
12,53,32,1624704226.0,32.000000
10,53,35,1624704226.0,32.000000
8,52,35,1624704226.0,32.000000
4,53,35,1624704226.0,32.000000
5,53,36,1624704226.0,32.000000
6,52,39,1624704226.0,32.000000
5,52,38,1624704226.0,32.000000
5,52,38,1624704226.0,32.000000
4,51,36,1624704226.0,32.000000
1,52,36,1624704226.0,32.000000
4,52,36,1624704226.0,32.000000
4,52,35,1624704226.0,32.000000
2,52,35,1624704226.0,32.000000
2,52,36,1624704226.0,32.000000
3,52,37,1624704226.0,32.000000
3,52,36,1624704226.0,32.000000
2,52,37,1624704226.0,32.000000
2,52,37,1624704226.0,32.000000
2,52,37,1624704226.0,32.000000
2,52,37,1624704226.0,32.000000
2,52,37,1624704226.0,32.000000
2,52,36,1624704226.0,32.000000
1,52,36,1624704226.0,32.000000
2,52,36,1624704226.0,32.000000
1,52,36,1624704226.0,32.000000
1,52,36,1624704226.0,32.000000
2,52,36,1624704226.0,32.000000
2,52,37,1624704226.0,32.000000
2,52,37,1624704226.0,32.000000
1,52,37,1624704226.0,32.000000
1,52,37,1624704226.0,32.000000
1,52,37,1624704226.0,32.000000
2,52,37,1624704226.0,32.000000
2,52,36,1624704226.0,32.000000
2,52,36,1624704226.0,32.000000
2,52,36,1624704226.0,32.000000
2,52,36,1624704226.0,32.000000
1,52,37,1624704226.0,32.000000
1,52,36,1624704226.0,32.000000
1,52,37,1624704226.0,32.000000
1,52,37,1624704226.0,32.000000
1,52,37,1624704226.0,32.000000
1,52,37,1624704226.0,32.000000
1,52,38,1624704226.0,32.000000
2,52,38,1624704226.0,32.000000
3,52,41,1624704226.0,32.000000
3,52,40,1624704226.0,32.000000
3,51,38,1624704226.0,32.000000
0,52,33,1624704226.0,32.000000
6,52,34,1624704226.0,32.000000
12,57,42,1624704226.0,32.000000
9,54,40,1624704226.0,32.000000
5,54,31,1624704226.0,32.000000
4,55,28,1624704226.0,32.000000
4,56,25,1624704226.0,32.000000
5,57,23,1624704226.0,32.000000
4,57,23,1624704226.0,32.000000
3,56,28,1624704226.0,32.000000
3,56,32,1624704226.0,32.000000
4,53,34,1624704226.0,32.000000
10,52,38,1624704226.0,32.000000
10,53,38,1624704226.0,32.000000
7,55,35,1624704226.0,32.000000
7,54,32,1624704226.0,32.000000
6,54,31,1624704226.0,32.000000
10,54,35,1624704226.0,32.000000
7,54,33,1624704226.0,32.000000
7,54,32,1624704226.0,32.000000
7,54,31,1624704226.0,32.000000
8,54,34,1624704226.0,32.000000
6,54,34,1624704226.0,32.000000
6,53,34,1624704226.0,32.000000
5,53,35,1624704226.0,32.000000
4,54,35,1624704226.0,32.000000
4,53,35,1624704226.0,32.000000
5,53,35,1624704226.0,32.000000
3,54,34,1624704226.0,32.000000
4,53,35,1624704226.0,32.000000
3,53,34,1624704226.0,32.000000
2,53,34,1624704226.0,32.000000
2,53,35,1624704226.0,32.000000
2,52,36,1624704226.0,32.000000
1,53,35,1624704226.0,32.000000
2,53,35,1624704226.0,32.000000
1,53,35,1624704226.0,32.000000
2,53,36,1624704226.0,32.000000
2,53,35,1624704226.0,32.000000
1,53,35,1624704226.0,32.000000
3,53,34,1624704226.0,32.000000
1,54,33,1624704226.0,32.000000
3,53,34,1624704226.0,32.000000
4,53,35,1624704226.0,32.000000
3,53,34,1624704226.0,32.000000
4,53,36,1624704226.0,32.000000
3,53,35,1624704226.0,32.000000
3,53,35,1624704226.0,32.000000
0,53,36,1624704226.0,32.000000
-3,53,37,1624704226.0,32.000000
2,53,40,1624704226.0,32.000000
2,52,34,1624704226.0,32.000000
0,53,33,1624704226.0,32.000000
-1,55,31,1624704226.0,32.000000
4,55,32,1624704226.0,32.000000
4,54,32,1624704226.0,32.000000
8,53,37,1624704226.0,32.000000
1,55,41,1624704226.0,32.000000
-1,55,31,1624704226.0,32.000000
2,57,25,1624704226.0,32.000000
3,58,24,1624704226.0,32.000000
1,59,21,1624704226.0,32.000000
2,58,22,1624704226.0,32.000000
2,60,20,1624704226.0,32.000000
6,59,21,1624704226.0,32.000000
9,59,26,1624704226.0,32.000000
4,58,27,1624704226.0,32.000000
9,56,30,1624704226.0,32.000000
10,57,25,1624704226.0,32.000000
7,58,25,1624704226.0,32.000000
10,57,28,1624704226.0,32.000000
2,56,34,1624704226.0,32.000000
-5,56,33,1624704226.0,32.000000
-4,57,32,1624704226.0,32.000000
1,57,30,1624704226.0,32.000000
3,56,29,1624704226.0,32.000000
5,57,27,1624704226.0,32.000000
5,57,27,1624704226.0,32.000000
5,57,26,1624704226.0,32.000000
6,58,26,1624704226.0,32.000000
5,58,27,1624704226.0,32.000000
4,57,27,1624704226.0,32.000000
3,57,29,1624704226.0,32.000000
4,56,30,1624704226.0,32.000000
6,57,27,1624704226.0,32.000000
7,57,27,1624704226.0,32.000000
7,58,28,1624704226.0,32.000000
5,57,27,1624704226.0,32.000000
4,57,26,1624704226.0,32.000000
4,57,28,1624704226.0,32.000000
5,57,28,1624704226.0,32.000000
6,57,28,1624704226.0,32.000000
7,58,27,1624704226.0,32.000000
6,58,25,1624704226.0,32.000000
4,58,26,1624704226.0,32.000000
4,57,29,1624704226.0,32.000000
6,57,30,1624704226.0,32.000000
6,56,30,1624704226.0,32.000000
7,57,29,1624704226.0,32.000000
8,58,29,1624704226.0,32.000000
9,57,31,1624704226.0,32.000000
6,57,29,1624704226.0,32.000000
1,57,28,1624704226.0,32.000000
3,57,30,1624704226.0,32.000000
4,57,28,1624704226.0,32.000000
1,57,26,1624704226.0,32.000000
0,57,26,1624704226.0,32.000000
1,57,26,1624704226.0,32.000000
-1,57,28,1624704226.0,32.000000
-2,57,31,1624704226.0,32.000000
1,56,35,1624704226.0,32.000000
-1,56,37,1624704226.0,32.000000
2,55,38,1624704226.0,32.000000
2,56,33,1624704226.0,32.000000
0,57,27,1624704226.0,32.000000
1,58,25,1624704226.0,32.000000
1,59,21,1624704226.0,32.000000
1,59,20,1624704226.0,32.000000
2,61,16,1624704226.0,32.000000
3,61,16,1624704226.0,32.000000
2,60,19,1624704226.0,32.000000
3,61,19,1624704226.0,32.000000
3,60,20,1624704226.0,32.000000
2,60,21,1624704226.0,32.000000
0,60,22,1624704226.0,32.000000
0,59,23,1624704226.0,32.000000
3,59,23,1624704226.0,32.000000
3,60,22,1624704226.0,32.000000
3,60,24,1624704226.0,32.000000
1,60,22,1624704226.0,32.000000
2,59,22,1624704226.0,32.000000
3,60,23,1624704226.0,32.000000
3,60,22,1624704226.0,32.000000
3,60,23,1624704226.0,32.000000
3,59,23,1624704226.0,32.000000
3,59,23,1624704226.0,32.000000
2,59,23,1624704226.0,32.000000
2,59,23,1624704226.0,32.000000
2,59,23,1624704226.0,32.000000
3,60,23,1624704226.0,32.000000
3,59,23,1624704226.0,32.000000
3,59,23,1624704226.0,32.000000
3,59,23,1624704226.0,32.000000
3,59,23,1624704226.0,32.000000
3,59,23,1624704226.0,32.000000
3,59,23,1624704226.0,32.000000
2,59,23,1624704226.0,32.000000
4,59,24,1624704226.0,32.000000
4,60,24,1624704226.0,32.000000
3,59,23,1624704226.0,32.000000
2,59,23,1624704226.0,32.000000
3,59,23,1624704226.0,32.000000
3,59,23,1624704226.0,32.000000
3,59,23,1624704226.0,32.000000
3,59,24,1624704226.0,32.000000
3,59,23,1624704226.0,32.000000
3,59,23,1624704226.0,32.000000
3,59,24,1624704226.0,32.000000
3,59,24,1624704226.0,32.000000
3,59,24,1624704226.0,32.000000
4,59,24,1624704226.0,32.000000
4,59,24,1624704226.0,32.000000
3,59,24,1624704226.0,32.000000
3,59,24,1624704226.0,32.000000
3,59,24,1624704226.0,32.000000
3,59,24,1624704226.0,32.000000
3,59,24,1624704226.0,32.000000
4,59,24,1624704226.0,32.000000
3,59,24,1624704226.0,32.000000
3,59,24,1624704226.0,32.000000
3,59,24,1624704226.0,32.000000
3,59,25,1624704226.0,32.000000
4,59,24,1624704226.0,32.000000
4,59,24,1624704226.0,32.000000
4,59,24,1624704226.0,32.000000
4,59,24,1624704226.0,32.000000
4,59,24,1624704226.0,32.000000
4,59,24,1624704226.0,32.000000
4,59,24,1624704226.0,32.000000
4,59,24,1624704226.0,32.000000
4,59,25,1624704226.0,32.000000
4,59,25,1624704226.0,32.000000
4,59,25,1624704226.0,32.000000
3,59,25,1624704226.0,32.000000
3,59,25,1624704226.0,32.000000
4,59,25,1624704226.0,32.000000
4,59,25,1624704226.0,32.000000
4,59,25,1624704226.0,32.000000
4,59,25,1624704226.0,32.000000
4,59,25,1624704226.0,32.000000
4,59,25,1624704226.0,32.000000
4,59,25,1624704226.0,32.000000
4,59,25,1624704226.0,32.000000
4,59,24,1624704226.0,32.000000
4,59,25,1624704226.0,32.000000
4,58,25,1624704226.0,32.000000
4,59,25,1624704226.0,32.000000
4,59,25,1624704226.0,32.000000
4,59,25,1624704226.0,32.000000
4,59,25,1624704226.0,32.000000
4,59,25,1624704226.0,32.000000
4,58,25,1624704226.0,32.000000
4,58,25,1624704226.0,32.000000
4,59,25,1624704226.0,32.000000
4,59,25,1624704226.0,32.000000
5,59,25,1624704226.0,32.000000
4,59,25,1624704226.0,32.000000
4,58,25,1624704226.0,32.000000
5,58,25,1624704226.0,32.000000
4,59,25,1624704226.0,32.000000
4,58,25,1624704226.0,32.000000
4,59,25,1624704226.0,32.000000
4,59,25,1624704226.0,32.000000
4,59,25,1624704226.0,32.000000
5,58,26,1624704226.0,32.000000
5,58,26,1624704226.0,32.000000
4,59,24,1624704226.0,32.000000
7,59,26,1624704226.0,32.000000
6,59,25,1624704226.0,32.000000
5,59,27,1624704226.0,32.000000
4,58,29,1624704226.0,32.000000
5,59,30,1624704226.0,32.000000
8,58,23,1624704226.0,32.000000
6,59,20,1624704226.0,32.000000
1,59,18,1624704226.0,32.000000
0,59,24,1624704226.0,32.000000
1,59,28,1624704226.0,32.000000
1,58,30,1624704226.0,32.000000
-2,58,29,1624704226.0,32.000000
-3,59,27,1624704226.0,32.000000
1,59,23,1624704226.0,32.000000
3,60,20,1624704226.0,32.000000
4,61,17,1624704226.0,32.000000
5,62,16,1624704226.0,32.000000
3,62,15,1624704226.0,32.000000
2,62,15,1624704226.0,32.000000
5,62,14,1624704226.0,32.000000
5,63,11,1624704226.0,32.000000
0,62,12,1624704226.0,32.000000
-3,61,12,1624704226.0,32.000000
6,62,13,1624704226.0,32.000000
4,62,11,1624704226.0,32.000000
-1,63,7,1624704226.0,32.000000
-9,63,10,1624704226.0,32.000000
-8,63,13,1624704226.0,32.000000
-6,62,17,1624704226.0,32.000000
-6,62,16,1624704226.0,32.000000
-6,62,16,1624704226.0,32.000000
-3,62,17,1624704226.0,32.000000
-2,62,16,1624704226.0,32.000000
-1,62,18,1624704226.0,32.000000
-1,62,17,1624704226.0,32.000000
-2,62,16,1624704226.0,32.000000
-3,62,15,1624704226.0,32.000000
-3,62,15,1624704226.0,32.000000
-2,62,16,1624704226.0,32.000000
-2,62,16,1624704226.0,32.000000
-2,62,15,1624704226.0,32.000000
-1,62,15,1624704226.0,32.000000
-1,62,15,1624704226.0,32.000000
-1,62,15,1624704226.0,32.000000
1,62,16,1624704226.0,32.000000
1,62,16,1624704226.0,32.000000
0,62,15,1624704226.0,32.000000
1,62,15,1624704226.0,32.000000
1,62,15,1624704226.0,32.000000
1,62,15,1624704226.0,32.000000
1,62,15,1624704226.0,32.000000
1,62,15,1624704226.0,32.000000
1,62,15,1624704226.0,32.000000
1,62,15,1624704226.0,32.000000
1,62,15,1624704226.0,32.000000
1,62,15,1624704226.0,32.000000
2,62,15,1624704226.0,32.000000
2,62,16,1624704226.0,32.000000
1,62,16,1624704226.0,32.000000
1,62,17,1624704226.0,32.000000
1,62,17,1624704226.0,32.000000
1,62,17,1624704226.0,32.000000
1,62,16,1624704226.0,32.000000
2,62,16,1624704226.0,32.000000
2,62,16,1624704226.0,32.000000
2,62,16,1624704226.0,32.000000
2,62,16,1624704226.0,32.000000
2,62,16,1624704226.0,32.000000
1,62,16,1624704226.0,32.000000
1,62,16,1624704226.0,32.000000
1,62,16,1624704226.0,32.000000
2,62,16,1624704226.0,32.000000
1,62,15,1624704226.0,32.000000
3,62,14,1624704226.0,32.000000
2,62,13,1624704226.0,32.000000
4,62,17,1624704226.0,32.000000
6,62,17,1624704226.0,32.000000
3,59,20,1624704226.0,32.000000
7,61,22,1624704226.0,32.000000
8,61,17,1624704226.0,32.000000
5,62,12,1624704226.0,32.000000
7,62,12,1624704226.0,32.000000
6,62,15,1624704226.0,32.000000
5,62,18,1624704226.0,32.000000
3,61,18,1624704226.0,32.000000
2,61,22,1624704226.0,32.000000
9,61,24,1624704226.0,32.000000
8,60,22,1624704226.0,32.000000
4,61,15,1624704226.0,32.000000
5,62,15,1624704226.0,32.000000
8,62,15,1624704226.0,32.000000
7,63,10,1624704226.0,32.000000
3,63,8,1624704226.0,32.000000
1,63,9,1624704226.0,32.000000
1,63,9,1624704226.0,32.000000
6,64,8,1624704226.0,32.000000
4,64,4,1624704226.0,32.000000
3,64,4,1624704226.0,32.000000
4,63,8,1624704226.0,32.000000
6,63,9,1624704226.0,32.000000
8,63,10,1624704226.0,32.000000
9,63,9,1624704226.0,32.000000
10,63,9,1624704226.0,32.000000
8,63,12,1624704226.0,32.000000
6,63,11,1624704226.0,32.000000
6,63,10,1624704226.0,32.000000
5,63,8,1624704226.0,32.000000
4,63,8,1624704226.0,32.000000
5,63,7,1624704226.0,32.000000
5,64,7,1624704226.0,32.000000
4,63,9,1624704226.0,32.000000
6,62,11,1624704226.0,32.000000
10,62,11,1624704226.0,32.000000
6,61,13,1624704226.0,32.000000
8,60,20,1624704226.0,32.000000
5,59,21,1624704226.0,32.000000
1,58,22,1624704226.0,32.000000
4,59,24,1624704226.0,32.000000
5,59,25,1624704226.0,32.000000
6,59,28,1624704226.0,32.000000
6,59,26,1624704226.0,32.000000
4,59,26,1624704226.0,32.000000
2,59,25,1624704226.0,32.000000
4,59,26,1624704226.0,32.000000
2,58,25,1624704226.0,32.000000
2,58,25,1624704226.0,32.000000
3,59,25,1624704226.0,32.000000
5,58,26,1624704226.0,32.000000
4,58,26,1624704226.0,32.000000
5,58,26,1624704226.0,32.000000
5,57,27,1624704226.0,32.000000
6,58,27,1624704226.0,32.000000
2,57,28,1624704226.0,32.000000
4,57,29,1624704226.0,32.000000
2,56,32,1624704226.0,32.000000
0,56,31,1624704226.0,32.000000
-2,56,29,1624704226.0,32.000000
0,56,30,1624704226.0,32.000000
-1,56,31,1624704226.0,32.000000
-3,56,31,1624704226.0,32.000000
-5,55,33,1624704226.0,32.000000
-4,54,36,1624704226.0,32.000000
-9,54,33,1624704226.0,32.000000
-9,53,35,1624704226.0,32.000000
-11,53,32,1624704226.0,32.000000
-12,54,32,1624704226.0,32.000000
-10,54,32,1624704226.0,32.000000
-14,54,30,1624704226.0,32.000000
-15,54,29,1624704226.0,32.000000
-14,54,31,1624704226.0,32.000000
-15,53,30,1624704226.0,32.000000
-20,54,26,1624704226.0,32.000000
-23,54,24,1624704226.0,32.000000
-29,53,23,1624704226.0,32.000000
-30,53,23,1624704226.0,32.000000
-30,53,22,1624704226.0,32.000000
-27,53,21,1624704226.0,32.000000
-28,53,19,1624704226.0,32.000000
-27,53,22,1624704226.0,32.000000
-28,52,21,1624704226.0,32.000000
-34,53,17,1624704226.0,32.000000
-32,52,19,1624704226.0,32.000000
-33,52,18,1624704226.0,32.000000
-35,52,17,1624704226.0,32.000000
-34,52,16,1624704226.0,32.000000
-35,53,15,1624704226.0,32.000000
-35,53,16,1624704226.0,32.000000
-33,52,17,1624704226.0,32.000000
-33,53,17,1624704226.0,32.000000
-35,53,16,1624704226.0,32.000000
-29,53,20,1624704226.0,32.000000
-31,53,18,1624704226.0,32.000000
-32,53,17,1624704226.0,32.000000
-25,53,24,1624704226.0,32.000000
-28,53,21,1624704226.0,32.000000
-29,53,20,1624704226.0,32.000000
-30,53,21,1624704226.0,32.000000
-28,53,23,1624704226.0,32.000000
-26,53,24,1624704226.0,32.000000
-24,53,25,1624704226.0,32.000000
-23,53,26,1624704226.0,32.000000
-23,53,26,1624704226.0,32.000000
-23,53,28,1624704226.0,32.000000
-22,53,28,1624704226.0,32.000000
-22,53,28,1624704226.0,32.000000
-23,53,27,1624704226.0,32.000000
-22,53,27,1624704226.0,32.000000
-21,53,28,1624704226.0,32.000000
-22,53,27,1624704226.0,32.000000
-21,53,28,1624704226.0,32.000000
-21,53,27,1624704226.0,32.000000
-23,53,27,1624704226.0,32.000000
-22,53,27,1624704226.0,32.000000
-22,53,28,1624704226.0,32.000000
-22,53,28,1624704226.0,32.000000
-22,53,28,1624704226.0,32.000000
-22,53,28,1624704226.0,32.000000
-22,53,28,1624704226.0,32.000000
-22,53,27,1624704226.0,32.000000
-22,53,28,1624704226.0,32.000000
-22,53,27,1624704226.0,32.000000
-21,53,27,1624704226.0,32.000000
-20,53,27,1624704226.0,32.000000
-20,53,28,1624704226.0,32.000000
-24,53,28,1624704226.0,32.000000
-23,53,28,1624704226.0,32.000000
-22,53,28,1624704226.0,32.000000
-22,53,27,1624704226.0,32.000000
-22,53,27,1624704226.0,32.000000
-22,53,27,1624704226.0,32.000000
-21,53,28,1624704226.0,32.000000
-21,53,28,1624704226.0,32.000000
-21,53,28,1624704226.0,32.000000
-21,53,28,1624704226.0,32.000000
-21,53,28,1624704226.0,32.000000
-21,53,28,1624704226.0,32.000000
-21,53,28,1624704226.0,32.000000
-21,53,28,1624704226.0,32.000000
-21,54,28,1624704226.0,32.000000
-21,54,28,1624704226.0,32.000000
-20,54,28,1624704226.0,32.000000
-21,54,28,1624704226.0,32.000000
-20,53,28,1624704226.0,32.000000
-20,53,29,1624704226.0,32.000000
-20,53,28,1624704226.0,32.000000
-20,53,28,1624704226.0,32.000000
-20,54,29,1624704226.0,32.000000
-19,53,29,1624704226.0,32.000000
-19,54,29,1624704226.0,32.000000
-19,53,29,1624704226.0,32.000000
-20,54,29,1624704226.0,32.000000
-20,53,29,1624704226.0,32.000000
-20,54,29,1624704226.0,32.000000
-20,53,29,1624704226.0,32.000000
-20,53,29,1624704226.0,32.000000
-19,53,29,1624704226.0,32.000000
-20,54,29,1624704226.0,32.000000
-19,54,29,1624704226.0,32.000000
-19,53,28,1624704226.0,32.000000
-19,54,29,1624704226.0,32.000000
-19,53,29,1624704226.0,32.000000
-19,54,29,1624704226.0,32.000000
-19,54,29,1624704226.0,32.000000
-19,54,29,1624704226.0,32.000000
-19,53,29,1624704226.0,32.000000
-19,53,29,1624704226.0,32.000000
-20,53,29,1624704226.0,32.000000
-20,53,29,1624704226.0,32.000000
-19,53,29,1624704226.0,32.000000
-19,54,29,1624704226.0,32.000000
-19,53,29,1624704226.0,32.000000
-19,53,29,1624704226.0,32.000000
-19,53,29,1624704226.0,32.000000
-19,53,29,1624704226.0,32.000000
-20,53,29,1624704226.0,32.000000
-20,53,29,1624704226.0,32.000000
-20,54,29,1624704226.0,32.000000
-19,54,29,1624704226.0,32.000000
-20,54,29,1624704226.0,32.000000
-20,54,29,1624704226.0,32.000000
-19,53,29,1624704226.0,32.000000
-19,53,29,1624704226.0,32.000000
-20,54,29,1624704226.0,32.000000
-19,53,29,1624704226.0,32.000000
-19,54,29,1624704226.0,32.000000
-20,54,29,1624704226.0,32.000000
-19,53,29,1624704226.0,32.000000
-20,53,29,1624704226.0,32.000000
-19,53,29,1624704226.0,32.000000
-19,53,29,1624704226.0,32.000000
-19,53,29,1624704226.0,32.000000
-20,53,29,1624704226.0,32.000000
-19,53,30,1624704226.0,32.000000
-19,53,29,1624704226.0,32.000000
-19,53,29,1624704226.0,32.000000
-19,53,29,1624704226.0,32.000000
-19,53,29,1624704226.0,32.000000
-18,53,30,1624704226.0,32.000000
-18,53,29,1624704226.0,32.000000
-18,53,29,1624704226.0,32.000000
-19,54,30,1624704226.0,32.000000
-19,54,30,1624704226.0,32.000000
-18,53,29,1624704226.0,32.000000
-19,54,29,1624704226.0,32.000000
-18,54,29,1624704226.0,32.000000
-19,54,29,1624704226.0,32.000000
-19,54,28,1624704226.0,32.000000
-19,53,29,1624704226.0,32.000000
-19,54,30,1624704226.0,32.000000
-19,53,29,1624704226.0,32.000000
-18,54,29,1624704226.0,32.000000
-18,54,29,1624704226.0,32.000000
-19,54,29,1624704226.0,32.000000
-18,54,29,1624704226.0,32.000000
-19,54,29,1624704226.0,32.000000
-19,54,29,1624704226.0,32.000000
-19,54,28,1624704226.0,32.000000
-19,54,29,1624704226.0,32.000000
-19,54,29,1624704226.0,32.000000
-18,54,29,1624704226.0,32.000000
-19,54,29,1624704226.0,32.000000
-18,54,29,1624704226.0,32.000000
-18,54,29,1624704226.0,32.000000
-19,54,29,1624704226.0,32.000000
-19,54,29,1624704226.0,32.000000
-18,54,28,1624704226.0,32.000000
-19,54,28,1624704226.0,32.000000
-18,54,29,1624704226.0,32.000000
-19,54,29,1624704226.0,32.000000
-18,54,28,1624704226.0,32.000000
-18,54,28,1624704226.0,32.000000
-18,54,29,1624704226.0,32.000000
-19,54,29,1624704226.0,32.000000
-18,54,29,1624704226.0,32.000000
-19,54,29,1624704226.0,32.000000
-19,54,29,1624704226.0,32.000000
-18,54,28,1624704226.0,32.000000
-18,54,29,1624704226.0,32.000000
-19,54,30,1624704226.0,32.000000
-18,53,28,1624704226.0,32.000000
-16,54,30,1624704226.0,32.000000
-13,54,32,1624704226.0,32.000000
-13,54,30,1624704226.0,32.000000
-13,54,31,1624704226.0,32.000000
-16,55,31,1624704226.0,32.000000
-16,55,31,1624704226.0,32.000000
-18,54,29,1624704226.0,32.000000
-8,54,34,1624704226.0,32.000000
-6,54,35,1624704226.0,32.000000
-1,56,35,1624704226.0,32.000000
-1,55,32,1624704226.0,32.000000
3,56,31,1624704226.0,32.000000
-1,56,29,1624704226.0,32.000000
2,57,29,1624704226.0,32.000000
1,57,30,1624704226.0,32.000000
-1,56,30,1624704226.0,32.000000
0,57,29,1624704226.0,32.000000
-6,57,24,1624704226.0,32.000000
-5,55,27,1624704226.0,32.000000
1,55,33,1624704226.0,32.000000
4,55,34,1624704226.0,32.000000
5,56,33,1624704226.0,32.000000
1,57,31,1624704226.0,32.000000
-1,57,33,1624704226.0,32.000000
2,56,32,1624704226.0,32.000000
-3,55,27,1624704226.0,32.000000
1,56,27,1624704226.0,32.000000
2,56,26,1624704226.0,32.000000
7,57,27,1624704226.0,32.000000
10,58,28,1624704226.0,32.000000
12,58,23,1624704226.0,32.000000
19,60,30,1624704226.0,32.000000
-3,58,18,1624704226.0,32.000000
-3,57,27,1624704226.0,32.000000
2,56,30,1624704226.0,32.000000
6,56,30,1624704226.0,32.000000
6,56,29,1624704226.0,32.000000
4,56,30,1624704226.0,32.000000
9,56,36,1624704226.0,32.000000
11,55,35,1624704226.0,32.000000
9,54,34,1624704226.0,32.000000
4,54,33,1624704226.0,32.000000
2,55,32,1624704226.0,32.000000
3,55,32,1624704226.0,32.000000
3,55,32,1624704226.0,32.000000
2,56,31,1624704226.0,32.000000
3,55,32,1624704226.0,32.000000
3,55,32,1624704226.0,32.000000
1,55,32,1624704226.0,32.000000
0,54,32,1624704226.0,32.000000
2,54,34,1624704226.0,32.000000
2,54,34,1624704226.0,32.000000
1,54,34,1624704226.0,32.000000
3,54,34,1624704226.0,32.000000
3,54,34,1624704226.0,32.000000
4,54,33,1624704226.0,32.000000
4,55,32,1624704226.0,32.000000
3,55,32,1624704226.0,32.000000
1,55,31,1624704226.0,32.000000
0,54,32,1624704226.0,32.000000
0,55,32,1624704226.0,32.000000
-1,54,33,1624704226.0,32.000000
0,54,34,1624704226.0,32.000000
1,54,34,1624704226.0,32.000000
2,53,35,1624704226.0,32.000000
3,53,35,1624704226.0,32.000000
3,54,35,1624704226.0,32.000000
4,54,34,1624704226.0,32.000000
4,54,34,1624704226.0,32.000000
4,54,33,1624704226.0,32.000000
3,54,33,1624704226.0,32.000000
1,54,33,1624704226.0,32.000000
0,54,33,1624704226.0,32.000000
0,54,33,1624704226.0,32.000000
-1,54,34,1624704226.0,32.000000
0,54,34,1624704226.0,32.000000
0,54,35,1624704226.0,32.000000
1,54,34,1624704226.0,32.000000
2,54,34,1624704226.0,32.000000
2,54,34,1624704226.0,32.000000
2,54,34,1624704226.0,32.000000
3,54,34,1624704226.0,32.000000
3,54,34,1624704226.0,32.000000
3,54,34,1624704226.0,32.000000
2,54,34,1624704226.0,32.000000
2,54,34,1624704226.0,32.000000
2,54,34,1624704226.0,32.000000
2,54,34,1624704226.0,32.000000
1,54,34,1624704226.0,32.000000
1,54,34,1624704226.0,32.000000
1,54,34,1624704226.0,32.000000
1,54,34,1624704226.0,32.000000
1,54,34,1624704226.0,32.000000
1,54,34,1624704226.0,32.000000
1,54,34,1624704226.0,32.000000
2,54,34,1624704226.0,32.000000
1,54,34,1624704226.0,32.000000
1,54,34,1624704226.0,32.000000
1,54,34,1624704226.0,32.000000
1,54,34,1624704226.0,32.000000
2,54,34,1624704226.0,32.000000
2,54,34,1624704226.0,32.000000
1,54,34,1624704226.0,32.000000
1,54,34,1624704226.0,32.000000
1,54,34,1624704226.0,32.000000
1,54,34,1624704226.0,32.000000
1,54,34,1624704226.0,32.000000
1,54,34,1624704226.0,32.000000
2,54,34,1624704226.0,32.000000
2,54,34,1624704226.0,32.000000
2,54,35,1624704226.0,32.000000
1,54,35,1624704226.0,32.000000
2,54,35,1624704226.0,32.000000
2,54,34,1624704226.0,32.000000
1,54,34,1624704226.0,32.000000
1,54,34,1624704226.0,32.000000
0,54,33,1624704226.0,32.000000
0,54,33,1624704226.0,32.000000
0,54,34,1624704226.0,32.000000
0,54,33,1624704226.0,32.000000
1,54,33,1624704226.0,32.000000
1,53,34,1624704226.0,32.000000
2,54,34,1624704226.0,32.000000
3,54,35,1624704226.0,32.000000
3,53,35,1624704226.0,32.000000
3,54,34,1624704226.0,32.000000
3,54,34,1624704226.0,32.000000
3,54,34,1624704226.0,32.000000
1,54,33,1624704226.0,32.000000
0,54,33,1624704226.0,32.000000
0,54,33,1624704226.0,32.000000
0,54,34,1624704226.0,32.000000
0,54,34,1624704226.0,32.000000
1,54,35,1624704226.0,32.000000
1,54,34,1624704226.0,32.000000
1,53,34,1624704226.0,32.000000
2,54,34,1624704226.0,32.000000
2,54,34,1624704226.0,32.000000
3,54,34,1624704226.0,32.000000
2,53,34,1624704226.0,32.000000
2,53,34,1624704226.0,32.000000
2,54,35,1624704226.0,32.000000
2,54,35,1624704226.0,32.000000
1,54,34,1624704226.0,32.000000
0,54,34,1624704226.0,32.000000
0,54,35,1624704226.0,32.000000
-1,54,34,1624704226.0,32.000000
0,54,34,1624704226.0,32.000000
0,54,34,1624704226.0,32.000000
0,54,34,1624704226.0,32.000000
1,53,34,1624704226.0,32.000000
1,53,34,1624704226.0,32.000000
3,53,35,1624704226.0,32.000000
3,53,35,1624704226.0,32.000000
4,53,35,1624704226.0,32.000000
3,54,35,1624704226.0,32.000000
2,54,34,1624704226.0,32.000000
0,54,33,1624704226.0,32.000000
-1,54,33,1624704226.0,32.000000
-2,54,33,1624704226.0,32.000000
0,54,34,1624704226.0,32.000000
0,53,35,1624704226.0,32.000000
1,53,35,1624704226.0,32.000000
2,53,35,1624704226.0,32.000000
3,53,36,1624704226.0,32.000000
4,54,36,1624704226.0,32.000000
4,54,35,1624704226.0,32.000000
3,54,35,1624704226.0,32.000000
2,53,34,1624704226.0,32.000000
-1,54,33,1624704226.0,32.000000
-2,54,34,1624704226.0,32.000000
-2,54,34,1624704226.0,32.000000
-3,54,34,1624704226.0,32.000000
-2,54,35,1624704226.0,32.000000
-1,53,35,1624704226.0,32.000000
0,53,35,1624704226.0,32.000000
1,53,35,1624704226.0,32.000000
2,53,34,1624704226.0,32.000000
4,53,35,1624704226.0,32.000000
4,54,35,1624704226.0,32.000000
4,53,35,1624704226.0,32.000000
2,53,34,1624704226.0,32.000000
1,54,34,1624704226.0,32.000000
-1,53,36,1624704226.0,32.000000
-1,53,36,1624704226.0,32.000000
1,53,38,1624704226.0,32.000000
6,53,38,1624704226.0,32.000000
2,52,35,1624704226.0,32.000000
2,57,40,1624704226.0,32.000000
8,56,42,1624704226.0,32.000000
15,59,39,1624704226.0,32.000000
3,65,21,1624704226.0,32.000000
6,72,24,1624704226.0,32.000000
-12,63,23,1624704226.0,32.000000
-4,66,23,1624704226.0,32.000000
9,56,26,1624704226.0,32.000000
13,54,23,1624704226.0,32.000000
17,54,18,1624704226.0,32.000000
3,72,1,1624704226.0,32.000000
-1,47,-14,1624704226.0,32.000000
14,39,8,1624704226.0,32.000000
7,63,51,1624704226.0,32.000000
-25,49,63,1624704226.0,32.000000
45,42,43,1624704226.0,32.000000
19,53,4,1624704226.0,32.000000
12,52,2,1624704226.0,32.000000
3,50,22,1624704226.0,32.000000
4,51,22,1624704226.0,32.000000
3,58,12,1624704226.0,32.000000
9,61,12,1624704226.0,32.000000
14,61,14,1624704226.0,32.000000
20,64,24,1624704226.0,32.000000
9,65,28,1624704226.0,32.000000
0,72,30,1624704226.0,32.000000
1,80,28,1624704226.0,32.000000
3,74,17,1624704226.0,32.000000
23,66,10,1624704226.0,32.000000
28,56,-5,1624704226.0,32.000000
35,53,-13,1624704226.0,32.000000
53,51,-7,1624704226.0,32.000000
54,48,-7,1624704226.0,32.000000
36,42,-6,1624704226.0,32.000000
15,37,11,1624704226.0,32.000000
12,37,13,1624704226.0,32.000000
-6,36,32,1624704226.0,32.000000
-6,46,48,1624704226.0,32.000000
-8,56,50,1624704226.0,32.000000
-6,65,47,1624704226.0,32.000000
-2,65,43,1624704226.0,32.000000
3,65,37,1624704226.0,32.000000
4,63,37,1624704226.0,32.000000
3,61,38,1624704226.0,32.000000
4,59,39,1624704226.0,32.000000
3,57,39,1624704226.0,32.000000
0,52,35,1624704226.0,32.000000
3,56,35,1624704226.0,32.000000
9,56,33,1624704226.0,32.000000
11,54,22,1624704226.0,32.000000
19,55,15,1624704226.0,32.000000
23,55,12,1624704226.0,32.000000
29,57,9,1624704226.0,32.000000
27,57,6,1624704226.0,32.000000
25,54,8,1624704226.0,32.000000
21,50,11,1624704226.0,32.000000
20,49,14,1624704226.0,32.000000
17,48,16,1624704226.0,32.000000
12,52,19,1624704226.0,32.000000
13,56,22,1624704226.0,32.000000
11,61,23,1624704226.0,32.000000
11,65,22,1624704226.0,32.000000
8,68,20,1624704226.0,32.000000
7,68,20,1624704226.0,32.000000
6,68,19,1624704226.0,32.000000
3,64,18,1624704226.0,32.000000
2,59,18,1624704226.0,32.000000
5,58,18,1624704226.0,32.000000
5,59,15,1624704226.0,32.000000
2,62,15,1624704226.0,32.000000
2,83,12,1624704226.0,32.000000
-2,45,11,1624704226.0,32.000000
-1,61,18,1624704226.0,32.000000
-2,58,17,1624704226.0,32.000000
-3,64,18,1624704226.0,32.000000
4,60,19,1624704226.0,32.000000
3,61,17,1624704226.0,32.000000
3,62,16,1624704226.0,32.000000
3,62,16,1624704226.0,32.000000
4,61,17,1624704226.0,32.000000
4,62,15,1624704226.0,32.000000
4,62,14,1624704226.0,32.000000
4,62,14,1624704226.0,32.000000
6,62,12,1624704226.0,32.000000
6,63,11,1624704226.0,32.000000
7,63,11,1624704226.0,32.000000
7,62,13,1624704226.0,32.000000
6,62,13,1624704226.0,32.000000
6,62,13,1624704226.0,32.000000
6,62,13,1624704226.0,32.000000
6,62,14,1624704226.0,32.000000
6,62,14,1624704226.0,32.000000
6,62,13,1624704226.0,32.000000
6,62,13,1624704226.0,32.000000
6,62,13,1624704226.0,32.000000
6,62,13,1624704226.0,32.000000
7,62,14,1624704226.0,32.000000
7,62,14,1624704226.0,32.000000
7,62,14,1624704226.0,32.000000
8,62,14,1624704226.0,32.000000
7,62,14,1624704226.0,32.000000
8,62,14,1624704226.0,32.000000
8,61,14,1624704226.0,32.000000
7,62,15,1624704226.0,32.000000
6,62,15,1624704226.0,32.000000
6,61,16,1624704226.0,32.000000
7,61,19,1624704226.0,32.000000
6,61,20,1624704226.0,32.000000
5,61,18,1624704226.0,32.000000
6,63,14,1624704226.0,32.000000
3,62,14,1624704226.0,32.000000
6,62,14,1624704226.0,32.000000
2,62,9,1624704226.0,32.000000
0,63,7,1624704226.0,32.000000
12,62,15,1624704226.0,32.000000
13,62,17,1624704226.0,32.000000
11,62,18,1624704226.0,32.000000
5,63,13,1624704226.0,32.000000
4,62,14,1624704226.0,32.000000
-1,60,18,1624704226.0,32.000000
3,60,24,1624704226.0,32.000000
0,60,23,1624704226.0,32.000000
-3,61,19,1624704226.0,32.000000
-3,61,17,1624704226.0,32.000000
4,62,14,1624704226.0,32.000000
5,62,16,1624704226.0,32.000000
6,62,17,1624704226.0,32.000000
7,62,15,1624704226.0,32.000000
5,62,14,1624704226.0,32.000000
4,61,18,1624704226.0,32.000000
3,60,20,1624704226.0,32.000000
2,60,20,1624704226.0,32.000000
0,60,22,1624704226.0,32.000000
5,59,28,1624704226.0,32.000000
6,60,26,1624704226.0,32.000000
6,61,20,1624704226.0,32.000000
4,61,19,1624704226.0,32.000000
4,60,23,1624704226.0,32.000000
4,61,23,1624704226.0,32.000000
3,62,21,1624704226.0,32.000000
14,62,21,1624704226.0,32.000000
12,59,25,1624704226.0,32.000000
5,55,33,1624704226.0,32.000000
-1,59,12,1624704226.0,32.000000
1,60,10,1624704226.0,32.000000
-2,59,11,1624704226.0,32.000000
-10,55,9,1624704226.0,32.000000
-12,51,5,1624704226.0,32.000000
-1,43,11,1624704226.0,32.000000
0,37,15,1624704226.0,32.000000
-11,27,22,1624704226.0,32.000000
-6,27,32,1624704226.0,32.000000
-21,19,40,1624704226.0,32.000000
-40,12,70,1624704226.0,32.000000
-30,17,73,1624704226.0,32.000000
-50,21,59,1624704226.0,32.000000
-33,6,83,1624704226.0,32.000000
-24,5,81,1624704226.0,32.000000
-19,7,65,1624704226.0,32.000000
-11,1,69,1624704226.0,32.000000
-9,-7,73,1624704226.0,32.000000
-39,32,56,1624704226.0,32.000000
-1,-3,66,1624704226.0,32.000000
-10,-11,62,1624704226.0,32.000000
-11,-7,61,1624704226.0,32.000000
-9,-4,63,1624704226.0,32.000000
-9,-6,62,1624704226.0,32.000000
-8,-7,62,1624704226.0,32.000000
-8,-6,63,1624704226.0,32.000000
-9,-7,62,1624704226.0,32.000000
-11,-6,62,1624704226.0,32.000000
-11,-5,61,1624704226.0,32.000000
-10,-5,62,1624704226.0,32.000000
-7,-6,63,1624704226.0,32.000000
-8,-6,62,1624704226.0,32.000000
-9,-6,62,1624704226.0,32.000000
-8,-6,63,1624704226.0,32.000000
-10,-5,62,1624704226.0,32.000000
-12,-5,61,1624704226.0,32.000000
-11,-5,62,1624704226.0,32.000000
-9,-6,63,1624704226.0,32.000000
-11,-6,62,1624704226.0,32.000000
-11,-6,61,1624704226.0,32.000000
-10,-6,62,1624704226.0,32.000000
-9,-6,62,1624704226.0,32.000000
-10,-5,62,1624704226.0,32.000000
-11,-6,62,1624704226.0,32.000000
-11,-6,62,1624704226.0,32.000000
-11,-6,62,1624704226.0,32.000000
-11,-7,62,1624704226.0,32.000000
-9,-8,62,1624704226.0,32.000000
-10,-9,61,1624704226.0,32.000000
-10,-10,61,1624704226.0,32.000000
-10,-12,61,1624704226.0,32.000000
-8,-13,60,1624704226.0,32.000000
-7,-12,62,1624704226.0,32.000000
-7,-12,62,1624704226.0,32.000000
-7,-12,62,1624704226.0,32.000000
-8,-12,62,1624704226.0,32.000000
-10,-11,62,1624704226.0,32.000000
-9,-12,61,1624704226.0,32.000000
-9,-14,61,1624704226.0,32.000000
-8,-15,60,1624704226.0,32.000000
-8,-16,60,1624704226.0,32.000000
-7,-16,61,1624704226.0,32.000000
-8,-16,60,1624704226.0,32.000000
-7,-15,61,1624704226.0,32.000000
-9,-13,61,1624704226.0,32.000000
-10,-12,62,1624704226.0,32.000000
-10,-11,62,1624704226.0,32.000000
-10,-12,62,1624704226.0,32.000000
-10,-13,61,1624704226.0,32.000000
-9,-14,61,1624704226.0,32.000000
-8,-14,61,1624704226.0,32.000000
-8,-14,61,1624704226.0,32.000000
-8,-13,61,1624704226.0,32.000000
-9,-12,61,1624704226.0,32.000000
-10,-12,62,1624704226.0,32.000000
-10,-12,61,1624704226.0,32.000000
-10,-12,61,1624704226.0,32.000000
-10,-12,61,1624704226.0,32.000000
-9,-13,61,1624704226.0,32.000000
-8,-13,61,1624704226.0,32.000000
-8,-13,61,1624704226.0,32.000000
-9,-12,61,1624704226.0,32.000000
-9,-12,61,1624704226.0,32.000000
-10,-11,62,1624704226.0,32.000000
-10,-11,61,1624704226.0,32.000000
-9,-12,61,1624704226.0,32.000000
-9,-12,61,1624704226.0,32.000000
-9,-12,61,1624704226.0,32.000000
-9,-12,61,1624704226.0,32.000000
-9,-12,62,1624704226.0,32.000000
-10,-11,61,1624704226.0,32.000000
-10,-11,62,1624704226.0,32.000000
-10,-11,61,1624704226.0,32.000000
-11,-11,61,1624704226.0,32.000000
-10,-12,61,1624704226.0,32.000000
-10,-12,61,1624704226.0,32.000000
-10,-12,61,1624704226.0,32.000000
-10,-11,61,1624704226.0,32.000000
-10,-11,61,1624704226.0,32.000000
-11,-11,61,1624704226.0,32.000000
-11,-11,61,1624704226.0,32.000000
-11,-11,62,1624704226.0,32.000000
-11,-11,61,1624704226.0,32.000000
-11,-11,61,1624704226.0,32.000000
-11,-11,61,1624704226.0,32.000000
-11,-11,61,1624704226.0,32.000000
-11,-11,61,1624704226.0,32.000000
-11,-11,61,1624704226.0,32.000000
-11,-11,61,1624704226.0,32.000000
-11,-11,61,1624704226.0,32.000000
-11,-11,61,1624704226.0,32.000000
-11,-11,61,1624704226.0,32.000000
-11,-11,61,1624704226.0,32.000000
-11,-11,61,1624704226.0,32.000000
-11,-11,61,1624704226.0,32.000000
-11,-11,61,1624704226.0,32.000000
-11,-11,61,1624704226.0,32.000000
-11,-11,61,1624704226.0,32.000000
-11,-11,61,1624704226.0,32.000000
-11,-11,61,1624704226.0,32.000000
-11,-11,61,1624704226.0,32.000000
-11,-11,61,1624704226.0,32.000000
-11,-11,61,1624704226.0,32.000000
-11,-10,61,1624704226.0,32.000000
-11,-11,61,1624704226.0,32.000000
-11,-11,61,1624704226.0,32.000000
-11,-10,61,1624704226.0,32.000000
-11,-10,61,1624704226.0,32.000000
-12,-11,61,1624704226.0,32.000000
-12,-11,61,1624704226.0,32.000000
-12,-10,61,1624704226.0,32.000000
-12,-11,61,1624704226.0,32.000000
-11,-11,61,1624704226.0,32.000000
-11,-11,61,1624704226.0,32.000000
-11,-11,61,1624704226.0,32.000000
-12,-11,61,1624704226.0,32.000000
-12,-11,61,1624704226.0,32.000000
-11,-11,61,1624704226.0,32.000000
-11,-11,61,1624704226.0,32.000000
-11,-11,61,1624704226.0,32.000000
-12,-11,61,1624704226.0,32.000000
-12,-11,61,1624704226.0,32.000000
-11,-11,61,1624704226.0,32.000000
-11,-11,61,1624704226.0,32.000000
-12,-11,61,1624704226.0,32.000000
-11,-11,61,1624704226.0,32.000000
-11,-11,61,1624704226.0,32.000000
-12,-11,61,1624704226.0,32.000000
-11,-11,61,1624704226.0,32.000000
-13,-10,61,1624704226.0,32.000000
-13,-9,61,1624704226.0,32.000000
-13,-9,61,1624704226.0,32.000000
-12,-10,61,1624704226.0,32.000000
-11,-10,61,1624704226.0,32.000000
-12,-11,61,1624704226.0,32.000000
-12,-11,61,1624704226.0,32.000000
-13,-11,61,1624704226.0,32.000000
-13,-11,61,1624704226.0,32.000000
-13,-11,61,1624704226.0,32.000000
-13,-11,61,1624704226.0,32.000000
-12,-11,61,1624704226.0,32.000000
-12,-11,61,1624704226.0,32.000000
-11,-11,61,1624704226.0,32.000000
-12,-10,61,1624704226.0,32.000000
-13,-10,61,1624704226.0,32.000000
-12,-10,61,1624704226.0,32.000000
-12,-10,61,1624704226.0,32.000000
-12,-10,61,1624704226.0,32.000000
-12,-11,61,1624704226.0,32.000000
-13,-11,61,1624704226.0,32.000000
-12,-10,61,1624704226.0,32.000000
-12,-10,61,1624704226.0,32.000000
-13,-10,61,1624704226.0,32.000000
-12,-10,61,1624704226.0,32.000000
-12,-10,61,1624704226.0,32.000000
-12,-10,61,1624704226.0,32.000000
-13,-10,61,1624704226.0,32.000000
-12,-10,61,1624704226.0,32.000000
-13,-10,61,1624704226.0,32.000000
-13,-10,61,1624704226.0,32.000000
-13,-10,61,1624704226.0,32.000000
-13,-10,61,1624704226.0,32.000000
-13,-10,61,1624704226.0,32.000000
-13,-10,61,1624704226.0,32.000000
-12,-10,61,1624704226.0,32.000000
-13,-10,61,1624704226.0,32.000000
-12,-10,61,1624704226.0,32.000000
-13,-10,61,1624704226.0,32.000000
-13,-10,61,1624704226.0,32.000000
