ACC_X,ACC_Y,ACC_Z,start_time_unix,sampling_rate
-50,-3,44,1624262177.0,32.000000
-49,-3,44,1624262177.0,32.000000
-49,-3,44,1624262177.0,32.000000
-49,-3,44,1624262177.0,32.000000
-49,-4,44,1624262177.0,32.000000
-49,-4,44,1624262177.0,32.000000
-49,-4,44,1624262177.0,32.000000
-49,-4,44,1624262177.0,32.000000
-49,-3,44,1624262177.0,32.000000
-49,-3,44,1624262177.0,32.000000
-50,-3,44,1624262177.0,32.000000
-50,-3,44,1624262177.0,32.000000
-49,-3,44,1624262177.0,32.000000
-49,-3,44,1624262177.0,32.000000
-49,-4,44,1624262177.0,32.000000
-50,-4,44,1624262177.0,32.000000
-49,-3,44,1624262177.0,32.000000
-49,-3,44,1624262177.0,32.000000
-50,-3,44,1624262177.0,32.000000
-50,-3,44,1624262177.0,32.000000
-50,-3,43,1624262177.0,32.000000
-50,-3,43,1624262177.0,32.000000
-49,-3,44,1624262177.0,32.000000
-50,-4,44,1624262177.0,32.000000
-50,-4,43,1624262177.0,32.000000
-49,-4,44,1624262177.0,32.000000
-49,-4,44,1624262177.0,32.000000
-50,-4,43,1624262177.0,32.000000
-50,-4,43,1624262177.0,32.000000
-50,-3,44,1624262177.0,32.000000
-50,-3,44,1624262177.0,32.000000
-49,-3,43,1624262177.0,32.000000
-49,-4,44,1624262177.0,32.000000
-50,-4,44,1624262177.0,32.000000
-50,-4,44,1624262177.0,32.000000
-49,-3,44,1624262177.0,32.000000
-49,-3,43,1624262177.0,32.000000
-49,-4,44,1624262177.0,32.000000
-50,-4,44,1624262177.0,32.000000
-50,-4,44,1624262177.0,32.000000
-49,-3,43,1624262177.0,32.000000
-49,-3,43,1624262177.0,32.000000
-50,-3,44,1624262177.0,32.000000
-50,-3,44,1624262177.0,32.000000
-50,-4,44,1624262177.0,32.000000
-49,-3,44,1624262177.0,32.000000
-49,-3,44,1624262177.0,32.000000
-49,-4,44,1624262177.0,32.000000
-49,-4,44,1624262177.0,32.000000
-49,-4,44,1624262177.0,32.000000
-49,-4,44,1624262177.0,32.000000
-49,-4,43,1624262177.0,32.000000
-49,-5,44,1624262177.0,32.000000
-48,-3,44,1624262177.0,32.000000
-49,-3,44,1624262177.0,32.000000
-49,-3,44,1624262177.0,32.000000
-48,-3,44,1624262177.0,32.000000
-47,-2,44,1624262177.0,32.000000
-46,-3,43,1624262177.0,32.000000
-52,-5,41,1624262177.0,32.000000
-53,-4,40,1624262177.0,32.000000
-56,-4,37,1624262177.0,32.000000
-57,-1,36,1624262177.0,32.000000
-58,0,34,1624262177.0,32.000000
-57,1,34,1624262177.0,32.000000
-56,1,33,1624262177.0,32.000000
-56,1,33,1624262177.0,32.000000
-58,1,33,1624262177.0,32.000000
-59,2,32,1624262177.0,32.000000
-60,2,29,1624262177.0,32.000000
-60,1,28,1624262177.0,32.000000
-59,4,27,1624262177.0,32.000000
-61,3,24,1624262177.0,32.000000
-61,5,24,1624262177.0,32.000000
-63,5,23,1624262177.0,32.000000
-64,7,24,1624262177.0,32.000000
-63,7,23,1624262177.0,32.000000
-63,7,25,1624262177.0,32.000000
-62,8,21,1624262177.0,32.000000
-62,8,19,1624262177.0,32.000000
-64,7,18,1624262177.0,32.000000
-65,6,18,1624262177.0,32.000000
-64,9,17,1624262177.0,32.000000
-66,8,17,1624262177.0,32.000000
-63,11,15,1624262177.0,32.000000
-63,11,12,1624262177.0,32.000000
-65,12,11,1624262177.0,32.000000
-68,5,13,1624262177.0,32.000000
-66,11,13,1624262177.0,32.000000
-65,13,11,1624262177.0,32.000000
-62,16,9,1624262177.0,32.000000
-64,13,8,1624262177.0,32.000000
-67,7,11,1624262177.0,32.000000
-65,10,10,1624262177.0,32.000000
-66,11,9,1624262177.0,32.000000
-64,13,10,1624262177.0,32.000000
-64,12,9,1624262177.0,32.000000
-65,11,8,1624262177.0,32.000000
-66,11,8,1624262177.0,32.000000
-64,11,10,1624262177.0,32.000000
-66,11,9,1624262177.0,32.000000
-66,8,10,1624262177.0,32.000000
-64,13,9,1624262177.0,32.000000
-64,14,8,1624262177.0,32.000000
-64,14,9,1624262177.0,32.000000
-66,12,8,1624262177.0,32.000000
-63,11,9,1624262177.0,32.000000
-64,10,9,1624262177.0,32.000000
-65,11,11,1624262177.0,32.000000
-65,11,9,1624262177.0,32.000000
-64,13,10,1624262177.0,32.000000
-65,12,9,1624262177.0,32.000000
-65,10,9,1624262177.0,32.000000
-65,10,9,1624262177.0,32.000000
-65,10,10,1624262177.0,32.000000
-63,10,10,1624262177.0,32.000000
-63,10,10,1624262177.0,32.000000
-65,11,10,1624262177.0,32.000000
-66,10,8,1624262177.0,32.000000
-66,9,9,1624262177.0,32.000000
-63,9,12,1624262177.0,32.000000
-64,10,12,1624262177.0,32.000000
-65,9,10,1624262177.0,32.000000
-65,9,10,1624262177.0,32.000000
-65,10,11,1624262177.0,32.000000
-64,9,10,1624262177.0,32.000000
-66,9,11,1624262177.0,32.000000
-64,9,12,1624262177.0,32.000000
-64,9,13,1624262177.0,32.000000
-65,10,11,1624262177.0,32.000000
-65,9,10,1624262177.0,32.000000
-65,8,8,1624262177.0,32.000000
-65,9,11,1624262177.0,32.000000
-66,9,11,1624262177.0,32.000000
-67,9,14,1624262177.0,32.000000
-65,9,15,1624262177.0,32.000000
-61,8,15,1624262177.0,32.000000
-65,6,15,1624262177.0,32.000000
-68,6,15,1624262177.0,32.000000
-66,6,17,1624262177.0,32.000000
-63,6,18,1624262177.0,32.000000
-65,7,19,1624262177.0,32.000000
-62,6,23,1624262177.0,32.000000
-63,5,21,1624262177.0,32.000000
-65,6,21,1624262177.0,32.000000
-66,5,22,1624262177.0,32.000000
-62,5,24,1624262177.0,32.000000
-63,4,24,1624262177.0,32.000000
-62,4,26,1624262177.0,32.000000
-58,4,31,1624262177.0,32.000000
-56,4,31,1624262177.0,32.000000
-60,3,30,1624262177.0,32.000000
-60,-2,33,1624262177.0,32.000000
-55,-4,31,1624262177.0,32.000000
-60,-6,31,1624262177.0,32.000000
-60,-8,32,1624262177.0,32.000000
-57,-9,32,1624262177.0,32.000000
-60,-8,33,1624262177.0,32.000000
-60,-6,30,1624262177.0,32.000000
-60,-5,18,1624262177.0,32.000000
-62,-8,11,1624262177.0,32.000000
-52,-16,11,1624262177.0,32.000000
-63,-17,-2,1624262177.0,32.000000
-63,-14,0,1624262177.0,32.000000
-56,-13,-9,1624262177.0,32.000000
-62,-6,-6,1624262177.0,32.000000
-63,-8,-5,1624262177.0,32.000000
-62,-14,-21,1624262177.0,32.000000
-64,-16,-25,1624262177.0,32.000000
-63,-10,-35,1624262177.0,32.000000
-80,-3,-56,1624262177.0,32.000000
-53,-11,-20,1624262177.0,32.000000
-66,-7,-26,1624262177.0,32.000000
-54,-11,-26,1624262177.0,32.000000
-53,-18,-37,1624262177.0,32.000000
-53,-18,-36,1624262177.0,32.000000
-50,-18,-35,1624262177.0,32.000000
-50,-17,-33,1624262177.0,32.000000
-52,-14,-29,1624262177.0,32.000000
-56,-10,-27,1624262177.0,32.000000
-60,-7,-24,1624262177.0,32.000000
-57,-11,-25,1624262177.0,32.000000
-60,-12,-26,1624262177.0,32.000000
-65,-11,-13,1624262177.0,32.000000
-61,-8,-6,1624262177.0,32.000000
-64,-9,-7,1624262177.0,32.000000
-75,-11,-2,1624262177.0,32.000000
-77,-13,0,1624262177.0,32.000000
-71,-7,5,1624262177.0,32.000000
-67,-2,-1,1624262177.0,32.000000
-68,4,1,1624262177.0,32.000000
-63,8,-5,1624262177.0,32.000000
-66,3,-16,1624262177.0,32.000000
-59,0,-21,1624262177.0,32.000000
-55,-13,-31,1624262177.0,32.000000
-49,-20,-34,1624262177.0,32.000000
-39,-30,-40,1624262177.0,32.000000
-38,-34,-42,1624262177.0,32.000000
-41,-32,-39,1624262177.0,32.000000
-51,-25,-32,1624262177.0,32.000000
-56,-20,-28,1624262177.0,32.000000
-59,-15,-23,1624262177.0,32.000000
-67,-12,-20,1624262177.0,32.000000
-65,-8,2,1624262177.0,32.000000
-64,-13,4,1624262177.0,32.000000
-59,-12,10,1624262177.0,32.000000
-56,-11,8,1624262177.0,32.000000
-58,-10,5,1624262177.0,32.000000
-69,12,10,1624262177.0,32.000000
-62,-3,13,1624262177.0,32.000000
-60,1,7,1624262177.0,32.000000
-79,2,27,1624262177.0,32.000000
-84,-2,26,1624262177.0,32.000000
-74,-9,14,1624262177.0,32.000000
-73,-8,5,1624262177.0,32.000000
-56,-5,8,1624262177.0,32.000000
-55,-3,14,1624262177.0,32.000000
-59,-3,14,1624262177.0,32.000000
-66,-2,14,1624262177.0,32.000000
-67,0,15,1624262177.0,32.000000
-70,1,16,1624262177.0,32.000000
-68,0,14,1624262177.0,32.000000
-67,0,10,1624262177.0,32.000000
-62,0,10,1624262177.0,32.000000
-65,1,12,1624262177.0,32.000000
-66,0,12,1624262177.0,32.000000
-67,0,11,1624262177.0,32.000000
-67,-1,11,1624262177.0,32.000000
-64,-1,16,1624262177.0,32.000000
-55,2,26,1624262177.0,32.000000
-61,3,30,1624262177.0,32.000000
-58,0,34,1624262177.0,32.000000
-60,0,33,1624262177.0,32.000000
-58,-2,33,1624262177.0,32.000000
-56,-2,33,1624262177.0,32.000000
-59,-2,30,1624262177.0,32.000000
-65,1,27,1624262177.0,32.000000
-57,2,33,1624262177.0,32.000000
-56,3,37,1624262177.0,32.000000
-59,1,33,1624262177.0,32.000000
-59,0,30,1624262177.0,32.000000
-61,-4,34,1624262177.0,32.000000
-56,-3,32,1624262177.0,32.000000
-43,0,45,1624262177.0,32.000000
-51,0,44,1624262177.0,32.000000
-52,-1,43,1624262177.0,32.000000
-51,-1,40,1624262177.0,32.000000
-49,0,41,1624262177.0,32.000000
-55,0,40,1624262177.0,32.000000
-56,0,38,1624262177.0,32.000000
-55,0,38,1624262177.0,32.000000
-52,0,40,1624262177.0,32.000000
-51,0,40,1624262177.0,32.000000
-53,-1,40,1624262177.0,32.000000
-53,0,40,1624262177.0,32.000000
-54,0,40,1624262177.0,32.000000
-54,0,40,1624262177.0,32.000000
-53,0,40,1624262177.0,32.000000
-53,1,39,1624262177.0,32.000000
-53,1,39,1624262177.0,32.000000
-52,1,42,1624262177.0,32.000000
-54,1,42,1624262177.0,32.000000
-53,0,42,1624262177.0,32.000000
-57,1,39,1624262177.0,32.000000
-54,0,39,1624262177.0,32.000000
-47,0,42,1624262177.0,32.000000
-47,-1,45,1624262177.0,32.000000
-51,0,41,1624262177.0,32.000000
-49,0,41,1624262177.0,32.000000
-50,0,40,1624262177.0,32.000000
-53,0,43,1624262177.0,32.000000
-54,0,42,1624262177.0,32.000000
-53,0,41,1624262177.0,32.000000
-51,0,41,1624262177.0,32.000000
-51,0,40,1624262177.0,32.000000
-51,-1,41,1624262177.0,32.000000
-51,1,44,1624262177.0,32.000000
-53,2,42,1624262177.0,32.000000
-53,2,41,1624262177.0,32.000000
-51,1,41,1624262177.0,32.000000
-50,-1,43,1624262177.0,32.000000
-48,-2,44,1624262177.0,32.000000
-49,-2,43,1624262177.0,32.000000
-50,0,44,1624262177.0,32.000000
-51,0,43,1624262177.0,32.000000
-51,0,43,1624262177.0,32.000000
-50,0,43,1624262177.0,32.000000
-50,-1,44,1624262177.0,32.000000
-52,-3,44,1624262177.0,32.000000
-50,-1,43,1624262177.0,32.000000
-50,-1,47,1624262177.0,32.000000
-49,-3,47,1624262177.0,32.000000
-50,-4,42,1624262177.0,32.000000
-56,-3,49,1624262177.0,32.000000
-61,-2,47,1624262177.0,32.000000
-67,-3,49,1624262177.0,32.000000
-69,-6,50,1624262177.0,32.000000
-89,-10,46,1624262177.0,32.000000
-90,-10,45,1624262177.0,32.000000
-76,-14,55,1624262177.0,32.000000
-47,-23,64,1624262177.0,32.000000
-42,-17,71,1624262177.0,32.000000
-61,-24,40,1624262177.0,32.000000
-50,-24,38,1624262177.0,32.000000
-21,-26,28,1624262177.0,32.000000
-19,-34,5,1624262177.0,32.000000
-11,-38,0,1624262177.0,32.000000
-5,-38,0,1624262177.0,32.000000
6,-46,0,1624262177.0,32.000000
21,-46,8,1624262177.0,32.000000
32,-48,25,1624262177.0,32.000000
31,-47,31,1624262177.0,32.000000
31,-43,35,1624262177.0,32.000000
27,-43,37,1624262177.0,32.000000
27,-43,40,1624262177.0,32.000000
11,-47,31,1624262177.0,32.000000
16,-48,28,1624262177.0,32.000000
22,-46,31,1624262177.0,32.000000
23,-44,32,1624262177.0,32.000000
22,-42,34,1624262177.0,32.000000
25,-40,35,1624262177.0,32.000000
24,-39,39,1624262177.0,32.000000
20,-42,42,1624262177.0,32.000000
17,-43,43,1624262177.0,32.000000
17,-45,42,1624262177.0,32.000000
10,-46,40,1624262177.0,32.000000
7,-45,40,1624262177.0,32.000000
11,-44,40,1624262177.0,32.000000
16,-44,38,1624262177.0,32.000000
13,-44,36,1624262177.0,32.000000
8,-45,40,1624262177.0,32.000000
7,-47,40,1624262177.0,32.000000
9,-53,38,1624262177.0,32.000000
12,-58,43,1624262177.0,32.000000
1,-61,45,1624262177.0,32.000000
0,-63,39,1624262177.0,32.000000
6,-61,36,1624262177.0,32.000000
12,-55,25,1624262177.0,32.000000
16,-51,21,1624262177.0,32.000000
24,-53,19,1624262177.0,32.000000
21,-53,27,1624262177.0,32.000000
15,-52,35,1624262177.0,32.000000
4,-49,46,1624262177.0,32.000000
6,-47,45,1624262177.0,32.000000
9,-47,47,1624262177.0,32.000000
7,-50,44,1624262177.0,32.000000
7,-53,33,1624262177.0,32.000000
15,-52,27,1624262177.0,32.000000
16,-51,25,1624262177.0,32.000000
21,-49,23,1624262177.0,32.000000
21,-49,26,1624262177.0,32.000000
9,-51,32,1624262177.0,32.000000
11,-52,38,1624262177.0,32.000000
14,-51,42,1624262177.0,32.000000
14,-52,41,1624262177.0,32.000000
14,-51,37,1624262177.0,32.000000
9,-49,33,1624262177.0,32.000000
12,-48,31,1624262177.0,32.000000
10,-50,31,1624262177.0,32.000000
2,-50,39,1624262177.0,32.000000
-3,-51,41,1624262177.0,32.000000
-1,-49,51,1624262177.0,32.000000
1,-49,55,1624262177.0,32.000000
6,-49,54,1624262177.0,32.000000
0,-49,36,1624262177.0,32.000000
5,-50,26,1624262177.0,32.000000
17,-53,16,1624262177.0,32.000000
18,-51,11,1624262177.0,32.000000
13,-50,16,1624262177.0,32.000000
18,-45,25,1624262177.0,32.000000
17,-42,25,1624262177.0,32.000000
8,-36,23,1624262177.0,32.000000
1,-35,21,1624262177.0,32.000000
-8,-32,20,1624262177.0,32.000000
-42,-21,15,1624262177.0,32.000000
-54,-21,13,1624262177.0,32.000000
-73,-22,44,1624262177.0,32.000000
-91,-22,40,1624262177.0,32.000000
-68,-26,40,1624262177.0,32.000000
-37,-18,42,1624262177.0,32.000000
-45,-10,40,1624262177.0,32.000000
-40,-13,59,1624262177.0,32.000000
-50,-1,70,1624262177.0,32.000000
-60,-9,60,1624262177.0,32.000000
-46,-7,48,1624262177.0,32.000000
-42,-4,41,1624262177.0,32.000000
-29,2,56,1624262177.0,32.000000
-35,10,63,1624262177.0,32.000000
-80,17,71,1624262177.0,32.000000
-46,17,73,1624262177.0,32.000000
-56,1,54,1624262177.0,32.000000
-31,1,47,1624262177.0,32.000000
-24,3,49,1624262177.0,32.000000
-29,13,54,1624262177.0,32.000000
-47,21,55,1624262177.0,32.000000
-50,21,55,1624262177.0,32.000000
-42,13,48,1624262177.0,32.000000
-38,9,48,1624262177.0,32.000000
-38,3,46,1624262177.0,32.000000
-41,2,51,1624262177.0,32.000000
-44,2,53,1624262177.0,32.000000
-38,5,59,1624262177.0,32.000000
-34,6,59,1624262177.0,32.000000
-33,7,57,1624262177.0,32.000000
-35,6,55,1624262177.0,32.000000
-34,6,54,1624262177.0,32.000000
-35,7,54,1624262177.0,32.000000
-36,8,54,1624262177.0,32.000000
-37,8,55,1624262177.0,32.000000
-37,8,54,1624262177.0,32.000000
-37,8,54,1624262177.0,32.000000
-37,8,54,1624262177.0,32.000000
-38,8,54,1624262177.0,32.000000
-37,7,54,1624262177.0,32.000000
-35,7,55,1624262177.0,32.000000
-35,7,55,1624262177.0,32.000000
-34,7,55,1624262177.0,32.000000
-36,7,55,1624262177.0,32.000000
-37,8,53,1624262177.0,32.000000
-37,8,54,1624262177.0,32.000000
-36,8,55,1624262177.0,32.000000
-37,8,55,1624262177.0,32.000000
-36,8,55,1624262177.0,32.000000
-34,8,55,1624262177.0,32.000000
-34,7,55,1624262177.0,32.000000
-33,7,56,1624262177.0,32.000000
-33,7,57,1624262177.0,32.000000
-34,8,56,1624262177.0,32.000000
-35,8,55,1624262177.0,32.000000
-35,8,54,1624262177.0,32.000000
-35,8,54,1624262177.0,32.000000
-35,7,56,1624262177.0,32.000000
-35,7,56,1624262177.0,32.000000
-35,7,55,1624262177.0,32.000000
-35,7,55,1624262177.0,32.000000
-35,7,55,1624262177.0,32.000000
-34,6,56,1624262177.0,32.000000
-34,6,56,1624262177.0,32.000000
-34,5,56,1624262177.0,32.000000
-34,5,56,1624262177.0,32.000000
-34,5,56,1624262177.0,32.000000
-34,6,55,1624262177.0,32.000000
-35,6,55,1624262177.0,32.000000
-36,5,56,1624262177.0,32.000000
-36,6,55,1624262177.0,32.000000
-36,6,55,1624262177.0,32.000000
-36,5,55,1624262177.0,32.000000
-35,5,55,1624262177.0,32.000000
-35,5,56,1624262177.0,32.000000
-34,5,57,1624262177.0,32.000000
-32,6,56,1624262177.0,32.000000
-34,6,56,1624262177.0,32.000000
-34,7,55,1624262177.0,32.000000
-35,7,55,1624262177.0,32.000000
-35,7,55,1624262177.0,32.000000
-34,7,56,1624262177.0,32.000000
-35,7,55,1624262177.0,32.000000
-35,7,55,1624262177.0,32.000000
-35,7,55,1624262177.0,32.000000
-35,7,56,1624262177.0,32.000000
-35,7,56,1624262177.0,32.000000
-35,7,55,1624262177.0,32.000000
-35,7,54,1624262177.0,32.000000
-35,8,55,1624262177.0,32.000000
-35,8,55,1624262177.0,32.000000
-35,8,55,1624262177.0,32.000000
-35,8,55,1624262177.0,32.000000
-35,8,55,1624262177.0,32.000000
-35,9,55,1624262177.0,32.000000
-35,9,55,1624262177.0,32.000000
-35,9,55,1624262177.0,32.000000
-35,8,55,1624262177.0,32.000000
-35,7,55,1624262177.0,32.000000
-37,7,55,1624262177.0,32.000000
-35,7,55,1624262177.0,32.000000
-35,8,54,1624262177.0,32.000000
-35,8,56,1624262177.0,32.000000
-35,8,55,1624262177.0,32.000000
-34,7,55,1624262177.0,32.000000
-35,7,55,1624262177.0,32.000000
-35,7,55,1624262177.0,32.000000
-35,7,55,1624262177.0,32.000000
-35,7,55,1624262177.0,32.000000
-35,7,55,1624262177.0,32.000000
-35,6,55,1624262177.0,32.000000
-35,7,56,1624262177.0,32.000000
-35,7,55,1624262177.0,32.000000
-35,7,55,1624262177.0,32.000000
-35,6,55,1624262177.0,32.000000
-35,6,55,1624262177.0,32.000000
-35,6,55,1624262177.0,32.000000
-35,6,55,1624262177.0,32.000000
-35,6,55,1624262177.0,32.000000
-35,5,55,1624262177.0,32.000000
-35,6,55,1624262177.0,32.000000
-35,7,55,1624262177.0,32.000000
-35,7,55,1624262177.0,32.000000
-36,7,55,1624262177.0,32.000000
-36,7,55,1624262177.0,32.000000
-36,6,55,1624262177.0,32.000000
-35,6,55,1624262177.0,32.000000
-35,7,55,1624262177.0,32.000000
-35,7,55,1624262177.0,32.000000
-35,7,55,1624262177.0,32.000000
-35,7,55,1624262177.0,32.000000
-35,7,55,1624262177.0,32.000000
-35,7,55,1624262177.0,32.000000
-35,7,55,1624262177.0,32.000000
-35,7,55,1624262177.0,32.000000
-35,7,55,1624262177.0,32.000000
-35,7,55,1624262177.0,32.000000
-36,7,55,1624262177.0,32.000000
-36,8,54,1624262177.0,32.000000
-36,8,54,1624262177.0,32.000000
-35,8,55,1624262177.0,32.000000
-36,7,55,1624262177.0,32.000000
-35,7,55,1624262177.0,32.000000
-35,7,54,1624262177.0,32.000000
-36,7,55,1624262177.0,32.000000
-36,8,56,1624262177.0,32.000000
-36,9,55,1624262177.0,32.000000
-36,9,54,1624262177.0,32.000000
-35,8,54,1624262177.0,32.000000
-34,7,54,1624262177.0,32.000000
-34,6,56,1624262177.0,32.000000
-34,7,56,1624262177.0,32.000000
-35,7,55,1624262177.0,32.000000
-35,8,54,1624262177.0,32.000000
-36,8,54,1624262177.0,32.000000
-36,8,55,1624262177.0,32.000000
-36,7,55,1624262177.0,32.000000
-35,6,55,1624262177.0,32.000000
-35,5,55,1624262177.0,32.000000
-35,5,55,1624262177.0,32.000000
-35,4,56,1624262177.0,32.000000
-35,6,55,1624262177.0,32.000000
-35,6,55,1624262177.0,32.000000
-35,7,55,1624262177.0,32.000000
-35,8,55,1624262177.0,32.000000
-37,7,55,1624262177.0,32.000000
-34,7,56,1624262177.0,32.000000
-35,6,56,1624262177.0,32.000000
-34,5,55,1624262177.0,32.000000
-36,6,52,1624262177.0,32.000000
-39,6,52,1624262177.0,32.000000
-37,7,56,1624262177.0,32.000000
-36,7,55,1624262177.0,32.000000
-34,7,57,1624262177.0,32.000000
-34,6,57,1624262177.0,32.000000
-35,5,54,1624262177.0,32.000000
-35,7,51,1624262177.0,32.000000
-35,7,53,1624262177.0,32.000000
-36,9,56,1624262177.0,32.000000
-36,8,57,1624262177.0,32.000000
-34,7,57,1624262177.0,32.000000
-34,7,55,1624262177.0,32.000000
-40,7,54,1624262177.0,32.000000
-36,9,51,1624262177.0,32.000000
-34,9,52,1624262177.0,32.000000
-32,9,56,1624262177.0,32.000000
-33,8,58,1624262177.0,32.000000
-33,7,58,1624262177.0,32.000000
-35,7,56,1624262177.0,32.000000
-35,8,56,1624262177.0,32.000000
-37,8,54,1624262177.0,32.000000
-37,9,54,1624262177.0,32.000000
-35,9,53,1624262177.0,32.000000
-34,8,55,1624262177.0,32.000000
-34,8,57,1624262177.0,32.000000
-34,8,57,1624262177.0,32.000000
-34,9,57,1624262177.0,32.000000
-35,8,55,1624262177.0,32.000000
-34,9,55,1624262177.0,32.000000
-35,8,53,1624262177.0,32.000000
-37,6,54,1624262177.0,32.000000
-38,5,54,1624262177.0,32.000000
-37,6,54,1624262177.0,32.000000
-35,6,57,1624262177.0,32.000000
-34,6,56,1624262177.0,32.000000
-35,5,53,1624262177.0,32.000000
-35,5,52,1624262177.0,32.000000
-39,5,54,1624262177.0,32.000000
-38,7,55,1624262177.0,32.000000
-38,7,56,1624262177.0,32.000000
-37,6,56,1624262177.0,32.000000
-36,5,56,1624262177.0,32.000000
-34,4,54,1624262177.0,32.000000
-32,6,54,1624262177.0,32.000000
-33,6,56,1624262177.0,32.000000
-36,8,57,1624262177.0,32.000000
-36,8,56,1624262177.0,32.000000
-37,7,55,1624262177.0,32.000000
-36,6,54,1624262177.0,32.000000
-35,6,54,1624262177.0,32.000000
-34,7,55,1624262177.0,32.000000
-35,7,56,1624262177.0,32.000000
-34,7,57,1624262177.0,32.000000
-34,7,54,1624262177.0,32.000000
-35,7,54,1624262177.0,32.000000
-35,7,54,1624262177.0,32.000000
-36,7,56,1624262177.0,32.000000
-36,8,56,1624262177.0,32.000000
-39,6,55,1624262177.0,32.000000
-35,6,54,1624262177.0,32.000000
-32,7,54,1624262177.0,32.000000
-33,8,56,1624262177.0,32.000000
-36,10,55,1624262177.0,32.000000
-37,10,54,1624262177.0,32.000000
-37,9,56,1624262177.0,32.000000
-37,7,54,1624262177.0,32.000000
-35,8,52,1624262177.0,32.000000
-36,8,53,1624262177.0,32.000000
-36,9,55,1624262177.0,32.000000
-35,7,57,1624262177.0,32.000000
-39,6,55,1624262177.0,32.000000
-38,8,53,1624262177.0,32.000000
-35,9,51,1624262177.0,32.000000
-36,8,52,1624262177.0,32.000000
-35,8,57,1624262177.0,32.000000
-37,7,56,1624262177.0,32.000000
-39,7,55,1624262177.0,32.000000
-37,8,50,1624262177.0,32.000000
-35,7,49,1624262177.0,32.000000
-36,7,56,1624262177.0,32.000000
-36,8,57,1624262177.0,32.000000
-37,7,56,1624262177.0,32.000000
-36,5,54,1624262177.0,32.000000
-38,6,54,1624262177.0,32.000000
-38,7,51,1624262177.0,32.000000
-35,8,53,1624262177.0,32.000000
-37,8,55,1624262177.0,32.000000
-35,7,57,1624262177.0,32.000000
-35,6,57,1624262177.0,32.000000
-34,5,56,1624262177.0,32.000000
-36,6,54,1624262177.0,32.000000
-39,8,55,1624262177.0,32.000000
-44,12,55,1624262177.0,32.000000
-47,12,55,1624262177.0,32.000000
-53,15,60,1624262177.0,32.000000
-56,13,73,1624262177.0,32.000000
-63,9,71,1624262177.0,32.000000
-56,6,58,1624262177.0,32.000000
-38,3,68,1624262177.0,32.000000
-17,0,75,1624262177.0,32.000000
1,-7,59,1624262177.0,32.000000
-12,-13,45,1624262177.0,32.000000
-14,-18,32,1624262177.0,32.000000
-13,-18,31,1624262177.0,32.000000
-25,-15,47,1624262177.0,32.000000
-42,-17,48,1624262177.0,32.000000
-46,-24,41,1624262177.0,32.000000
-56,-21,32,1624262177.0,32.000000
-67,-23,26,1624262177.0,32.000000
-69,-26,12,1624262177.0,32.000000
-64,-29,14,1624262177.0,32.000000
-59,-31,16,1624262177.0,32.000000
-33,-40,26,1624262177.0,32.000000
-16,-40,33,1624262177.0,32.000000
-46,-12,14,1624262177.0,32.000000
-71,7,-9,1624262177.0,32.000000
-95,66,-73,1624262177.0,32.000000
-95,59,-72,1624262177.0,32.000000
-57,42,-37,1624262177.0,32.000000
-39,10,-5,1624262177.0,32.000000
-67,-4,37,1624262177.0,32.000000
-105,-50,110,1624262177.0,32.000000
-128,-45,86,1624262177.0,32.000000
-95,-42,70,1624262177.0,32.000000
-67,-36,13,1624262177.0,32.000000
-71,-32,-13,1624262177.0,32.000000
-61,-18,-49,1624262177.0,32.000000
-54,14,-95,1624262177.0,32.000000
-41,21,-93,1624262177.0,32.000000
-34,14,-48,1624262177.0,32.000000
-33,10,-27,1624262177.0,32.000000
-21,-3,8,1624262177.0,32.000000
-11,-11,24,1624262177.0,32.000000
-21,-6,52,1624262177.0,32.000000
-64,-6,84,1624262177.0,32.000000
-102,-7,81,1624262177.0,32.000000
-96,-30,53,1624262177.0,32.000000
-90,-35,-1,1624262177.0,32.000000
-86,-37,-12,1624262177.0,32.000000
-82,-10,-27,1624262177.0,32.000000
-55,-12,-29,1624262177.0,32.000000
-41,-11,-37,1624262177.0,32.000000
-19,-13,-49,1624262177.0,32.000000
-20,-11,-60,1624262177.0,32.000000
-43,10,-67,1624262177.0,32.000000
-50,20,-73,1624262177.0,32.000000
-62,23,-48,1624262177.0,32.000000
-76,24,-25,1624262177.0,32.000000
-104,16,25,1624262177.0,32.000000
-128,11,73,1624262177.0,32.000000
-124,3,74,1624262177.0,32.000000
-96,-13,53,1624262177.0,32.000000
-89,-19,41,1624262177.0,32.000000
-49,-49,9,1624262177.0,32.000000
-19,-75,-22,1624262177.0,32.000000
-24,-62,-30,1624262177.0,32.000000
-10,-16,-42,1624262177.0,32.000000
-2,-9,-65,1624262177.0,32.000000
-24,21,-76,1624262177.0,32.000000
-43,27,-56,1624262177.0,32.000000
-53,29,-43,1624262177.0,32.000000
-70,27,-20,1624262177.0,32.000000
-82,25,-8,1624262177.0,32.000000
-105,26,50,1624262177.0,32.000000
-89,15,61,1624262177.0,32.000000
-84,12,56,1624262177.0,32.000000
-76,-2,36,1624262177.0,32.000000
-66,-10,28,1624262177.0,32.000000
-50,-16,17,1624262177.0,32.000000
-55,-19,-7,1624262177.0,32.000000
-54,-21,-11,1624262177.0,32.000000
-68,-25,-9,1624262177.0,32.000000
-75,-23,-6,1624262177.0,32.000000
-76,-14,5,1624262177.0,32.000000
-67,4,31,1624262177.0,32.000000
-69,11,46,1624262177.0,32.000000
-72,10,39,1624262177.0,32.000000
-70,7,28,1624262177.0,32.000000
-62,5,18,1624262177.0,32.000000
-55,4,16,1624262177.0,32.000000
-53,4,15,1624262177.0,32.000000
-53,-2,15,1624262177.0,32.000000
-55,-4,15,1624262177.0,32.000000
-64,-5,15,1624262177.0,32.000000
-68,3,21,1624262177.0,32.000000
-70,5,22,1624262177.0,32.000000
-65,8,26,1624262177.0,32.000000
-65,8,25,1624262177.0,32.000000
-60,8,19,1624262177.0,32.000000
-57,7,17,1624262177.0,32.000000
-57,5,14,1624262177.0,32.000000
-63,5,13,1624262177.0,32.000000
-65,4,14,1624262177.0,32.000000
-62,8,19,1624262177.0,32.000000
-64,9,20,1624262177.0,32.000000
-72,8,15,1624262177.0,32.000000
-64,9,13,1624262177.0,32.000000
-59,11,13,1624262177.0,32.000000
-68,17,11,1624262177.0,32.000000
-71,17,13,1624262177.0,32.000000
-65,19,22,1624262177.0,32.000000
-65,17,11,1624262177.0,32.000000
-61,18,8,1624262177.0,32.000000
-64,20,8,1624262177.0,32.000000
-64,19,10,1624262177.0,32.000000
-61,17,10,1624262177.0,32.000000
-62,15,8,1624262177.0,32.000000
-64,15,9,1624262177.0,32.000000
-67,17,11,1624262177.0,32.000000
-67,18,12,1624262177.0,32.000000
-63,16,11,1624262177.0,32.000000
-64,15,12,1624262177.0,32.000000
-63,15,13,1624262177.0,32.000000
-63,16,11,1624262177.0,32.000000
-65,16,10,1624262177.0,32.000000
-64,16,11,1624262177.0,32.000000
-62,16,11,1624262177.0,32.000000
-63,16,11,1624262177.0,32.000000
-65,16,11,1624262177.0,32.000000
-64,16,12,1624262177.0,32.000000
-62,16,12,1624262177.0,32.000000
-63,16,11,1624262177.0,32.000000
-63,16,11,1624262177.0,32.000000
-62,16,11,1624262177.0,32.000000
-62,16,12,1624262177.0,32.000000
-65,17,12,1624262177.0,32.000000
-66,17,12,1624262177.0,32.000000
-64,17,14,1624262177.0,32.000000
-63,17,18,1624262177.0,32.000000
-60,16,20,1624262177.0,32.000000
-58,16,21,1624262177.0,32.000000
-61,16,21,1624262177.0,32.000000
-61,15,20,1624262177.0,32.000000
-61,13,18,1624262177.0,32.000000
-63,14,18,1624262177.0,32.000000
-63,14,19,1624262177.0,32.000000
-62,14,19,1624262177.0,32.000000
-61,15,20,1624262177.0,32.000000
-64,15,17,1624262177.0,32.000000
-64,15,16,1624262177.0,32.000000
-64,16,14,1624262177.0,32.000000
-64,15,14,1624262177.0,32.000000
-61,13,15,1624262177.0,32.000000
-62,11,16,1624262177.0,32.000000
-62,12,16,1624262177.0,32.000000
-65,14,15,1624262177.0,32.000000
-64,15,14,1624262177.0,32.000000
-64,16,14,1624262177.0,32.000000
-63,15,15,1624262177.0,32.000000
-63,15,15,1624262177.0,32.000000
-62,14,16,1624262177.0,32.000000
-61,14,17,1624262177.0,32.000000
-63,14,15,1624262177.0,32.000000
-63,14,16,1624262177.0,32.000000
-63,14,15,1624262177.0,32.000000
-63,14,15,1624262177.0,32.000000
-64,14,15,1624262177.0,32.000000
-63,15,15,1624262177.0,32.000000
-63,14,14,1624262177.0,32.000000
-64,13,13,1624262177.0,32.000000
-64,12,12,1624262177.0,32.000000
-64,12,13,1624262177.0,32.000000
-64,14,13,1624262177.0,32.000000
-62,14,14,1624262177.0,32.000000
-62,15,14,1624262177.0,32.000000
-63,16,14,1624262177.0,32.000000
-63,16,14,1624262177.0,32.000000
-63,15,15,1624262177.0,32.000000
-65,15,13,1624262177.0,32.000000
-63,14,13,1624262177.0,32.000000
-63,13,12,1624262177.0,32.000000
-66,12,10,1624262177.0,32.000000
-64,12,11,1624262177.0,32.000000
-64,12,12,1624262177.0,32.000000
-62,15,15,1624262177.0,32.000000
-63,15,14,1624262177.0,32.000000
-63,15,13,1624262177.0,32.000000
-64,16,11,1624262177.0,32.000000
-63,16,11,1624262177.0,32.000000
-64,15,11,1624262177.0,32.000000
-64,14,10,1624262177.0,32.000000
-65,13,10,1624262177.0,32.000000
-64,13,11,1624262177.0,32.000000
-64,13,12,1624262177.0,32.000000
-63,14,14,1624262177.0,32.000000
-62,14,13,1624262177.0,32.000000
-63,14,13,1624262177.0,32.000000
-64,13,11,1624262177.0,32.000000
-64,13,12,1624262177.0,32.000000
-64,14,12,1624262177.0,32.000000
-63,14,12,1624262177.0,32.000000
-64,14,12,1624262177.0,32.000000
-64,14,12,1624262177.0,32.000000
-63,14,12,1624262177.0,32.000000
-63,14,12,1624262177.0,32.000000
-64,14,12,1624262177.0,32.000000
-64,14,12,1624262177.0,32.000000
-63,14,12,1624262177.0,32.000000
-64,14,13,1624262177.0,32.000000
-64,13,12,1624262177.0,32.000000
-64,14,13,1624262177.0,32.000000
-64,14,13,1624262177.0,32.000000
-63,14,12,1624262177.0,32.000000
-63,14,12,1624262177.0,32.000000
-63,14,12,1624262177.0,32.000000
-64,14,13,1624262177.0,32.000000
-64,14,13,1624262177.0,32.000000
-64,14,12,1624262177.0,32.000000
-64,13,12,1624262177.0,32.000000
-64,13,13,1624262177.0,32.000000
-63,13,13,1624262177.0,32.000000
-63,13,13,1624262177.0,32.000000
-63,13,13,1624262177.0,32.000000
-64,13,13,1624262177.0,32.000000
-63,14,13,1624262177.0,32.000000
-64,14,13,1624262177.0,32.000000
-63,14,13,1624262177.0,32.000000
-63,13,14,1624262177.0,32.000000
-64,14,13,1624262177.0,32.000000
-63,14,13,1624262177.0,32.000000
-64,13,13,1624262177.0,32.000000
-64,13,13,1624262177.0,32.000000
-64,14,13,1624262177.0,32.000000
-64,14,13,1624262177.0,32.000000
-63,14,12,1624262177.0,32.000000
-63,14,12,1624262177.0,32.000000
-64,14,13,1624262177.0,32.000000
-63,13,13,1624262177.0,32.000000
-64,14,13,1624262177.0,32.000000
-64,14,13,1624262177.0,32.000000
-63,14,12,1624262177.0,32.000000
-64,13,13,1624262177.0,32.000000
-64,14,13,1624262177.0,32.000000
-63,14,13,1624262177.0,32.000000
-63,14,12,1624262177.0,32.000000
-64,14,12,1624262177.0,32.000000
-64,14,13,1624262177.0,32.000000
-64,14,12,1624262177.0,32.000000
-63,14,12,1624262177.0,32.000000
-64,14,12,1624262177.0,32.000000
-64,14,12,1624262177.0,32.000000
-64,14,12,1624262177.0,32.000000
-63,14,12,1624262177.0,32.000000
-64,14,12,1624262177.0,32.000000
-64,14,12,1624262177.0,32.000000
-64,14,12,1624262177.0,32.000000
-64,14,11,1624262177.0,32.000000
-64,14,12,1624262177.0,32.000000
-64,14,12,1624262177.0,32.000000
-63,14,12,1624262177.0,32.000000
-64,14,12,1624262177.0,32.000000
-63,13,11,1624262177.0,32.000000
-63,13,12,1624262177.0,32.000000
-64,13,12,1624262177.0,32.000000
-64,13,11,1624262177.0,32.000000
-64,13,11,1624262177.0,32.000000
-63,14,11,1624262177.0,32.000000
-63,14,11,1624262177.0,32.000000
-64,14,11,1624262177.0,32.000000
-65,14,11,1624262177.0,32.000000
-65,15,11,1624262177.0,32.000000
-63,16,11,1624262177.0,32.000000
-63,15,9,1624262177.0,32.000000
-66,14,8,1624262177.0,32.000000
-64,13,10,1624262177.0,32.000000
-63,14,11,1624262177.0,32.000000
-63,15,10,1624262177.0,32.000000
-63,15,9,1624262177.0,32.000000
-64,14,9,1624262177.0,32.000000
-64,14,8,1624262177.0,32.000000
-64,15,9,1624262177.0,32.000000
-63,16,9,1624262177.0,32.000000
-63,16,9,1624262177.0,32.000000
-64,16,9,1624262177.0,32.000000
-63,15,9,1624262177.0,32.000000
-63,15,9,1624262177.0,32.000000
-64,15,8,1624262177.0,32.000000
-64,15,8,1624262177.0,32.000000
-64,15,8,1624262177.0,32.000000
-65,15,9,1624262177.0,32.000000
-64,16,8,1624262177.0,32.000000
-63,16,7,1624262177.0,32.000000
-63,16,6,1624262177.0,32.000000
-64,16,7,1624262177.0,32.000000
-64,16,7,1624262177.0,32.000000
-64,16,8,1624262177.0,32.000000
-64,16,7,1624262177.0,32.000000
-64,16,6,1624262177.0,32.000000
-64,16,8,1624262177.0,32.000000
-63,17,8,1624262177.0,32.000000
-63,17,7,1624262177.0,32.000000
-64,17,6,1624262177.0,32.000000
-64,18,6,1624262177.0,32.000000
-63,17,6,1624262177.0,32.000000
-65,17,5,1624262177.0,32.000000
-66,16,5,1624262177.0,32.000000
-63,17,7,1624262177.0,32.000000
-64,17,7,1624262177.0,32.000000
-64,17,6,1624262177.0,32.000000
-65,17,7,1624262177.0,32.000000
-63,17,9,1624262177.0,32.000000
-63,17,10,1624262177.0,32.000000
-62,17,10,1624262177.0,32.000000
-64,16,10,1624262177.0,32.000000
-65,16,9,1624262177.0,32.000000
-64,15,11,1624262177.0,32.000000
-63,16,12,1624262177.0,32.000000
-62,16,13,1624262177.0,32.000000
-62,15,12,1624262177.0,32.000000
-63,15,11,1624262177.0,32.000000
-64,15,11,1624262177.0,32.000000
-65,14,11,1624262177.0,32.000000
-65,14,12,1624262177.0,32.000000
-65,13,13,1624262177.0,32.000000
-64,14,14,1624262177.0,32.000000
-62,14,15,1624262177.0,32.000000
-61,13,16,1624262177.0,32.000000
-61,12,16,1624262177.0,32.000000
-62,8,13,1624262177.0,32.000000
-62,8,13,1624262177.0,32.000000
-64,15,15,1624262177.0,32.000000
-62,20,17,1624262177.0,32.000000
-59,19,17,1624262177.0,32.000000
-65,21,14,1624262177.0,32.000000
-66,18,13,1624262177.0,32.000000
-66,18,13,1624262177.0,32.000000
-66,16,14,1624262177.0,32.000000
-67,17,15,1624262177.0,32.000000
-64,16,18,1624262177.0,32.000000
-65,16,20,1624262177.0,32.000000
-62,17,25,1624262177.0,32.000000
-55,18,29,1624262177.0,32.000000
-54,19,26,1624262177.0,32.000000
-59,18,27,1624262177.0,32.000000
-60,17,31,1624262177.0,32.000000
-63,16,35,1624262177.0,32.000000
-74,17,37,1624262177.0,32.000000
-69,15,40,1624262177.0,32.000000
-55,17,43,1624262177.0,32.000000
-41,17,47,1624262177.0,32.000000
-18,11,58,1624262177.0,32.000000
-18,-1,52,1624262177.0,32.000000
-16,-6,48,1624262177.0,32.000000
-22,-17,44,1624262177.0,32.000000
-23,-18,45,1624262177.0,32.000000
-14,-14,45,1624262177.0,32.000000
-24,-10,44,1624262177.0,32.000000
-49,-1,40,1624262177.0,32.000000
-48,5,48,1624262177.0,32.000000
-41,8,53,1624262177.0,32.000000
-47,11,53,1624262177.0,32.000000
-64,11,38,1624262177.0,32.000000
-82,6,46,1624262177.0,32.000000
-65,12,46,1624262177.0,32.000000
-55,9,43,1624262177.0,32.000000
-33,2,41,1624262177.0,32.000000
-34,5,44,1624262177.0,32.000000
-2,5,45,1624262177.0,32.000000
-50,11,46,1624262177.0,32.000000
-55,21,52,1624262177.0,32.000000
-46,22,60,1624262177.0,32.000000
-50,1,56,1624262177.0,32.000000
-29,11,61,1624262177.0,32.000000
-37,9,48,1624262177.0,32.000000
-41,8,44,1624262177.0,32.000000
-44,10,48,1624262177.0,32.000000
-44,10,51,1624262177.0,32.000000
-42,10,50,1624262177.0,32.000000
-37,9,51,1624262177.0,32.000000
-36,9,53,1624262177.0,32.000000
-36,9,55,1624262177.0,32.000000
-37,9,55,1624262177.0,32.000000
-37,9,54,1624262177.0,32.000000
-35,9,54,1624262177.0,32.000000
-35,9,54,1624262177.0,32.000000
-34,9,54,1624262177.0,32.000000
-35,8,54,1624262177.0,32.000000
-32,9,56,1624262177.0,32.000000
-32,10,56,1624262177.0,32.000000
-32,10,55,1624262177.0,32.000000
-33,10,56,1624262177.0,32.000000
-34,10,55,1624262177.0,32.000000
-35,10,55,1624262177.0,32.000000
-34,11,55,1624262177.0,32.000000
-34,11,55,1624262177.0,32.000000
-35,10,56,1624262177.0,32.000000
-35,10,56,1624262177.0,32.000000
-34,11,56,1624262177.0,32.000000
-34,11,55,1624262177.0,32.000000
-34,12,56,1624262177.0,32.000000
-34,12,55,1624262177.0,32.000000
-35,12,55,1624262177.0,32.000000
-35,12,53,1624262177.0,32.000000
-35,12,54,1624262177.0,32.000000
-37,12,55,1624262177.0,32.000000
-36,12,55,1624262177.0,32.000000
-34,11,55,1624262177.0,32.000000
-34,11,55,1624262177.0,32.000000
-35,11,55,1624262177.0,32.000000
-34,12,54,1624262177.0,32.000000
-34,11,55,1624262177.0,32.000000
-34,11,55,1624262177.0,32.000000
-35,10,55,1624262177.0,32.000000
-34,10,55,1624262177.0,32.000000
-34,10,55,1624262177.0,32.000000
-33,10,55,1624262177.0,32.000000
-33,11,55,1624262177.0,32.000000
-33,11,55,1624262177.0,32.000000
-33,11,55,1624262177.0,32.000000
-32,12,55,1624262177.0,32.000000
-33,11,56,1624262177.0,32.000000
-33,10,58,1624262177.0,32.000000
-33,10,57,1624262177.0,32.000000
-33,9,56,1624262177.0,32.000000
-32,9,56,1624262177.0,32.000000
-33,9,56,1624262177.0,32.000000
-33,9,56,1624262177.0,32.000000
-35,9,56,1624262177.0,32.000000
-35,9,56,1624262177.0,32.000000
-36,8,55,1624262177.0,32.000000
-35,8,55,1624262177.0,32.000000
-35,8,55,1624262177.0,32.000000
-34,8,56,1624262177.0,32.000000
-34,8,56,1624262177.0,32.000000
-34,8,55,1624262177.0,32.000000
-35,9,55,1624262177.0,32.000000
-35,9,55,1624262177.0,32.000000
-35,9,55,1624262177.0,32.000000
-35,9,55,1624262177.0,32.000000
-35,9,54,1624262177.0,32.000000
-36,9,55,1624262177.0,32.000000
-36,10,56,1624262177.0,32.000000
-33,10,56,1624262177.0,32.000000
-32,11,55,1624262177.0,32.000000
-34,10,55,1624262177.0,32.000000
-35,10,55,1624262177.0,32.000000
-35,10,55,1624262177.0,32.000000
-35,9,54,1624262177.0,32.000000
-34,9,55,1624262177.0,32.000000
-34,9,54,1624262177.0,32.000000
-35,9,55,1624262177.0,32.000000
-35,10,55,1624262177.0,32.000000
-35,11,55,1624262177.0,32.000000
-35,11,55,1624262177.0,32.000000
-35,11,55,1624262177.0,32.000000
-35,11,55,1624262177.0,32.000000
-36,11,55,1624262177.0,32.000000
-35,11,54,1624262177.0,32.000000
-35,12,54,1624262177.0,32.000000
-35,12,54,1624262177.0,32.000000
-34,13,54,1624262177.0,32.000000
-35,13,54,1624262177.0,32.000000
-35,12,54,1624262177.0,32.000000
-35,12,54,1624262177.0,32.000000
-35,11,55,1624262177.0,32.000000
-34,11,54,1624262177.0,32.000000
-35,11,55,1624262177.0,32.000000
-37,12,55,1624262177.0,32.000000
-38,12,54,1624262177.0,32.000000
-35,11,55,1624262177.0,32.000000
-36,11,53,1624262177.0,32.000000
-37,11,53,1624262177.0,32.000000
-35,12,53,1624262177.0,32.000000
-36,12,53,1624262177.0,32.000000
-36,12,53,1624262177.0,32.000000
-36,12,54,1624262177.0,32.000000
-36,12,54,1624262177.0,32.000000
-36,12,53,1624262177.0,32.000000
-36,11,54,1624262177.0,32.000000
-35,11,53,1624262177.0,32.000000
-35,10,53,1624262177.0,32.000000
-36,10,54,1624262177.0,32.000000
-36,10,54,1624262177.0,32.000000
-35,10,54,1624262177.0,32.000000
-36,9,55,1624262177.0,32.000000
-36,9,54,1624262177.0,32.000000
-36,9,54,1624262177.0,32.000000
-36,10,55,1624262177.0,32.000000
-36,10,54,1624262177.0,32.000000
-37,10,54,1624262177.0,32.000000
-37,9,54,1624262177.0,32.000000
-37,10,54,1624262177.0,32.000000
-36,10,54,1624262177.0,32.000000
-37,11,55,1624262177.0,32.000000
-36,11,55,1624262177.0,32.000000
-36,11,54,1624262177.0,32.000000
-37,11,53,1624262177.0,32.000000
-36,11,53,1624262177.0,32.000000
-37,11,53,1624262177.0,32.000000
-36,10,53,1624262177.0,32.000000
-37,10,53,1624262177.0,32.000000
-37,10,53,1624262177.0,32.000000
-37,10,53,1624262177.0,32.000000
-37,11,54,1624262177.0,32.000000
-36,11,53,1624262177.0,32.000000
-36,11,53,1624262177.0,32.000000
-36,11,53,1624262177.0,32.000000
-36,11,53,1624262177.0,32.000000
-37,11,53,1624262177.0,32.000000
-37,11,54,1624262177.0,32.000000
-37,12,54,1624262177.0,32.000000
-36,12,54,1624262177.0,32.000000
-36,12,54,1624262177.0,32.000000
-36,12,54,1624262177.0,32.000000
-36,12,54,1624262177.0,32.000000
-35,12,54,1624262177.0,32.000000
-35,12,54,1624262177.0,32.000000
-35,12,54,1624262177.0,32.000000
-36,13,54,1624262177.0,32.000000
-35,13,54,1624262177.0,32.000000
-35,12,54,1624262177.0,32.000000
-35,12,55,1624262177.0,32.000000
-35,12,55,1624262177.0,32.000000
-34,12,55,1624262177.0,32.000000
-35,12,55,1624262177.0,32.000000
-34,12,55,1624262177.0,32.000000
-34,12,55,1624262177.0,32.000000
-34,12,55,1624262177.0,32.000000
-34,13,54,1624262177.0,32.000000
-35,13,54,1624262177.0,32.000000
-34,13,55,1624262177.0,32.000000
-35,13,55,1624262177.0,32.000000
-34,12,55,1624262177.0,32.000000
-34,12,55,1624262177.0,32.000000
-34,12,55,1624262177.0,32.000000
-33,12,55,1624262177.0,32.000000
-34,11,55,1624262177.0,32.000000
-33,12,55,1624262177.0,32.000000
-34,12,55,1624262177.0,32.000000
-34,12,55,1624262177.0,32.000000
-34,12,55,1624262177.0,32.000000
-34,12,55,1624262177.0,32.000000
-35,11,53,1624262177.0,32.000000
-35,11,55,1624262177.0,32.000000
-35,10,55,1624262177.0,32.000000
-33,10,56,1624262177.0,32.000000
-33,9,56,1624262177.0,32.000000
-33,8,56,1624262177.0,32.000000
-32,9,56,1624262177.0,32.000000
-32,9,56,1624262177.0,32.000000
-34,11,55,1624262177.0,32.000000
-34,12,55,1624262177.0,32.000000
-35,11,55,1624262177.0,32.000000
-34,11,54,1624262177.0,32.000000
-34,11,54,1624262177.0,32.000000
-33,11,56,1624262177.0,32.000000
-33,12,55,1624262177.0,32.000000
-34,12,54,1624262177.0,32.000000
-34,11,55,1624262177.0,32.000000
-33,11,56,1624262177.0,32.000000
-33,11,56,1624262177.0,32.000000
-32,11,55,1624262177.0,32.000000
-33,11,55,1624262177.0,32.000000
-34,12,55,1624262177.0,32.000000
-34,12,55,1624262177.0,32.000000
-33,12,55,1624262177.0,32.000000
-35,12,54,1624262177.0,32.000000
-39,12,53,1624262177.0,32.000000
-39,14,52,1624262177.0,32.000000
-39,13,51,1624262177.0,32.000000
-21,11,60,1624262177.0,32.000000
-22,9,60,1624262177.0,32.000000
-16,11,61,1624262177.0,32.000000
-16,11,64,1624262177.0,32.000000
-17,11,64,1624262177.0,32.000000
-16,12,62,1624262177.0,32.000000
-17,12,62,1624262177.0,32.000000
-18,12,63,1624262177.0,32.000000
-17,12,62,1624262177.0,32.000000
-17,13,64,1624262177.0,32.000000
-23,9,60,1624262177.0,32.000000
-23,10,61,1624262177.0,32.000000
-16,9,62,1624262177.0,32.000000
-23,7,61,1624262177.0,32.000000
-23,11,63,1624262177.0,32.000000
-22,9,62,1624262177.0,32.000000
-21,9,62,1624262177.0,32.000000
-20,9,63,1624262177.0,32.000000
-31,7,58,1624262177.0,32.000000
-30,10,59,1624262177.0,32.000000
-25,11,63,1624262177.0,32.000000
-32,12,60,1624262177.0,32.000000
-37,7,57,1624262177.0,32.000000
-33,8,58,1624262177.0,32.000000
-31,13,59,1624262177.0,32.000000
-47,1,48,1624262177.0,32.000000
-50,8,45,1624262177.0,32.000000
-42,1,45,1624262177.0,32.000000
-24,5,60,1624262177.0,32.000000
-25,5,62,1624262177.0,32.000000
-24,6,61,1624262177.0,32.000000
-15,8,61,1624262177.0,32.000000
-9,10,61,1624262177.0,32.000000
-3,-1,60,1624262177.0,32.000000
-14,2,58,1624262177.0,32.000000
-9,3,61,1624262177.0,32.000000
-5,6,67,1624262177.0,32.000000
-2,3,73,1624262177.0,32.000000
-16,5,66,1624262177.0,32.000000
-24,5,61,1624262177.0,32.000000
-26,6,57,1624262177.0,32.000000
-23,4,60,1624262177.0,32.000000
-26,5,61,1624262177.0,32.000000
-35,9,55,1624262177.0,32.000000
-33,8,58,1624262177.0,32.000000
-37,6,54,1624262177.0,32.000000
-43,8,51,1624262177.0,32.000000
-37,8,52,1624262177.0,32.000000
-37,7,49,1624262177.0,32.000000
-34,7,54,1624262177.0,32.000000
-25,-6,66,1624262177.0,32.000000
-52,28,60,1624262177.0,32.000000
-36,0,57,1624262177.0,32.000000
-36,2,57,1624262177.0,32.000000
-33,3,53,1624262177.0,32.000000
-25,3,53,1624262177.0,32.000000
-25,3,52,1624262177.0,32.000000
-30,6,49,1624262177.0,32.000000
-30,13,64,1624262177.0,32.000000
1,0,79,1624262177.0,32.000000
-10,1,72,1624262177.0,32.000000
-15,2,70,1624262177.0,32.000000
-18,3,62,1624262177.0,32.000000
-21,5,63,1624262177.0,32.000000
-26,6,70,1624262177.0,32.000000
-42,10,68,1624262177.0,32.000000
-48,13,65,1624262177.0,32.000000
-53,28,48,1624262177.0,32.000000
-27,-6,66,1624262177.0,32.000000
-29,-23,71,1624262177.0,32.000000
-15,5,76,1624262177.0,32.000000
-10,-6,76,1624262177.0,32.000000
-20,-6,60,1624262177.0,32.000000
-19,-3,53,1624262177.0,32.000000
-17,-21,41,1624262177.0,32.000000
-8,-14,45,1624262177.0,32.000000
-6,-7,45,1624262177.0,32.000000
-14,-18,47,1624262177.0,32.000000
-19,-15,44,1624262177.0,32.000000
-14,-23,50,1624262177.0,32.000000
-8,-25,62,1624262177.0,32.000000
-5,-22,63,1624262177.0,32.000000
0,-26,56,1624262177.0,32.000000
1,-25,53,1624262177.0,32.000000
-2,-22,53,1624262177.0,32.000000
7,-24,60,1624262177.0,32.000000
-8,-2,70,1624262177.0,32.000000
-5,-21,54,1624262177.0,32.000000
-13,-23,57,1624262177.0,32.000000
-7,-27,61,1624262177.0,32.000000
5,-17,74,1624262177.0,32.000000
-7,-16,59,1624262177.0,32.000000
-4,-22,58,1624262177.0,32.000000
8,-9,74,1624262177.0,32.000000
18,-23,64,1624262177.0,32.000000
10,-19,63,1624262177.0,32.000000
7,-17,63,1624262177.0,32.000000
-2,-13,65,1624262177.0,32.000000
-22,6,76,1624262177.0,32.000000
-20,-41,28,1624262177.0,32.000000
2,-12,58,1624262177.0,32.000000
-8,-18,61,1624262177.0,32.000000
-11,-24,57,1624262177.0,32.000000
-9,-20,59,1624262177.0,32.000000
18,-30,57,1624262177.0,32.000000
28,-16,75,1624262177.0,32.000000
2,-16,64,1624262177.0,32.000000
13,-18,64,1624262177.0,32.000000
11,-17,65,1624262177.0,32.000000
-2,-3,59,1624262177.0,32.000000
-16,-33,39,1624262177.0,32.000000
-8,-8,58,1624262177.0,32.000000
-5,-16,65,1624262177.0,32.000000
-3,-20,62,1624262177.0,32.000000
-4,-26,52,1624262177.0,32.000000
7,-24,58,1624262177.0,32.000000
17,-14,74,1624262177.0,32.000000
12,-10,68,1624262177.0,32.000000
12,-14,63,1624262177.0,32.000000
6,-10,61,1624262177.0,32.000000
-13,-4,63,1624262177.0,32.000000
-8,-9,64,1624262177.0,32.000000
7,-8,62,1624262177.0,32.000000
-2,-5,52,1624262177.0,32.000000
0,-5,60,1624262177.0,32.000000
-1,-13,58,1624262177.0,32.000000
6,-22,62,1624262177.0,32.000000
24,-15,72,1624262177.0,32.000000
24,-20,70,1624262177.0,32.000000
13,-13,68,1624262177.0,32.000000
19,-14,67,1624262177.0,32.000000
7,-7,62,1624262177.0,32.000000
-15,1,69,1624262177.0,32.000000
-22,-23,30,1624262177.0,32.000000
8,-7,59,1624262177.0,32.000000
1,-15,61,1624262177.0,32.000000
0,-17,60,1624262177.0,32.000000
-5,-19,58,1624262177.0,32.000000
10,-10,68,1624262177.0,32.000000
21,-10,71,1624262177.0,32.000000
18,-13,66,1624262177.0,32.000000
10,-9,64,1624262177.0,32.000000
12,-12,62,1624262177.0,32.000000
15,-13,59,1624262177.0,32.000000
-30,2,64,1624262177.0,32.000000
-10,-19,51,1624262177.0,32.000000
2,-6,58,1624262177.0,32.000000
-2,-6,57,1624262177.0,32.000000
1,-10,61,1624262177.0,32.000000
17,-23,67,1624262177.0,32.000000
24,-12,75,1624262177.0,32.000000
15,-15,68,1624262177.0,32.000000
15,-9,67,1624262177.0,32.000000
17,7,67,1624262177.0,32.000000
-5,-9,54,1624262177.0,32.000000
-9,-20,53,1624262177.0,32.000000
-6,-10,57,1624262177.0,32.000000
-2,-13,61,1624262177.0,32.000000
8,-5,69,1624262177.0,32.000000
-2,-8,63,1624262177.0,32.000000
-8,-11,65,1624262177.0,32.000000
0,-13,75,1624262177.0,32.000000
9,-5,76,1624262177.0,32.000000
-45,-54,30,1624262177.0,32.000000
-26,-37,50,1624262177.0,32.000000
-28,-8,39,1624262177.0,32.000000
2,-26,68,1624262177.0,32.000000
1,-23,66,1624262177.0,32.000000
-33,-25,57,1624262177.0,32.000000
-21,24,60,1624262177.0,32.000000
-35,29,53,1624262177.0,32.000000
-18,-32,67,1624262177.0,32.000000
-17,-37,60,1624262177.0,32.000000
-27,-40,62,1624262177.0,32.000000
-12,-12,62,1624262177.0,32.000000
-13,10,66,1624262177.0,32.000000
-36,1,57,1624262177.0,32.000000
-42,-13,56,1624262177.0,32.000000
-30,20,56,1624262177.0,32.000000
-23,11,52,1624262177.0,32.000000
-16,-30,56,1624262177.0,32.000000
-19,-37,56,1624262177.0,32.000000
-28,-31,54,1624262177.0,32.000000
-22,4,49,1624262177.0,32.000000
-11,22,65,1624262177.0,32.000000
-19,-39,57,1624262177.0,32.000000
-20,-19,61,1624262177.0,32.000000
-21,-8,60,1624262177.0,32.000000
-23,-16,57,1624262177.0,32.000000
-21,-12,59,1624262177.0,32.000000
-22,-11,58,1624262177.0,32.000000
-21,-10,60,1624262177.0,32.000000
-23,-10,60,1624262177.0,32.000000
-25,-10,61,1624262177.0,32.000000
-25,-10,61,1624262177.0,32.000000
-23,-12,61,1624262177.0,32.000000
-22,-14,60,1624262177.0,32.000000
-22,-15,59,1624262177.0,32.000000
-23,-15,59,1624262177.0,32.000000
-24,-15,58,1624262177.0,32.000000
-26,-14,58,1624262177.0,32.000000
-28,-15,59,1624262177.0,32.000000
-28,-14,59,1624262177.0,32.000000
-28,-13,60,1624262177.0,32.000000
-28,-13,60,1624262177.0,32.000000
-28,-13,60,1624262177.0,32.000000
-26,-20,62,1624262177.0,32.000000
-32,-12,57,1624262177.0,32.000000
-25,-10,60,1624262177.0,32.000000
-27,-10,59,1624262177.0,32.000000
-27,-8,59,1624262177.0,32.000000
-28,-11,58,1624262177.0,32.000000
-27,-6,55,1624262177.0,32.000000
-30,-3,60,1624262177.0,32.000000
-31,-7,56,1624262177.0,32.000000
-32,-7,57,1624262177.0,32.000000
-33,-3,57,1624262177.0,32.000000
-31,-4,58,1624262177.0,32.000000
-32,6,59,1624262177.0,32.000000
-31,2,59,1624262177.0,32.000000
-31,-1,58,1624262177.0,32.000000
-31,-1,57,1624262177.0,32.000000
-32,0,57,1624262177.0,32.000000
-32,1,57,1624262177.0,32.000000
-33,1,57,1624262177.0,32.000000
-34,1,56,1624262177.0,32.000000
-34,0,56,1624262177.0,32.000000
-36,1,56,1624262177.0,32.000000
-37,3,55,1624262177.0,32.000000
-39,2,55,1624262177.0,32.000000
-38,6,56,1624262177.0,32.000000
-44,8,56,1624262177.0,32.000000
-46,-23,52,1624262177.0,32.000000
-46,6,50,1624262177.0,32.000000
-38,-2,52,1624262177.0,32.000000
-43,-6,48,1624262177.0,32.000000
-33,-4,44,1624262177.0,32.000000
-36,-5,48,1624262177.0,32.000000
-38,-5,52,1624262177.0,32.000000
-32,-6,52,1624262177.0,32.000000
-32,-9,53,1624262177.0,32.000000
-34,-10,54,1624262177.0,32.000000
-38,-13,57,1624262177.0,32.000000
-38,-12,59,1624262177.0,32.000000
-34,-10,57,1624262177.0,32.000000
-34,-11,57,1624262177.0,32.000000
-37,-12,55,1624262177.0,32.000000
-40,-12,53,1624262177.0,32.000000
-40,-10,52,1624262177.0,32.000000
-41,-10,52,1624262177.0,32.000000
-37,-9,50,1624262177.0,32.000000
-37,-11,49,1624262177.0,32.000000
-44,-11,49,1624262177.0,32.000000
-40,-8,47,1624262177.0,32.000000
-37,-10,48,1624262177.0,32.000000
-34,-11,49,1624262177.0,32.000000
-33,-12,50,1624262177.0,32.000000
-36,-12,54,1624262177.0,32.000000
-35,-11,55,1624262177.0,32.000000
-29,-11,58,1624262177.0,32.000000
-32,-11,59,1624262177.0,32.000000
-36,-12,58,1624262177.0,32.000000
-34,-13,55,1624262177.0,32.000000
-33,-13,53,1624262177.0,32.000000
-36,-17,48,1624262177.0,32.000000
-43,-23,52,1624262177.0,32.000000
-43,-19,52,1624262177.0,32.000000
-37,-14,45,1624262177.0,32.000000
-41,-12,48,1624262177.0,32.000000
-44,-14,49,1624262177.0,32.000000
-45,-14,49,1624262177.0,32.000000
-43,-10,50,1624262177.0,32.000000
-41,-9,52,1624262177.0,32.000000
-39,3,52,1624262177.0,32.000000
-40,-15,53,1624262177.0,32.000000
-43,-4,51,1624262177.0,32.000000
-43,-8,50,1624262177.0,32.000000
-40,-7,51,1624262177.0,32.000000
-41,-7,52,1624262177.0,32.000000
-40,-6,51,1624262177.0,32.000000
-41,-6,51,1624262177.0,32.000000
-43,-5,51,1624262177.0,32.000000
-43,-3,50,1624262177.0,32.000000
-43,-3,51,1624262177.0,32.000000
-42,-4,51,1624262177.0,32.000000
-42,0,50,1624262177.0,32.000000
-43,0,51,1624262177.0,32.000000
-40,-8,52,1624262177.0,32.000000
-38,-7,53,1624262177.0,32.000000
-31,-6,57,1624262177.0,32.000000
-31,-7,57,1624262177.0,32.000000
-27,-6,59,1624262177.0,32.000000
-22,-11,61,1624262177.0,32.000000
-21,-10,61,1624262177.0,32.000000
-24,-9,60,1624262177.0,32.000000
-23,-10,61,1624262177.0,32.000000
-20,-10,61,1624262177.0,32.000000
-26,-10,60,1624262177.0,32.000000
-27,-8,59,1624262177.0,32.000000
-24,-9,61,1624262177.0,32.000000
-19,-10,62,1624262177.0,32.000000
-21,-10,62,1624262177.0,32.000000
-23,-8,61,1624262177.0,32.000000
-23,-8,60,1624262177.0,32.000000
-36,-22,49,1624262177.0,32.000000
-41,-12,48,1624262177.0,32.000000
-43,5,50,1624262177.0,32.000000
-46,-12,47,1624262177.0,32.000000
-42,-11,50,1624262177.0,32.000000
-39,-5,52,1624262177.0,32.000000
-39,-10,52,1624262177.0,32.000000
-35,-7,56,1624262177.0,32.000000
-31,-8,57,1624262177.0,32.000000
-31,-8,57,1624262177.0,32.000000
-32,-6,57,1624262177.0,32.000000
-33,-7,56,1624262177.0,32.000000
-36,-6,55,1624262177.0,32.000000
-40,-4,52,1624262177.0,32.000000
-40,-4,53,1624262177.0,32.000000
-39,-6,53,1624262177.0,32.000000
-35,-5,55,1624262177.0,32.000000
-27,-8,59,1624262177.0,32.000000
-29,-8,57,1624262177.0,32.000000
-32,-9,57,1624262177.0,32.000000
-30,-7,57,1624262177.0,32.000000
-25,-9,60,1624262177.0,32.000000
-23,-9,59,1624262177.0,32.000000
-26,-8,59,1624262177.0,32.000000
-25,-9,59,1624262177.0,32.000000
-29,-6,59,1624262177.0,32.000000
-28,-7,58,1624262177.0,32.000000
-22,-9,61,1624262177.0,32.000000
-24,-10,60,1624262177.0,32.000000
-24,-9,60,1624262177.0,32.000000
-20,-10,60,1624262177.0,32.000000
-20,-10,61,1624262177.0,32.000000
-23,-10,61,1624262177.0,32.000000
-25,-9,60,1624262177.0,32.000000
-26,-8,59,1624262177.0,32.000000
-25,-9,59,1624262177.0,32.000000
-25,-9,59,1624262177.0,32.000000
-25,-9,60,1624262177.0,32.000000
-24,-9,60,1624262177.0,32.000000
-25,-9,60,1624262177.0,32.000000
-25,-10,60,1624262177.0,32.000000
-25,-9,59,1624262177.0,32.000000
-25,-9,59,1624262177.0,32.000000
-26,-9,59,1624262177.0,32.000000
-25,-9,60,1624262177.0,32.000000
-25,-9,60,1624262177.0,32.000000
-24,-9,60,1624262177.0,32.000000
-25,-10,59,1624262177.0,32.000000
-26,-9,60,1624262177.0,32.000000
-25,-9,59,1624262177.0,32.000000
-24,-9,60,1624262177.0,32.000000
-25,-9,60,1624262177.0,32.000000
-25,-9,59,1624262177.0,32.000000
-26,-9,59,1624262177.0,32.000000
-26,-9,59,1624262177.0,32.000000
-25,-9,60,1624262177.0,32.000000
-25,-9,59,1624262177.0,32.000000
-25,-9,60,1624262177.0,32.000000
-25,-9,60,1624262177.0,32.000000
-25,-10,60,1624262177.0,32.000000
-25,-9,59,1624262177.0,32.000000
-25,-9,59,1624262177.0,32.000000
-25,-10,60,1624262177.0,32.000000
-25,-9,60,1624262177.0,32.000000
-26,-9,59,1624262177.0,32.000000
-25,-9,60,1624262177.0,32.000000
-26,-9,59,1624262177.0,32.000000
-24,-9,61,1624262177.0,32.000000
-24,-10,62,1624262177.0,32.000000
-28,-8,62,1624262177.0,32.000000
-30,3,60,1624262177.0,32.000000
-29,5,55,1624262177.0,32.000000
-15,-50,55,1624262177.0,32.000000
-55,-24,46,1624262177.0,32.000000
-74,-19,29,1624262177.0,32.000000
-72,-19,22,1624262177.0,32.000000
-66,-13,23,1624262177.0,32.000000
-38,-17,35,1624262177.0,32.000000
-38,-18,34,1624262177.0,32.000000
-35,-22,28,1624262177.0,32.000000
-31,-27,32,1624262177.0,32.000000
-30,-28,35,1624262177.0,32.000000
-28,-38,34,1624262177.0,32.000000
-27,-36,34,1624262177.0,32.000000
-34,-30,35,1624262177.0,32.000000
-45,-23,41,1624262177.0,32.000000
-44,-22,46,1624262177.0,32.000000
-47,-20,52,1624262177.0,32.000000
-46,-19,52,1624262177.0,32.000000
-38,-15,52,1624262177.0,32.000000
-40,-15,52,1624262177.0,32.000000
-44,-13,47,1624262177.0,32.000000
-48,-15,49,1624262177.0,32.000000
-44,-13,53,1624262177.0,32.000000
-34,-12,65,1624262177.0,32.000000
-41,-10,69,1624262177.0,32.000000
-32,-11,53,1624262177.0,32.000000
-43,-13,50,1624262177.0,32.000000
-46,-14,48,1624262177.0,32.000000
-39,-14,51,1624262177.0,32.000000
-39,-13,51,1624262177.0,32.000000
-39,-12,52,1624262177.0,32.000000
-38,-12,52,1624262177.0,32.000000
-40,-12,51,1624262177.0,32.000000
-40,-12,50,1624262177.0,32.000000
-40,-12,50,1624262177.0,32.000000
-40,-13,51,1624262177.0,32.000000
-41,-13,49,1624262177.0,32.000000
-42,-13,49,1624262177.0,32.000000
-44,-14,47,1624262177.0,32.000000
-44,-14,47,1624262177.0,32.000000
-44,-13,48,1624262177.0,32.000000
-43,-14,48,1624262177.0,32.000000
-42,-12,49,1624262177.0,32.000000
-44,-11,48,1624262177.0,32.000000
-44,-12,48,1624262177.0,32.000000
-43,-13,48,1624262177.0,32.000000
-43,-14,48,1624262177.0,32.000000
-43,-12,48,1624262177.0,32.000000
-42,-13,49,1624262177.0,32.000000
-42,-12,49,1624262177.0,32.000000
-42,-14,49,1624262177.0,32.000000
-42,-14,49,1624262177.0,32.000000
-44,-14,48,1624262177.0,32.000000
-42,-13,49,1624262177.0,32.000000
-42,-13,49,1624262177.0,32.000000
-41,-10,49,1624262177.0,32.000000
-41,-13,49,1624262177.0,32.000000
-41,-14,49,1624262177.0,32.000000
-44,-12,47,1624262177.0,32.000000
-47,-11,43,1624262177.0,32.000000
-59,-10,34,1624262177.0,32.000000
-63,-7,33,1624262177.0,32.000000
-53,-15,32,1624262177.0,32.000000
-45,-20,36,1624262177.0,32.000000
-40,-17,41,1624262177.0,32.000000
-30,-7,57,1624262177.0,32.000000
-5,-2,52,1624262177.0,32.000000
8,-5,48,1624262177.0,32.000000
-36,4,46,1624262177.0,32.000000
-21,-3,52,1624262177.0,32.000000
38,25,105,1624262177.0,32.000000
-24,39,127,1624262177.0,32.000000
-72,10,60,1624262177.0,32.000000
-39,15,37,1624262177.0,32.000000
-44,18,36,1624262177.0,32.000000
-37,18,43,1624262177.0,32.000000
-31,17,50,1624262177.0,32.000000
-51,22,46,1624262177.0,32.000000
-44,22,47,1624262177.0,32.000000
-47,20,45,1624262177.0,32.000000
-58,20,46,1624262177.0,32.000000
-58,20,49,1624262177.0,32.000000
-43,22,49,1624262177.0,32.000000
-39,20,46,1624262177.0,32.000000
-43,19,46,1624262177.0,32.000000
-46,20,47,1624262177.0,32.000000
-49,19,45,1624262177.0,32.000000
-45,16,40,1624262177.0,32.000000
-44,18,46,1624262177.0,32.000000
-43,17,47,1624262177.0,32.000000
-40,16,48,1624262177.0,32.000000
-41,16,49,1624262177.0,32.000000
-42,16,47,1624262177.0,32.000000
-43,16,45,1624262177.0,32.000000
-44,17,46,1624262177.0,32.000000
-48,19,48,1624262177.0,32.000000
-47,19,47,1624262177.0,32.000000
-55,19,43,1624262177.0,32.000000
-55,18,43,1624262177.0,32.000000
-51,18,44,1624262177.0,32.000000
-43,15,38,1624262177.0,32.000000
-41,13,38,1624262177.0,32.000000
-37,9,44,1624262177.0,32.000000
-29,8,54,1624262177.0,32.000000
-35,10,51,1624262177.0,32.000000
-44,13,48,1624262177.0,32.000000
-47,15,46,1624262177.0,32.000000
-45,15,43,1624262177.0,32.000000
-47,16,41,1624262177.0,32.000000
-58,18,40,1624262177.0,32.000000
-48,18,42,1624262177.0,32.000000
-49,18,40,1624262177.0,32.000000
-42,17,45,1624262177.0,32.000000
-43,18,47,1624262177.0,32.000000
-52,19,46,1624262177.0,32.000000
-49,18,46,1624262177.0,32.000000
-43,17,46,1624262177.0,32.000000
-40,17,48,1624262177.0,32.000000
-41,17,48,1624262177.0,32.000000
-45,16,47,1624262177.0,32.000000
-45,16,46,1624262177.0,32.000000
-44,16,45,1624262177.0,32.000000
-47,16,45,1624262177.0,32.000000
-49,17,46,1624262177.0,32.000000
-47,19,47,1624262177.0,32.000000
-49,20,45,1624262177.0,32.000000
-49,19,44,1624262177.0,32.000000
-43,15,45,1624262177.0,32.000000
-40,14,46,1624262177.0,32.000000
-36,12,47,1624262177.0,32.000000
-37,13,49,1624262177.0,32.000000
-41,13,48,1624262177.0,32.000000
-45,16,48,1624262177.0,32.000000
-46,16,47,1624262177.0,32.000000
-45,16,46,1624262177.0,32.000000
-45,15,47,1624262177.0,32.000000
-45,14,48,1624262177.0,32.000000
-45,15,47,1624262177.0,32.000000
-44,15,47,1624262177.0,32.000000
-44,15,46,1624262177.0,32.000000
-44,15,47,1624262177.0,32.000000
-44,15,47,1624262177.0,32.000000
-44,14,48,1624262177.0,32.000000
-44,15,48,1624262177.0,32.000000
-44,15,47,1624262177.0,32.000000
-44,15,46,1624262177.0,32.000000
-44,15,46,1624262177.0,32.000000
-45,15,47,1624262177.0,32.000000
-44,15,47,1624262177.0,32.000000
-44,15,46,1624262177.0,32.000000
-44,15,47,1624262177.0,32.000000
-45,15,47,1624262177.0,32.000000
-44,15,47,1624262177.0,32.000000
-44,15,47,1624262177.0,32.000000
-44,15,47,1624262177.0,32.000000
-44,15,47,1624262177.0,32.000000
-44,15,47,1624262177.0,32.000000
-45,15,46,1624262177.0,32.000000
-44,15,47,1624262177.0,32.000000
-44,15,47,1624262177.0,32.000000
-44,15,47,1624262177.0,32.000000
-44,15,47,1624262177.0,32.000000
-44,15,47,1624262177.0,32.000000
-44,15,47,1624262177.0,32.000000
-44,15,47,1624262177.0,32.000000
-44,15,47,1624262177.0,32.000000
-44,15,47,1624262177.0,32.000000
-44,15,47,1624262177.0,32.000000
-44,15,47,1624262177.0,32.000000
-45,15,47,1624262177.0,32.000000
-44,15,47,1624262177.0,32.000000
-44,15,47,1624262177.0,32.000000
-44,15,47,1624262177.0,32.000000
-44,15,47,1624262177.0,32.000000
-44,15,47,1624262177.0,32.000000
-44,15,47,1624262177.0,32.000000
-44,15,47,1624262177.0,32.000000
-44,15,47,1624262177.0,32.000000
-44,15,47,1624262177.0,32.000000
-44,15,47,1624262177.0,32.000000
-44,15,47,1624262177.0,32.000000
-44,15,47,1624262177.0,32.000000
-44,15,48,1624262177.0,32.000000
-44,15,48,1624262177.0,32.000000
-43,15,47,1624262177.0,32.000000
-44,15,47,1624262177.0,32.000000
-44,15,46,1624262177.0,32.000000
-44,15,47,1624262177.0,32.000000
-46,16,47,1624262177.0,32.000000
-53,19,52,1624262177.0,32.000000
-52,19,53,1624262177.0,32.000000
-45,19,57,1624262177.0,32.000000
-41,21,61,1624262177.0,32.000000
-39,18,60,1624262177.0,32.000000
-26,15,54,1624262177.0,32.000000
-17,80,66,1624262177.0,32.000000
-66,-8,40,1624262177.0,32.000000
-57,-9,50,1624262177.0,32.000000
-22,9,37,1624262177.0,32.000000
-19,7,62,1624262177.0,32.000000
-31,5,69,1624262177.0,32.000000
-30,7,58,1624262177.0,32.000000
-29,13,54,1624262177.0,32.000000
-39,8,56,1624262177.0,32.000000
-38,10,49,1624262177.0,32.000000
-31,10,54,1624262177.0,32.000000
-17,-1,65,1624262177.0,32.000000
-7,0,69,1624262177.0,32.000000
-10,-1,61,1624262177.0,32.000000
-17,6,59,1624262177.0,32.000000
-29,8,54,1624262177.0,32.000000
-38,4,45,1624262177.0,32.000000
-27,0,45,1624262177.0,32.000000
-29,6,58,1624262177.0,32.000000
-34,12,68,1624262177.0,32.000000
-37,13,61,1624262177.0,32.000000
-42,15,52,1624262177.0,32.000000
-34,16,50,1624262177.0,32.000000
-26,11,57,1624262177.0,32.000000
-19,13,64,1624262177.0,32.000000
-21,13,66,1624262177.0,32.000000
-22,20,72,1624262177.0,32.000000
-28,19,60,1624262177.0,32.000000
-28,18,52,1624262177.0,32.000000
-30,17,58,1624262177.0,32.000000
-25,17,59,1624262177.0,32.000000
-13,16,61,1624262177.0,32.000000
-9,16,63,1624262177.0,32.000000
-24,19,74,1624262177.0,32.000000
-27,20,65,1624262177.0,32.000000
-43,19,54,1624262177.0,32.000000
-26,17,62,1624262177.0,32.000000
-30,13,54,1624262177.0,32.000000
-35,12,46,1624262177.0,32.000000
-40,2,53,1624262177.0,32.000000
-32,0,58,1624262177.0,32.000000
-29,0,49,1624262177.0,32.000000
-24,0,47,1624262177.0,32.000000
-27,3,45,1624262177.0,32.000000
-33,5,52,1624262177.0,32.000000
-33,8,59,1624262177.0,32.000000
-38,10,46,1624262177.0,32.000000
-38,14,53,1624262177.0,32.000000
-35,19,68,1624262177.0,32.000000
-46,24,65,1624262177.0,32.000000
-30,19,56,1624262177.0,32.000000
-26,22,69,1624262177.0,32.000000
-24,23,80,1624262177.0,32.000000
-10,15,80,1624262177.0,32.000000
-14,13,74,1624262177.0,32.000000
-38,4,53,1624262177.0,32.000000
-26,-1,50,1624262177.0,32.000000
-26,-4,61,1624262177.0,32.000000
-30,-12,56,1624262177.0,32.000000
-36,-8,59,1624262177.0,32.000000
-47,-10,64,1624262177.0,32.000000
-51,-9,59,1624262177.0,32.000000
-56,-9,49,1624262177.0,32.000000
-54,-12,35,1624262177.0,32.000000
-54,-13,31,1624262177.0,32.000000
-61,-14,13,1624262177.0,32.000000
-54,-21,3,1624262177.0,32.000000
-48,-25,6,1624262177.0,32.000000
-44,-33,10,1624262177.0,32.000000
-42,-38,13,1624262177.0,32.000000
-36,-42,19,1624262177.0,32.000000
-27,-45,19,1624262177.0,32.000000
-23,-48,18,1624262177.0,32.000000
-11,-47,22,1624262177.0,32.000000
-9,-47,25,1624262177.0,32.000000
-14,-39,36,1624262177.0,32.000000
-12,-38,40,1624262177.0,32.000000
-11,-34,47,1624262177.0,32.000000
-18,-30,58,1624262177.0,32.000000
-11,-29,53,1624262177.0,32.000000
-25,-15,66,1624262177.0,32.000000
-29,-20,65,1624262177.0,32.000000
-14,-13,60,1624262177.0,32.000000
-28,-13,50,1624262177.0,32.000000
-33,-13,45,1624262177.0,32.000000
-29,-13,42,1624262177.0,32.000000
-115,22,27,1624262177.0,32.000000
-30,-25,53,1624262177.0,32.000000
4,3,75,1624262177.0,32.000000
-43,-9,57,1624262177.0,32.000000
-31,-9,59,1624262177.0,32.000000
-15,-12,64,1624262177.0,32.000000
-42,-10,52,1624262177.0,32.000000
-29,-10,59,1624262177.0,32.000000
-27,-12,57,1624262177.0,32.000000
-31,-12,56,1624262177.0,32.000000
-29,-11,58,1624262177.0,32.000000
-31,-11,56,1624262177.0,32.000000
-30,-12,56,1624262177.0,32.000000
-31,-12,57,1624262177.0,32.000000
-29,-11,57,1624262177.0,32.000000
-29,-11,57,1624262177.0,32.000000
-29,-11,57,1624262177.0,32.000000
-28,-11,59,1624262177.0,32.000000
-27,-11,59,1624262177.0,32.000000
-31,-11,56,1624262177.0,32.000000
-31,-11,55,1624262177.0,32.000000
-30,-9,57,1624262177.0,32.000000
-29,-10,58,1624262177.0,32.000000
-29,-11,58,1624262177.0,32.000000
-29,-11,57,1624262177.0,32.000000
-29,-10,57,1624262177.0,32.000000
-29,-11,58,1624262177.0,32.000000
-29,-11,58,1624262177.0,32.000000
-29,-10,58,1624262177.0,32.000000
-29,-11,58,1624262177.0,32.000000
-29,-11,58,1624262177.0,32.000000
-29,-11,57,1624262177.0,32.000000
-30,-11,57,1624262177.0,32.000000
-29,-11,57,1624262177.0,32.000000
-29,-10,58,1624262177.0,32.000000
-29,-11,57,1624262177.0,32.000000
-29,-11,57,1624262177.0,32.000000
-29,-11,57,1624262177.0,32.000000
-29,-11,57,1624262177.0,32.000000
-29,-11,57,1624262177.0,32.000000
-29,-11,58,1624262177.0,32.000000
-29,-11,57,1624262177.0,32.000000
-28,-11,58,1624262177.0,32.000000
-29,-11,58,1624262177.0,32.000000
-29,-11,58,1624262177.0,32.000000
-29,-11,57,1624262177.0,32.000000
-29,-11,58,1624262177.0,32.000000
-28,-11,58,1624262177.0,32.000000
-29,-11,58,1624262177.0,32.000000
-29,-11,58,1624262177.0,32.000000
-29,-11,57,1624262177.0,32.000000
-29,-11,58,1624262177.0,32.000000
-29,-11,58,1624262177.0,32.000000
-29,-11,58,1624262177.0,32.000000
-29,-11,57,1624262177.0,32.000000
-29,-11,58,1624262177.0,32.000000
-29,-11,58,1624262177.0,32.000000
-29,-11,58,1624262177.0,32.000000
-28,-11,58,1624262177.0,32.000000
-29,-11,58,1624262177.0,32.000000
-29,-11,58,1624262177.0,32.000000
-29,-11,58,1624262177.0,32.000000
-29,-11,58,1624262177.0,32.000000
-29,-11,58,1624262177.0,32.000000
-29,-11,58,1624262177.0,32.000000
-29,-11,58,1624262177.0,32.000000
-29,-11,58,1624262177.0,32.000000
-29,-11,58,1624262177.0,32.000000
-28,-11,58,1624262177.0,32.000000
-29,-11,57,1624262177.0,32.000000
-29,-11,57,1624262177.0,32.000000
-28,-11,57,1624262177.0,32.000000
-28,-11,58,1624262177.0,32.000000
-28,-11,58,1624262177.0,32.000000
-29,-11,58,1624262177.0,32.000000
-29,-11,58,1624262177.0,32.000000
-28,-11,58,1624262177.0,32.000000
-28,-11,58,1624262177.0,32.000000
-29,-11,57,1624262177.0,32.000000
-29,-11,58,1624262177.0,32.000000
-28,-11,58,1624262177.0,32.000000
-28,-11,58,1624262177.0,32.000000
-28,-11,58,1624262177.0,32.000000
-28,-11,58,1624262177.0,32.000000
-29,-11,58,1624262177.0,32.000000
-28,-11,58,1624262177.0,32.000000
-29,-11,58,1624262177.0,32.000000
-28,-11,58,1624262177.0,32.000000
-28,-11,58,1624262177.0,32.000000
-28,-11,58,1624262177.0,32.000000
-28,-11,58,1624262177.0,32.000000
-28,-11,58,1624262177.0,32.000000
-28,-11,58,1624262177.0,32.000000
-29,-11,57,1624262177.0,32.000000
-29,-11,58,1624262177.0,32.000000
-28,-11,58,1624262177.0,32.000000
-29,-11,57,1624262177.0,32.000000
-29,-11,58,1624262177.0,32.000000
-29,-11,58,1624262177.0,32.000000
-28,-11,58,1624262177.0,32.000000
-28,-11,58,1624262177.0,32.000000
-29,-11,57,1624262177.0,32.000000
-29,-11,58,1624262177.0,32.000000
-29,-11,58,1624262177.0,32.000000
-29,-11,58,1624262177.0,32.000000
-28,-11,58,1624262177.0,32.000000
-28,-11,58,1624262177.0,32.000000
-29,-11,58,1624262177.0,32.000000
-29,-11,58,1624262177.0,32.000000
-28,-11,58,1624262177.0,32.000000
-29,-11,57,1624262177.0,32.000000
-29,-11,58,1624262177.0,32.000000
-29,-11,57,1624262177.0,32.000000
-29,-11,58,1624262177.0,32.000000
-29,-11,57,1624262177.0,32.000000
-29,-11,58,1624262177.0,32.000000
-29,-11,57,1624262177.0,32.000000
-29,-11,58,1624262177.0,32.000000
-29,-11,57,1624262177.0,32.000000
-29,-11,58,1624262177.0,32.000000
-29,-11,57,1624262177.0,32.000000
-29,-11,57,1624262177.0,32.000000
-29,-11,57,1624262177.0,32.000000
-29,-11,57,1624262177.0,32.000000
-29,-11,57,1624262177.0,32.000000
-28,-11,57,1624262177.0,32.000000
-29,-11,57,1624262177.0,32.000000
-29,-11,57,1624262177.0,32.000000
-29,-11,58,1624262177.0,32.000000
-29,-11,58,1624262177.0,32.000000
-28,-11,57,1624262177.0,32.000000
-29,-11,58,1624262177.0,32.000000
-29,-11,58,1624262177.0,32.000000
-29,-11,57,1624262177.0,32.000000
-29,-11,57,1624262177.0,32.000000
-29,-11,57,1624262177.0,32.000000
-28,-11,57,1624262177.0,32.000000
-29,-11,58,1624262177.0,32.000000
-29,-11,57,1624262177.0,32.000000
-29,-11,57,1624262177.0,32.000000
-29,-11,57,1624262177.0,32.000000
-28,-11,58,1624262177.0,32.000000
-29,-11,58,1624262177.0,32.000000
-29,-11,58,1624262177.0,32.000000
-29,-11,57,1624262177.0,32.000000
-29,-11,57,1624262177.0,32.000000
-29,-11,57,1624262177.0,32.000000
-28,-11,57,1624262177.0,32.000000
-29,-11,58,1624262177.0,32.000000
-29,-11,58,1624262177.0,32.000000
-29,-11,57,1624262177.0,32.000000
-29,-11,57,1624262177.0,32.000000
-29,-11,57,1624262177.0,32.000000
-28,-11,58,1624262177.0,32.000000
-29,-11,58,1624262177.0,32.000000
-29,-11,57,1624262177.0,32.000000
-29,-11,57,1624262177.0,32.000000
-28,-11,58,1624262177.0,32.000000
-29,-11,58,1624262177.0,32.000000
-29,-11,58,1624262177.0,32.000000
-29,-11,57,1624262177.0,32.000000
-29,-11,57,1624262177.0,32.000000
-28,-11,58,1624262177.0,32.000000
-28,-11,58,1624262177.0,32.000000
-29,-11,58,1624262177.0,32.000000
-29,-11,57,1624262177.0,32.000000
-29,-11,57,1624262177.0,32.000000
-29,-11,57,1624262177.0,32.000000
-29,-11,57,1624262177.0,32.000000
-29,-11,58,1624262177.0,32.000000
-29,-11,58,1624262177.0,32.000000
-29,-11,58,1624262177.0,32.000000
-28,-12,57,1624262177.0,32.000000
-29,-11,58,1624262177.0,32.000000
-29,-11,58,1624262177.0,32.000000
-29,-11,58,1624262177.0,32.000000
-29,-11,57,1624262177.0,32.000000
-29,-11,57,1624262177.0,32.000000
-29,-11,57,1624262177.0,32.000000
-28,-11,58,1624262177.0,32.000000
-28,-11,58,1624262177.0,32.000000
-28,-11,58,1624262177.0,32.000000
-29,-11,57,1624262177.0,32.000000
-28,-11,58,1624262177.0,32.000000
-28,-11,58,1624262177.0,32.000000
-29,-11,57,1624262177.0,32.000000
-29,-11,57,1624262177.0,32.000000
-28,-11,58,1624262177.0,32.000000
-29,-12,58,1624262177.0,32.000000
-29,-11,57,1624262177.0,32.000000
-29,-11,57,1624262177.0,32.000000
-29,-10,57,1624262177.0,32.000000
-28,-11,58,1624262177.0,32.000000
-28,-11,58,1624262177.0,32.000000
-29,-11,57,1624262177.0,32.000000
-29,-11,58,1624262177.0,32.000000
-28,-11,58,1624262177.0,32.000000
-28,-11,58,1624262177.0,32.000000
-28,-11,58,1624262177.0,32.000000
-29,-11,58,1624262177.0,32.000000
-29,-11,57,1624262177.0,32.000000
-29,-11,57,1624262177.0,32.000000
-29,-11,57,1624262177.0,32.000000
-29,-11,57,1624262177.0,32.000000
-29,-11,58,1624262177.0,32.000000
-28,-11,58,1624262177.0,32.000000
-28,-11,58,1624262177.0,32.000000
-29,-11,57,1624262177.0,32.000000
-29,-11,57,1624262177.0,32.000000
-29,-11,57,1624262177.0,32.000000
-29,-11,57,1624262177.0,32.000000
-29,-11,57,1624262177.0,32.000000
-28,-12,58,1624262177.0,32.000000
-28,-11,58,1624262177.0,32.000000
-29,-11,58,1624262177.0,32.000000
-28,-11,57,1624262177.0,32.000000
-28,-11,58,1624262177.0,32.000000
-29,-11,58,1624262177.0,32.000000
-29,-11,58,1624262177.0,32.000000
-29,-11,58,1624262177.0,32.000000
-29,-11,57,1624262177.0,32.000000
-29,-11,57,1624262177.0,32.000000
-28,-11,58,1624262177.0,32.000000
-28,-11,58,1624262177.0,32.000000
-29,-11,57,1624262177.0,32.000000
-29,-11,58,1624262177.0,32.000000
-28,-11,58,1624262177.0,32.000000
-28,-11,58,1624262177.0,32.000000
-28,-11,57,1624262177.0,32.000000
-29,-11,57,1624262177.0,32.000000
-29,-11,57,1624262177.0,32.000000
-29,-11,58,1624262177.0,32.000000
-29,-12,57,1624262177.0,32.000000
-29,-11,58,1624262177.0,32.000000
-29,-11,57,1624262177.0,32.000000
-29,-11,58,1624262177.0,32.000000
-28,-11,58,1624262177.0,32.000000
-29,-11,58,1624262177.0,32.000000
-29,-11,58,1624262177.0,32.000000
-29,-11,57,1624262177.0,32.000000
-29,-11,57,1624262177.0,32.000000
-28,-11,58,1624262177.0,32.000000
-28,-11,58,1624262177.0,32.000000
-29,-11,57,1624262177.0,32.000000
-29,-11,57,1624262177.0,32.000000
-29,-11,57,1624262177.0,32.000000
-29,-11,57,1624262177.0,32.000000
-29,-11,57,1624262177.0,32.000000
-29,-11,57,1624262177.0,32.000000
-29,-11,58,1624262177.0,32.000000
-29,-11,58,1624262177.0,32.000000
-29,-11,58,1624262177.0,32.000000
-29,-11,58,1624262177.0,32.000000
-29,-11,57,1624262177.0,32.000000
-29,-11,58,1624262177.0,32.000000
-28,-11,58,1624262177.0,32.000000
-28,-11,57,1624262177.0,32.000000
-29,-11,58,1624262177.0,32.000000
-28,-11,58,1624262177.0,32.000000
-28,-11,58,1624262177.0,32.000000
-28,-11,58,1624262177.0,32.000000
-29,-11,57,1624262177.0,32.000000
-28,-11,58,1624262177.0,32.000000
-28,-11,58,1624262177.0,32.000000
-29,-11,57,1624262177.0,32.000000
-29,-11,58,1624262177.0,32.000000
-29,-11,58,1624262177.0,32.000000
-28,-11,58,1624262177.0,32.000000
-29,-11,58,1624262177.0,32.000000
-28,-11,58,1624262177.0,32.000000
-28,-11,58,1624262177.0,32.000000
-28,-11,57,1624262177.0,32.000000
-29,-11,58,1624262177.0,32.000000
-28,-11,58,1624262177.0,32.000000
-28,-11,58,1624262177.0,32.000000
-28,-11,58,1624262177.0,32.000000
-28,-11,58,1624262177.0,32.000000
-29,-11,58,1624262177.0,32.000000
-29,-11,58,1624262177.0,32.000000
-29,-11,57,1624262177.0,32.000000
-29,-11,57,1624262177.0,32.000000
-29,-11,58,1624262177.0,32.000000
-29,-11,58,1624262177.0,32.000000
-28,-11,57,1624262177.0,32.000000
-28,-11,58,1624262177.0,32.000000
-29,-11,57,1624262177.0,32.000000
-29,-11,58,1624262177.0,32.000000
-29,-11,58,1624262177.0,32.000000
-29,-11,58,1624262177.0,32.000000
-29,-11,58,1624262177.0,32.000000
-29,-11,58,1624262177.0,32.000000
-29,-11,57,1624262177.0,32.000000
-28,-11,58,1624262177.0,32.000000
-29,-11,58,1624262177.0,32.000000
-28,-11,57,1624262177.0,32.000000
-28,-11,58,1624262177.0,32.000000
-29,-11,57,1624262177.0,32.000000
-29,-11,57,1624262177.0,32.000000
-29,-11,57,1624262177.0,32.000000
-29,-11,58,1624262177.0,32.000000
-29,-11,57,1624262177.0,32.000000
-29,-11,58,1624262177.0,32.000000
-29,-11,58,1624262177.0,32.000000
-28,-11,58,1624262177.0,32.000000
-28,-11,57,1624262177.0,32.000000
-29,-11,57,1624262177.0,32.000000
-29,-11,58,1624262177.0,32.000000
-29,-11,57,1624262177.0,32.000000
-29,-11,57,1624262177.0,32.000000
-29,-11,58,1624262177.0,32.000000
-28,-11,58,1624262177.0,32.000000
-29,-11,58,1624262177.0,32.000000
-28,-11,57,1624262177.0,32.000000
-29,-11,58,1624262177.0,32.000000
-28,-11,58,1624262177.0,32.000000
-28,-11,57,1624262177.0,32.000000
-29,-11,57,1624262177.0,32.000000
-29,-11,57,1624262177.0,32.000000
-29,-11,58,1624262177.0,32.000000
-28,-11,58,1624262177.0,32.000000
-29,-11,57,1624262177.0,32.000000
-29,-11,58,1624262177.0,32.000000
-29,-11,58,1624262177.0,32.000000
-29,-11,57,1624262177.0,32.000000
-29,-11,57,1624262177.0,32.000000
-29,-11,57,1624262177.0,32.000000
-28,-11,57,1624262177.0,32.000000
-28,-11,58,1624262177.0,32.000000
-29,-11,58,1624262177.0,32.000000
-29,-11,57,1624262177.0,32.000000
-28,-11,58,1624262177.0,32.000000
-29,-11,57,1624262177.0,32.000000
-29,-11,57,1624262177.0,32.000000
-29,-11,57,1624262177.0,32.000000
-29,-11,58,1624262177.0,32.000000
-29,-11,58,1624262177.0,32.000000
-29,-11,58,1624262177.0,32.000000
-29,-11,58,1624262177.0,32.000000
-29,-11,58,1624262177.0,32.000000
-29,-11,57,1624262177.0,32.000000
-29,-11,58,1624262177.0,32.000000
-29,-11,58,1624262177.0,32.000000
-29,-11,57,1624262177.0,32.000000
-29,-11,58,1624262177.0,32.000000
-29,-11,57,1624262177.0,32.000000
-29,-11,58,1624262177.0,32.000000
-29,-11,58,1624262177.0,32.000000
-29,-11,58,1624262177.0,32.000000
-29,-11,57,1624262177.0,32.000000
-29,-11,58,1624262177.0,32.000000
-29,-11,58,1624262177.0,32.000000
-29,-11,58,1624262177.0,32.000000
-29,-11,57,1624262177.0,32.000000
-29,-11,58,1624262177.0,32.000000
-29,-11,57,1624262177.0,32.000000
-29,-11,57,1624262177.0,32.000000
-29,-11,58,1624262177.0,32.000000
-29,-11,58,1624262177.0,32.000000
-29,-11,57,1624262177.0,32.000000
-29,-11,57,1624262177.0,32.000000
-29,-11,58,1624262177.0,32.000000
-28,-11,58,1624262177.0,32.000000
-29,-11,58,1624262177.0,32.000000
-29,-11,57,1624262177.0,32.000000
-29,-11,58,1624262177.0,32.000000
-29,-11,57,1624262177.0,32.000000
-29,-11,58,1624262177.0,32.000000
-29,-11,57,1624262177.0,32.000000
-29,-11,58,1624262177.0,32.000000
-29,-11,58,1624262177.0,32.000000
-29,-11,57,1624262177.0,32.000000
-29,-11,57,1624262177.0,32.000000
-29,-11,57,1624262177.0,32.000000
-29,-11,57,1624262177.0,32.000000
-29,-11,58,1624262177.0,32.000000
-29,-11,57,1624262177.0,32.000000
-29,-11,57,1624262177.0,32.000000
-29,-11,57,1624262177.0,32.000000
-29,-11,58,1624262177.0,32.000000
-29,-11,58,1624262177.0,32.000000
-29,-11,57,1624262177.0,32.000000
-29,-11,58,1624262177.0,32.000000
-29,-11,58,1624262177.0,32.000000
-29,-11,57,1624262177.0,32.000000
-29,-11,57,1624262177.0,32.000000
-29,-11,58,1624262177.0,32.000000
-29,-11,57,1624262177.0,32.000000
-29,-11,58,1624262177.0,32.000000
-29,-11,58,1624262177.0,32.000000
-29,-11,57,1624262177.0,32.000000
-29,-11,57,1624262177.0,32.000000
-29,-11,58,1624262177.0,32.000000
-29,-11,58,1624262177.0,32.000000
-29,-11,58,1624262177.0,32.000000
-29,-11,57,1624262177.0,32.000000
-29,-11,58,1624262177.0,32.000000
-29,-11,58,1624262177.0,32.000000
-29,-11,57,1624262177.0,32.000000
-29,-11,58,1624262177.0,32.000000
-29,-11,57,1624262177.0,32.000000
-29,-11,58,1624262177.0,32.000000
-29,-11,58,1624262177.0,32.000000
-29,-11,58,1624262177.0,32.000000
-29,-11,58,1624262177.0,32.000000
-29,-11,57,1624262177.0,32.000000
-29,-11,57,1624262177.0,32.000000
-29,-11,57,1624262177.0,32.000000
-29,-11,57,1624262177.0,32.000000
-29,-11,58,1624262177.0,32.000000
-29,-11,58,1624262177.0,32.000000
-29,-11,57,1624262177.0,32.000000
-29,-11,58,1624262177.0,32.000000
-29,-11,58,1624262177.0,32.000000
-29,-11,57,1624262177.0,32.000000
-29,-11,57,1624262177.0,32.000000
-29,-11,57,1624262177.0,32.000000
-29,-11,57,1624262177.0,32.000000
-29,-11,58,1624262177.0,32.000000
-29,-11,57,1624262177.0,32.000000
-29,-11,58,1624262177.0,32.000000
-29,-11,58,1624262177.0,32.000000
-29,-11,57,1624262177.0,32.000000
-29,-11,58,1624262177.0,32.000000
-28,-11,57,1624262177.0,32.000000
-29,-11,57,1624262177.0,32.000000
-29,-11,58,1624262177.0,32.000000
-29,-11,58,1624262177.0,32.000000
-29,-11,57,1624262177.0,32.000000
-29,-11,58,1624262177.0,32.000000
-29,-11,58,1624262177.0,32.000000
-29,-11,58,1624262177.0,32.000000
-29,-11,58,1624262177.0,32.000000
-29,-11,58,1624262177.0,32.000000
-29,-11,58,1624262177.0,32.000000
-29,-11,57,1624262177.0,32.000000
-29,-11,58,1624262177.0,32.000000
-29,-11,57,1624262177.0,32.000000
-29,-11,57,1624262177.0,32.000000
-29,-11,57,1624262177.0,32.000000
-29,-11,57,1624262177.0,32.000000
-29,-11,58,1624262177.0,32.000000
-29,-11,57,1624262177.0,32.000000
-28,-11,58,1624262177.0,32.000000
-28,-11,58,1624262177.0,32.000000
-28,-12,58,1624262177.0,32.000000
-27,-12,58,1624262177.0,32.000000
-30,-11,57,1624262177.0,32.000000
-28,-11,58,1624262177.0,32.000000
-28,-11,58,1624262177.0,32.000000
-29,-11,57,1624262177.0,32.000000
-29,-11,57,1624262177.0,32.000000
-28,-11,57,1624262177.0,32.000000
-28,-11,58,1624262177.0,32.000000
-28,-11,58,1624262177.0,32.000000
-29,-11,58,1624262177.0,32.000000
-29,-11,58,1624262177.0,32.000000
-29,-11,57,1624262177.0,32.000000
-29,-11,57,1624262177.0,32.000000
-28,-11,58,1624262177.0,32.000000
-29,-12,57,1624262177.0,32.000000
-30,-12,57,1624262177.0,32.000000
-29,-10,57,1624262177.0,32.000000
-29,-12,57,1624262177.0,32.000000
-29,-11,58,1624262177.0,32.000000
-30,-11,57,1624262177.0,32.000000
-30,-11,57,1624262177.0,32.000000
-29,-10,57,1624262177.0,32.000000
-29,-11,57,1624262177.0,32.000000
-29,-11,58,1624262177.0,32.000000
-29,-10,57,1624262177.0,32.000000
-29,-11,57,1624262177.0,32.000000
-29,-11,58,1624262177.0,32.000000
-30,-10,57,1624262177.0,32.000000
-29,-11,57,1624262177.0,32.000000
-29,-11,57,1624262177.0,32.000000
-29,-11,57,1624262177.0,32.000000
-29,-11,57,1624262177.0,32.000000
-29,-11,57,1624262177.0,32.000000
-29,-11,57,1624262177.0,32.000000
-29,-11,58,1624262177.0,32.000000
-29,-11,57,1624262177.0,32.000000
-29,-11,57,1624262177.0,32.000000
-29,-11,57,1624262177.0,32.000000
-29,-11,57,1624262177.0,32.000000
-29,-11,58,1624262177.0,32.000000
-29,-11,57,1624262177.0,32.000000
-29,-11,57,1624262177.0,32.000000
-29,-11,57,1624262177.0,32.000000
-29,-11,57,1624262177.0,32.000000
-29,-11,57,1624262177.0,32.000000
-29,-11,57,1624262177.0,32.000000
-29,-11,57,1624262177.0,32.000000
-29,-11,57,1624262177.0,32.000000
-29,-11,57,1624262177.0,32.000000
-29,-11,57,1624262177.0,32.000000
-29,-11,58,1624262177.0,32.000000
-29,-11,57,1624262177.0,32.000000
-29,-11,57,1624262177.0,32.000000
-29,-11,57,1624262177.0,32.000000
-30,-11,57,1624262177.0,32.000000
-29,-11,57,1624262177.0,32.000000
-29,-11,57,1624262177.0,32.000000
-29,-11,57,1624262177.0,32.000000
-29,-11,57,1624262177.0,32.000000
-29,-11,57,1624262177.0,32.000000
-29,-11,57,1624262177.0,32.000000
-29,-11,57,1624262177.0,32.000000
-29,-11,57,1624262177.0,32.000000
-30,-11,57,1624262177.0,32.000000
-29,-11,57,1624262177.0,32.000000
-29,-11,57,1624262177.0,32.000000
-29,-11,57,1624262177.0,32.000000
-29,-11,57,1624262177.0,32.000000
-29,-11,57,1624262177.0,32.000000
-29,-11,57,1624262177.0,32.000000
-29,-11,57,1624262177.0,32.000000
-29,-11,57,1624262177.0,32.000000
-29,-11,57,1624262177.0,32.000000
-29,-11,57,1624262177.0,32.000000
-29,-11,57,1624262177.0,32.000000
-29,-11,58,1624262177.0,32.000000
-29,-11,57,1624262177.0,32.000000
-29,-11,57,1624262177.0,32.000000
-29,-11,57,1624262177.0,32.000000
-29,-11,57,1624262177.0,32.000000
-29,-11,57,1624262177.0,32.000000
-29,-11,57,1624262177.0,32.000000
-29,-11,57,1624262177.0,32.000000
-29,-11,58,1624262177.0,32.000000
-29,-11,57,1624262177.0,32.000000
-29,-11,57,1624262177.0,32.000000
-29,-11,57,1624262177.0,32.000000
-30,-11,57,1624262177.0,32.000000
-30,-10,57,1624262177.0,32.000000
-29,-11,57,1624262177.0,32.000000
-29,-11,58,1624262177.0,32.000000
-28,-11,58,1624262177.0,32.000000
-29,-11,57,1624262177.0,32.000000
-29,-11,57,1624262177.0,32.000000
-29,-11,57,1624262177.0,32.000000
-29,-11,57,1624262177.0,32.000000
-29,-11,58,1624262177.0,32.000000
-28,-11,58,1624262177.0,32.000000
-29,-11,57,1624262177.0,32.000000
-29,-11,57,1624262177.0,32.000000
-29,-11,57,1624262177.0,32.000000
-29,-11,57,1624262177.0,32.000000
-29,-11,57,1624262177.0,32.000000
-29,-11,58,1624262177.0,32.000000
-29,-11,57,1624262177.0,32.000000
-29,-11,57,1624262177.0,32.000000
-29,-11,57,1624262177.0,32.000000
-29,-11,57,1624262177.0,32.000000
-29,-11,57,1624262177.0,32.000000
-29,-11,58,1624262177.0,32.000000
-29,-11,58,1624262177.0,32.000000
-29,-11,57,1624262177.0,32.000000
-29,-11,57,1624262177.0,32.000000
-29,-11,57,1624262177.0,32.000000
-29,-11,58,1624262177.0,32.000000
-29,-11,57,1624262177.0,32.000000
-29,-11,58,1624262177.0,32.000000
-29,-11,58,1624262177.0,32.000000
-29,-11,58,1624262177.0,32.000000
-28,-11,58,1624262177.0,32.000000
-29,-11,58,1624262177.0,32.000000
-29,-11,57,1624262177.0,32.000000
-29,-11,57,1624262177.0,32.000000
-29,-11,58,1624262177.0,32.000000
-29,-11,57,1624262177.0,32.000000
-29,-11,57,1624262177.0,32.000000
-29,-11,57,1624262177.0,32.000000
-29,-11,57,1624262177.0,32.000000
-29,-11,57,1624262177.0,32.000000
-29,-11,57,1624262177.0,32.000000
-29,-11,58,1624262177.0,32.000000
-29,-11,57,1624262177.0,32.000000
-29,-11,57,1624262177.0,32.000000
-29,-11,57,1624262177.0,32.000000
-29,-11,57,1624262177.0,32.000000
-29,-11,57,1624262177.0,32.000000
-29,-11,57,1624262177.0,32.000000
-29,-11,58,1624262177.0,32.000000
-29,-11,58,1624262177.0,32.000000
-29,-11,57,1624262177.0,32.000000
-29,-11,57,1624262177.0,32.000000
-29,-11,58,1624262177.0,32.000000
-29,-11,57,1624262177.0,32.000000
-29,-11,57,1624262177.0,32.000000
-29,-11,57,1624262177.0,32.000000
-29,-11,58,1624262177.0,32.000000
-29,-11,58,1624262177.0,32.000000
-29,-11,58,1624262177.0,32.000000
-29,-11,57,1624262177.0,32.000000
-29,-11,58,1624262177.0,32.000000
-29,-11,57,1624262177.0,32.000000
-29,-11,58,1624262177.0,32.000000
-29,-11,57,1624262177.0,32.000000
-30,-11,57,1624262177.0,32.000000
-29,-11,57,1624262177.0,32.000000
-29,-11,57,1624262177.0,32.000000
-29,-11,57,1624262177.0,32.000000
-29,-11,58,1624262177.0,32.000000
-28,-11,58,1624262177.0,32.000000
-29,-11,57,1624262177.0,32.000000
-28,-11,58,1624262177.0,32.000000
-28,-11,58,1624262177.0,32.000000
-29,-11,58,1624262177.0,32.000000
-29,-11,57,1624262177.0,32.000000
-29,-11,57,1624262177.0,32.000000
-29,-11,57,1624262177.0,32.000000
-30,-11,57,1624262177.0,32.000000
-29,-11,57,1624262177.0,32.000000
-29,-11,57,1624262177.0,32.000000
-29,-11,57,1624262177.0,32.000000
-29,-11,57,1624262177.0,32.000000
-29,-11,57,1624262177.0,32.000000
-29,-11,57,1624262177.0,32.000000
-29,-11,57,1624262177.0,32.000000
-29,-11,57,1624262177.0,32.000000
-29,-11,57,1624262177.0,32.000000
-29,-11,57,1624262177.0,32.000000
-29,-11,58,1624262177.0,32.000000
-29,-11,57,1624262177.0,32.000000
-29,-11,57,1624262177.0,32.000000
-29,-11,57,1624262177.0,32.000000
-29,-11,57,1624262177.0,32.000000
-29,-11,57,1624262177.0,32.000000
-29,-11,57,1624262177.0,32.000000
-30,-11,57,1624262177.0,32.000000
-29,-11,58,1624262177.0,32.000000
-29,-11,57,1624262177.0,32.000000
-30,-11,57,1624262177.0,32.000000
-29,-11,57,1624262177.0,32.000000
-29,-11,57,1624262177.0,32.000000
-29,-11,58,1624262177.0,32.000000
-29,-11,57,1624262177.0,32.000000
-29,-11,57,1624262177.0,32.000000
-29,-11,58,1624262177.0,32.000000
-29,-11,57,1624262177.0,32.000000
-29,-11,57,1624262177.0,32.000000
-29,-11,57,1624262177.0,32.000000
-29,-11,57,1624262177.0,32.000000
-29,-11,58,1624262177.0,32.000000
-30,-11,57,1624262177.0,32.000000
-29,-11,57,1624262177.0,32.000000
-29,-11,57,1624262177.0,32.000000
-29,-11,57,1624262177.0,32.000000
-29,-11,58,1624262177.0,32.000000
-29,-11,57,1624262177.0,32.000000
-29,-11,57,1624262177.0,32.000000
-29,-11,57,1624262177.0,32.000000
-29,-11,57,1624262177.0,32.000000
-29,-11,57,1624262177.0,32.000000
-29,-11,57,1624262177.0,32.000000
-29,-11,57,1624262177.0,32.000000
-29,-11,57,1624262177.0,32.000000
-29,-11,58,1624262177.0,32.000000
-29,-11,57,1624262177.0,32.000000
-29,-11,57,1624262177.0,32.000000
-29,-11,57,1624262177.0,32.000000
-29,-11,57,1624262177.0,32.000000
-29,-11,57,1624262177.0,32.000000
-29,-11,57,1624262177.0,32.000000
-29,-11,57,1624262177.0,32.000000
-29,-11,57,1624262177.0,32.000000
-29,-11,57,1624262177.0,32.000000
-29,-11,57,1624262177.0,32.000000
-29,-11,57,1624262177.0,32.000000
-29,-11,57,1624262177.0,32.000000
-29,-11,57,1624262177.0,32.000000
-29,-11,57,1624262177.0,32.000000
-29,-11,57,1624262177.0,32.000000
-29,-11,58,1624262177.0,32.000000
-29,-11,57,1624262177.0,32.000000
-29,-11,57,1624262177.0,32.000000
-29,-11,57,1624262177.0,32.000000
-29,-11,58,1624262177.0,32.000000
-29,-11,58,1624262177.0,32.000000
-29,-11,57,1624262177.0,32.000000
-29,-11,57,1624262177.0,32.000000
-29,-11,57,1624262177.0,32.000000
-29,-11,58,1624262177.0,32.000000
-29,-11,57,1624262177.0,32.000000
-29,-11,57,1624262177.0,32.000000
-29,-11,57,1624262177.0,32.000000
-29,-11,57,1624262177.0,32.000000
-29,-11,58,1624262177.0,32.000000
-29,-11,58,1624262177.0,32.000000
-29,-11,57,1624262177.0,32.000000
-29,-11,57,1624262177.0,32.000000
-29,-11,57,1624262177.0,32.000000
-29,-11,57,1624262177.0,32.000000
-29,-11,57,1624262177.0,32.000000
-29,-11,57,1624262177.0,32.000000
-29,-11,57,1624262177.0,32.000000
-29,-11,57,1624262177.0,32.000000
-29,-11,57,1624262177.0,32.000000
-29,-11,57,1624262177.0,32.000000
-29,-11,57,1624262177.0,32.000000
-29,-11,57,1624262177.0,32.000000
-29,-11,57,1624262177.0,32.000000
-29,-11,57,1624262177.0,32.000000
-29,-11,57,1624262177.0,32.000000
-29,-11,58,1624262177.0,32.000000
-29,-11,58,1624262177.0,32.000000
-29,-11,57,1624262177.0,32.000000
-29,-11,57,1624262177.0,32.000000
-29,-11,58,1624262177.0,32.000000
-29,-11,57,1624262177.0,32.000000
-29,-11,57,1624262177.0,32.000000
-29,-11,57,1624262177.0,32.000000
-29,-11,58,1624262177.0,32.000000
-29,-11,57,1624262177.0,32.000000
-29,-11,58,1624262177.0,32.000000
-29,-11,57,1624262177.0,32.000000
-29,-11,57,1624262177.0,32.000000
-29,-11,58,1624262177.0,32.000000
-29,-11,57,1624262177.0,32.000000
-29,-11,57,1624262177.0,32.000000
-29,-11,58,1624262177.0,32.000000
-29,-11,57,1624262177.0,32.000000
-29,-11,57,1624262177.0,32.000000
-29,-11,57,1624262177.0,32.000000
-29,-11,57,1624262177.0,32.000000
-29,-11,57,1624262177.0,32.000000
-29,-11,57,1624262177.0,32.000000
-29,-11,57,1624262177.0,32.000000
-29,-11,57,1624262177.0,32.000000
-29,-11,57,1624262177.0,32.000000
-29,-11,57,1624262177.0,32.000000
-29,-11,58,1624262177.0,32.000000
-29,-11,57,1624262177.0,32.000000
-29,-11,57,1624262177.0,32.000000
-29,-11,57,1624262177.0,32.000000
-29,-11,58,1624262177.0,32.000000
-29,-11,57,1624262177.0,32.000000
-29,-11,57,1624262177.0,32.000000
-29,-11,57,1624262177.0,32.000000
-29,-11,58,1624262177.0,32.000000
-29,-11,58,1624262177.0,32.000000
-29,-11,57,1624262177.0,32.000000
-29,-11,57,1624262177.0,32.000000
-29,-11,57,1624262177.0,32.000000
-29,-11,57,1624262177.0,32.000000
-29,-11,57,1624262177.0,32.000000
-29,-11,57,1624262177.0,32.000000
-29,-11,57,1624262177.0,32.000000
-29,-11,57,1624262177.0,32.000000
-29,-11,57,1624262177.0,32.000000
-29,-11,58,1624262177.0,32.000000
-29,-11,57,1624262177.0,32.000000
-29,-11,57,1624262177.0,32.000000
-29,-11,58,1624262177.0,32.000000
-29,-11,58,1624262177.0,32.000000
-29,-11,57,1624262177.0,32.000000
-30,-11,57,1624262177.0,32.000000
-29,-11,57,1624262177.0,32.000000
-29,-11,58,1624262177.0,32.000000
-29,-11,57,1624262177.0,32.000000
-29,-11,57,1624262177.0,32.000000
-29,-11,57,1624262177.0,32.000000
-29,-11,57,1624262177.0,32.000000
-29,-11,58,1624262177.0,32.000000
-29,-11,57,1624262177.0,32.000000
-29,-11,57,1624262177.0,32.000000
-29,-11,57,1624262177.0,32.000000
-29,-11,57,1624262177.0,32.000000
-29,-11,57,1624262177.0,32.000000
-29,-11,57,1624262177.0,32.000000
-29,-11,57,1624262177.0,32.000000
-29,-11,57,1624262177.0,32.000000
-29,-11,58,1624262177.0,32.000000
-29,-11,57,1624262177.0,32.000000
-29,-11,57,1624262177.0,32.000000
-29,-11,57,1624262177.0,32.000000
-29,-11,58,1624262177.0,32.000000
-29,-11,57,1624262177.0,32.000000
-29,-11,57,1624262177.0,32.000000
-29,-11,57,1624262177.0,32.000000
-29,-11,57,1624262177.0,32.000000
-29,-11,57,1624262177.0,32.000000
-29,-11,57,1624262177.0,32.000000
-29,-11,57,1624262177.0,32.000000
-29,-11,57,1624262177.0,32.000000
-29,-11,57,1624262177.0,32.000000
-29,-11,57,1624262177.0,32.000000
-29,-11,57,1624262177.0,32.000000
-29,-11,57,1624262177.0,32.000000
-29,-11,57,1624262177.0,32.000000
-29,-11,58,1624262177.0,32.000000
-29,-11,57,1624262177.0,32.000000
-29,-11,57,1624262177.0,32.000000
-29,-11,57,1624262177.0,32.000000
-29,-11,57,1624262177.0,32.000000
-29,-11,57,1624262177.0,32.000000
-29,-11,57,1624262177.0,32.000000
-29,-11,57,1624262177.0,32.000000
-29,-11,58,1624262177.0,32.000000
-29,-11,57,1624262177.0,32.000000
-29,-11,57,1624262177.0,32.000000
-29,-11,57,1624262177.0,32.000000
-29,-11,57,1624262177.0,32.000000
-29,-11,58,1624262177.0,32.000000
-29,-11,57,1624262177.0,32.000000
-29,-11,57,1624262177.0,32.000000
-29,-11,57,1624262177.0,32.000000
-29,-11,57,1624262177.0,32.000000
-29,-11,57,1624262177.0,32.000000
-29,-11,58,1624262177.0,32.000000
-29,-11,57,1624262177.0,32.000000
-29,-11,57,1624262177.0,32.000000
-29,-11,57,1624262177.0,32.000000
-29,-11,57,1624262177.0,32.000000
-29,-11,57,1624262177.0,32.000000
-30,-11,57,1624262177.0,32.000000
-29,-11,58,1624262177.0,32.000000
-26,-11,61,1624262177.0,32.000000
-27,-9,62,1624262177.0,32.000000
-27,-13,59,1624262177.0,32.000000
-37,-15,50,1624262177.0,32.000000
-39,-11,49,1624262177.0,32.000000
-41,-17,48,1624262177.0,32.000000
-44,-15,46,1624262177.0,32.000000
-44,-16,45,1624262177.0,32.000000
-42,-14,46,1624262177.0,32.000000
-39,-15,47,1624262177.0,32.000000
-30,-9,60,1624262177.0,32.000000
-11,-9,71,1624262177.0,32.000000
-18,-10,64,1624262177.0,32.000000
-32,-13,55,1624262177.0,32.000000
-34,-13,54,1624262177.0,32.000000
-31,-12,56,1624262177.0,32.000000
-27,-10,59,1624262177.0,32.000000
-29,-12,57,1624262177.0,32.000000
-30,-11,57,1624262177.0,32.000000
-29,-11,57,1624262177.0,32.000000
-30,-12,57,1624262177.0,32.000000
-29,-11,57,1624262177.0,32.000000
-29,-12,57,1624262177.0,32.000000
-29,-11,57,1624262177.0,32.000000
-30,-11,57,1624262177.0,32.000000
-30,-12,58,1624262177.0,32.000000
-27,-11,57,1624262177.0,32.000000
-30,-12,57,1624262177.0,32.000000
-30,-12,57,1624262177.0,32.000000
-30,-13,57,1624262177.0,32.000000
-31,-12,56,1624262177.0,32.000000
-31,-11,56,1624262177.0,32.000000
-30,-12,57,1624262177.0,32.000000
-30,-11,57,1624262177.0,32.000000
-30,-11,57,1624262177.0,32.000000
-31,-12,56,1624262177.0,32.000000
-30,-12,57,1624262177.0,32.000000
-30,-12,57,1624262177.0,32.000000
-30,-12,57,1624262177.0,32.000000
-30,-12,57,1624262177.0,32.000000
-30,-12,56,1624262177.0,32.000000
-30,-11,58,1624262177.0,32.000000
-30,-12,57,1624262177.0,32.000000
-29,-11,57,1624262177.0,32.000000
-30,-12,57,1624262177.0,32.000000
-30,-11,58,1624262177.0,32.000000
-30,-12,57,1624262177.0,32.000000
-30,-12,56,1624262177.0,32.000000
-30,-12,57,1624262177.0,32.000000
-29,-11,57,1624262177.0,32.000000
-30,-12,57,1624262177.0,32.000000
-30,-12,57,1624262177.0,32.000000
-30,-11,57,1624262177.0,32.000000
-29,-12,57,1624262177.0,32.000000
-29,-12,57,1624262177.0,32.000000
-32,-10,60,1624262177.0,32.000000
-29,-15,54,1624262177.0,32.000000
-33,-10,58,1624262177.0,32.000000
-27,-9,59,1624262177.0,32.000000
-31,-13,57,1624262177.0,32.000000
-28,-10,58,1624262177.0,32.000000
-30,-13,56,1624262177.0,32.000000
-29,-11,57,1624262177.0,32.000000
-30,-12,57,1624262177.0,32.000000
-29,-12,57,1624262177.0,32.000000
-28,-12,58,1624262177.0,32.000000
-29,-11,57,1624262177.0,32.000000
-29,-11,57,1624262177.0,32.000000
-28,-12,58,1624262177.0,32.000000
-29,-11,57,1624262177.0,32.000000
-29,-12,57,1624262177.0,32.000000
-30,-11,57,1624262177.0,32.000000
-29,-11,57,1624262177.0,32.000000
-29,-11,57,1624262177.0,32.000000
-29,-12,57,1624262177.0,32.000000
-29,-12,57,1624262177.0,32.000000
-29,-12,57,1624262177.0,32.000000
-29,-12,57,1624262177.0,32.000000
-30,-12,57,1624262177.0,32.000000
-30,-11,57,1624262177.0,32.000000
-29,-11,57,1624262177.0,32.000000
-29,-11,57,1624262177.0,32.000000
-29,-11,57,1624262177.0,32.000000
-29,-12,57,1624262177.0,32.000000
-29,-12,57,1624262177.0,32.000000
-29,-12,56,1624262177.0,32.000000
-30,-12,59,1624262177.0,32.000000
-30,-12,58,1624262177.0,32.000000
-30,-13,56,1624262177.0,32.000000
-28,-14,60,1624262177.0,32.000000
-31,-8,58,1624262177.0,32.000000
-27,-14,58,1624262177.0,32.000000
-31,-9,57,1624262177.0,32.000000
-28,-12,57,1624262177.0,32.000000
-28,-12,58,1624262177.0,32.000000
-29,-10,57,1624262177.0,32.000000
-29,-11,57,1624262177.0,32.000000
-29,-11,57,1624262177.0,32.000000
-29,-12,58,1624262177.0,32.000000
-30,-12,57,1624262177.0,32.000000
-29,-11,57,1624262177.0,32.000000
-29,-11,57,1624262177.0,32.000000
-30,-11,57,1624262177.0,32.000000
-30,-12,57,1624262177.0,32.000000
-30,-11,57,1624262177.0,32.000000
-29,-11,57,1624262177.0,32.000000
-30,-11,57,1624262177.0,32.000000
-29,-11,57,1624262177.0,32.000000
-29,-12,57,1624262177.0,32.000000
-29,-12,57,1624262177.0,32.000000
-29,-11,57,1624262177.0,32.000000
-29,-11,57,1624262177.0,32.000000
-29,-11,58,1624262177.0,32.000000
-29,-12,57,1624262177.0,32.000000
-30,-12,58,1624262177.0,32.000000
-29,-12,56,1624262177.0,32.000000
-30,-12,57,1624262177.0,32.000000
-29,-11,57,1624262177.0,32.000000
-29,-11,57,1624262177.0,32.000000
-30,-11,56,1624262177.0,32.000000
-30,-12,57,1624262177.0,32.000000
-29,-11,57,1624262177.0,32.000000
-30,-11,57,1624262177.0,32.000000
-29,-11,57,1624262177.0,32.000000
-29,-11,58,1624262177.0,32.000000
-29,-11,58,1624262177.0,32.000000
-29,-11,58,1624262177.0,32.000000
-29,-11,57,1624262177.0,32.000000
-29,-11,57,1624262177.0,32.000000
-29,-11,57,1624262177.0,32.000000
-29,-11,58,1624262177.0,32.000000
-29,-11,57,1624262177.0,32.000000
-29,-11,57,1624262177.0,32.000000
-29,-11,57,1624262177.0,32.000000
-29,-11,57,1624262177.0,32.000000
-29,-11,57,1624262177.0,32.000000
-29,-11,57,1624262177.0,32.000000
-29,-12,57,1624262177.0,32.000000
-29,-11,57,1624262177.0,32.000000
-29,-11,57,1624262177.0,32.000000
-29,-11,57,1624262177.0,32.000000
-29,-11,57,1624262177.0,32.000000
-29,-11,58,1624262177.0,32.000000
-29,-11,57,1624262177.0,32.000000
-29,-11,57,1624262177.0,32.000000
-29,-11,57,1624262177.0,32.000000
-29,-12,58,1624262177.0,32.000000
-29,-11,57,1624262177.0,32.000000
-29,-11,57,1624262177.0,32.000000
-29,-11,57,1624262177.0,32.000000
-29,-11,57,1624262177.0,32.000000
-29,-11,58,1624262177.0,32.000000
-28,-11,58,1624262177.0,32.000000
-29,-11,57,1624262177.0,32.000000
-29,-11,58,1624262177.0,32.000000
-29,-11,57,1624262177.0,32.000000
-29,-12,57,1624262177.0,32.000000
-29,-11,57,1624262177.0,32.000000
-29,-11,57,1624262177.0,32.000000
-29,-11,57,1624262177.0,32.000000
-29,-11,57,1624262177.0,32.000000
-29,-11,57,1624262177.0,32.000000
-29,-11,57,1624262177.0,32.000000
-29,-12,57,1624262177.0,32.000000
-29,-11,58,1624262177.0,32.000000
-29,-11,57,1624262177.0,32.000000
-29,-12,57,1624262177.0,32.000000
-29,-11,57,1624262177.0,32.000000
-29,-12,57,1624262177.0,32.000000
-29,-12,57,1624262177.0,32.000000
-28,-12,58,1624262177.0,32.000000
-29,-12,57,1624262177.0,32.000000
-29,-11,58,1624262177.0,32.000000
-27,-12,59,1624262177.0,32.000000
-28,-12,58,1624262177.0,32.000000
-30,-11,58,1624262177.0,32.000000
-30,-12,58,1624262177.0,32.000000
-31,-12,57,1624262177.0,32.000000
-32,-11,59,1624262177.0,32.000000
-36,-13,63,1624262177.0,32.000000
-44,-12,64,1624262177.0,32.000000
-48,-15,57,1624262177.0,32.000000
-52,-15,50,1624262177.0,32.000000
-55,-14,44,1624262177.0,32.000000
-49,-20,39,1624262177.0,32.000000
-56,-22,32,1624262177.0,32.000000
-61,-27,25,1624262177.0,32.000000
-56,-27,23,1624262177.0,32.000000
-67,-49,10,1624262177.0,32.000000
-80,-45,2,1624262177.0,32.000000
-77,-43,0,1624262177.0,32.000000
-68,-39,1,1624262177.0,32.000000
-56,-35,6,1624262177.0,32.000000
-38,-30,9,1624262177.0,32.000000
-16,-27,15,1624262177.0,32.000000
-8,-27,17,1624262177.0,32.000000
4,-29,23,1624262177.0,32.000000
11,-30,28,1624262177.0,32.000000
21,-31,36,1624262177.0,32.000000
9,-34,37,1624262177.0,32.000000
4,-36,36,1624262177.0,32.000000
-5,-33,39,1624262177.0,32.000000
-13,-30,42,1624262177.0,32.000000
-32,-26,43,1624262177.0,32.000000
-36,-27,46,1624262177.0,32.000000
-40,-29,48,1624262177.0,32.000000
-42,-27,51,1624262177.0,32.000000
-52,-26,49,1624262177.0,32.000000
-56,-27,44,1624262177.0,32.000000
-57,-52,58,1624262177.0,32.000000
-57,-31,61,1624262177.0,32.000000
-26,-17,48,1624262177.0,32.000000
-34,-14,39,1624262177.0,32.000000
-53,-20,31,1624262177.0,32.000000
-48,-24,41,1624262177.0,32.000000
-42,-19,52,1624262177.0,32.000000
-79,4,61,1624262177.0,32.000000
-52,3,48,1624262177.0,32.000000
-21,-29,44,1624262177.0,32.000000
-25,9,57,1624262177.0,32.000000
-35,-17,54,1624262177.0,32.000000
-30,-12,58,1624262177.0,32.000000
-27,-23,52,1624262177.0,32.000000
-75,19,54,1624262177.0,32.000000
-32,-26,43,1624262177.0,32.000000
-40,-8,51,1624262177.0,32.000000
-39,-13,52,1624262177.0,32.000000
-36,-11,53,1624262177.0,32.000000
-38,-13,52,1624262177.0,32.000000
-38,-13,52,1624262177.0,32.000000
-38,-12,52,1624262177.0,32.000000
-38,-12,52,1624262177.0,32.000000
-38,-12,52,1624262177.0,32.000000
-38,-13,52,1624262177.0,32.000000
-38,-12,53,1624262177.0,32.000000
-38,-11,59,1624262177.0,32.000000
-53,-9,72,1624262177.0,32.000000
-50,-20,63,1624262177.0,32.000000
-35,-12,59,1624262177.0,32.000000
-31,-17,57,1624262177.0,32.000000
-45,-19,44,1624262177.0,32.000000
-46,-24,36,1624262177.0,32.000000
-53,-27,26,1624262177.0,32.000000
-59,-26,20,1624262177.0,32.000000
-51,-27,22,1624262177.0,32.000000
-34,-27,25,1624262177.0,32.000000
-32,-31,24,1624262177.0,32.000000
-33,-33,24,1624262177.0,32.000000
-26,-35,24,1624262177.0,32.000000
-24,-37,27,1624262177.0,32.000000
-44,-31,39,1624262177.0,32.000000
-54,-33,30,1624262177.0,32.000000
-50,-32,24,1624262177.0,32.000000
-87,-32,-7,1624262177.0,32.000000
-103,-34,-14,1624262177.0,32.000000
-85,-26,2,1624262177.0,32.000000
-73,-26,9,1624262177.0,32.000000
-51,-24,20,1624262177.0,32.000000
-47,-23,23,1624262177.0,32.000000
-44,-27,23,1624262177.0,32.000000
-39,-34,24,1624262177.0,32.000000
-40,-38,24,1624262177.0,32.000000
-34,-44,21,1624262177.0,32.000000
-33,-44,22,1624262177.0,32.000000
-39,-45,18,1624262177.0,32.000000
-41,-42,15,1624262177.0,32.000000
-41,-40,16,1624262177.0,32.000000
-36,-38,21,1624262177.0,32.000000
-27,-35,29,1624262177.0,32.000000
-29,-32,30,1624262177.0,32.000000
-34,-33,31,1624262177.0,32.000000
-25,-31,41,1624262177.0,32.000000
-38,-19,50,1624262177.0,32.000000
-67,-18,37,1624262177.0,32.000000
-60,-17,40,1624262177.0,32.000000
-37,-12,50,1624262177.0,32.000000
-37,-12,48,1624262177.0,32.000000
-90,-10,59,1624262177.0,32.000000
-32,-26,38,1624262177.0,32.000000
-20,-5,47,1624262177.0,32.000000
-57,-22,42,1624262177.0,32.000000
-52,-18,43,1624262177.0,32.000000
-37,-14,52,1624262177.0,32.000000
-41,-13,51,1624262177.0,32.000000
-42,-10,50,1624262177.0,32.000000
-44,-13,48,1624262177.0,32.000000
-43,-14,48,1624262177.0,32.000000
-43,-14,48,1624262177.0,32.000000
-43,-14,48,1624262177.0,32.000000
-43,-14,48,1624262177.0,32.000000
-43,-14,48,1624262177.0,32.000000
-43,-14,48,1624262177.0,32.000000
-43,-14,48,1624262177.0,32.000000
-44,-14,47,1624262177.0,32.000000
-46,-15,46,1624262177.0,32.000000
-45,-13,46,1624262177.0,32.000000
-45,-12,45,1624262177.0,32.000000
-44,-14,47,1624262177.0,32.000000
-43,-14,47,1624262177.0,32.000000
-44,-14,48,1624262177.0,32.000000
-43,-13,48,1624262177.0,32.000000
-44,-16,47,1624262177.0,32.000000
-44,-14,47,1624262177.0,32.000000
-44,-14,47,1624262177.0,32.000000
-45,-13,46,1624262177.0,32.000000
-44,-11,47,1624262177.0,32.000000
-44,-11,47,1624262177.0,32.000000
-42,-9,48,1624262177.0,32.000000
-43,-10,49,1624262177.0,32.000000
-47,-9,47,1624262177.0,32.000000
-45,-12,49,1624262177.0,32.000000
-41,-11,52,1624262177.0,32.000000
-50,-14,53,1624262177.0,32.000000
-57,-14,49,1624262177.0,32.000000
-48,-17,49,1624262177.0,32.000000
-52,-16,50,1624262177.0,32.000000
-51,-19,50,1624262177.0,32.000000
-52,-24,48,1624262177.0,32.000000
-53,-21,48,1624262177.0,32.000000
-42,-21,48,1624262177.0,32.000000
-39,-21,41,1624262177.0,32.000000
-35,-21,39,1624262177.0,32.000000
-35,-22,36,1624262177.0,32.000000
-33,-24,35,1624262177.0,32.000000
-30,-28,40,1624262177.0,32.000000
-34,-27,43,1624262177.0,32.000000
-33,-26,44,1624262177.0,32.000000
-31,-19,51,1624262177.0,32.000000
-34,-12,51,1624262177.0,32.000000
-58,5,56,1624262177.0,32.000000
-70,11,49,1624262177.0,32.000000
-62,9,53,1624262177.0,32.000000
-40,-10,52,1624262177.0,32.000000
-21,-29,46,1624262177.0,32.000000
-16,-96,42,1624262177.0,32.000000
-33,-74,52,1624262177.0,32.000000
-73,-5,42,1624262177.0,32.000000
-60,37,55,1624262177.0,32.000000
-46,25,60,1624262177.0,32.000000
1,-5,57,1624262177.0,32.000000
17,-45,56,1624262177.0,32.000000
-11,-34,50,1624262177.0,32.000000
-65,-3,35,1624262177.0,32.000000
-78,21,42,1624262177.0,32.000000
-58,7,42,1624262177.0,32.000000
-21,-21,41,1624262177.0,32.000000
14,-76,51,1624262177.0,32.000000
-37,-38,73,1624262177.0,32.000000
-73,-5,65,1624262177.0,32.000000
-82,34,43,1624262177.0,32.000000
-44,-1,42,1624262177.0,32.000000
0,-44,48,1624262177.0,32.000000
-28,-33,54,1624262177.0,32.000000
-61,-6,54,1624262177.0,32.000000
-43,17,51,1624262177.0,32.000000
-26,7,51,1624262177.0,32.000000
-48,-6,44,1624262177.0,32.000000
-32,-9,46,1624262177.0,32.000000
-25,-19,44,1624262177.0,32.000000
-27,-29,48,1624262177.0,32.000000
-27,-33,48,1624262177.0,32.000000
-31,-37,52,1624262177.0,32.000000
-38,-33,52,1624262177.0,32.000000
-35,-29,52,1624262177.0,32.000000
-33,-23,49,1624262177.0,32.000000
-33,-20,43,1624262177.0,32.000000
-32,-16,33,1624262177.0,32.000000
-55,-25,52,1624262177.0,32.000000
-50,-12,58,1624262177.0,32.000000
-126,32,67,1624262177.0,32.000000
-6,-80,61,1624262177.0,32.000000
-14,7,57,1624262177.0,32.000000
-42,-17,50,1624262177.0,32.000000
-32,-23,57,1624262177.0,32.000000
-26,-18,54,1624262177.0,32.000000
-27,-17,58,1624262177.0,32.000000
-31,-17,55,1624262177.0,32.000000
-30,-17,56,1624262177.0,32.000000
-31,-17,55,1624262177.0,32.000000
-33,-16,55,1624262177.0,32.000000
-32,-17,55,1624262177.0,32.000000
-31,-14,55,1624262177.0,32.000000
-33,-16,55,1624262177.0,32.000000
-32,-18,53,1624262177.0,32.000000
-31,-15,55,1624262177.0,32.000000
-32,-17,55,1624262177.0,32.000000
-31,-14,56,1624262177.0,32.000000
-32,-16,55,1624262177.0,32.000000
-33,-17,53,1624262177.0,32.000000
-32,-16,54,1624262177.0,32.000000
-32,-15,54,1624262177.0,32.000000
-31,-17,55,1624262177.0,32.000000
-31,-16,55,1624262177.0,32.000000
-30,-17,56,1624262177.0,32.000000
-29,-16,56,1624262177.0,32.000000
-29,-16,57,1624262177.0,32.000000
-29,-16,56,1624262177.0,32.000000
-29,-16,56,1624262177.0,32.000000
-30,-16,56,1624262177.0,32.000000
-29,-15,56,1624262177.0,32.000000
-29,-15,56,1624262177.0,32.000000
-29,-15,56,1624262177.0,32.000000
-29,-17,57,1624262177.0,32.000000
-29,-16,56,1624262177.0,32.000000
-29,-16,56,1624262177.0,32.000000
-29,-15,56,1624262177.0,32.000000
-29,-17,56,1624262177.0,32.000000
-29,-16,56,1624262177.0,32.000000
-28,-15,56,1624262177.0,32.000000
-28,-16,57,1624262177.0,32.000000
-28,-16,57,1624262177.0,32.000000
-29,-14,56,1624262177.0,32.000000
-28,-14,56,1624262177.0,32.000000
-28,-15,57,1624262177.0,32.000000
-27,-15,58,1624262177.0,32.000000
-28,-17,56,1624262177.0,32.000000
-27,-18,57,1624262177.0,32.000000
-28,-18,57,1624262177.0,32.000000
-28,-16,57,1624262177.0,32.000000
-30,-16,56,1624262177.0,32.000000
-29,-16,56,1624262177.0,32.000000
-29,-15,56,1624262177.0,32.000000
-29,-16,57,1624262177.0,32.000000
-28,-17,57,1624262177.0,32.000000
-28,-16,57,1624262177.0,32.000000
-28,-17,56,1624262177.0,32.000000
-27,-16,57,1624262177.0,32.000000
-27,-17,57,1624262177.0,32.000000
-26,-16,57,1624262177.0,32.000000
-28,-16,56,1624262177.0,32.000000
-28,-16,57,1624262177.0,32.000000
-27,-16,57,1624262177.0,32.000000
-27,-16,57,1624262177.0,32.000000
-27,-15,57,1624262177.0,32.000000
-28,-15,57,1624262177.0,32.000000
-27,-15,57,1624262177.0,32.000000
-27,-16,57,1624262177.0,32.000000
-27,-16,57,1624262177.0,32.000000
-27,-16,57,1624262177.0,32.000000
-27,-16,57,1624262177.0,32.000000
-27,-16,57,1624262177.0,32.000000
-27,-16,57,1624262177.0,32.000000
-27,-16,57,1624262177.0,32.000000
-27,-15,57,1624262177.0,32.000000
-27,-16,57,1624262177.0,32.000000
-27,-16,57,1624262177.0,32.000000
-26,-16,57,1624262177.0,32.000000
-26,-16,58,1624262177.0,32.000000
-26,-16,58,1624262177.0,32.000000
-26,-16,57,1624262177.0,32.000000
-26,-16,57,1624262177.0,32.000000
-26,-16,58,1624262177.0,32.000000
-26,-16,58,1624262177.0,32.000000
-27,-16,57,1624262177.0,32.000000
-26,-16,57,1624262177.0,32.000000
-26,-16,57,1624262177.0,32.000000
-26,-16,57,1624262177.0,32.000000
-26,-15,57,1624262177.0,32.000000
-26,-16,57,1624262177.0,32.000000
-26,-16,57,1624262177.0,32.000000
-26,-15,57,1624262177.0,32.000000
-26,-16,57,1624262177.0,32.000000
-26,-15,57,1624262177.0,32.000000
-26,-16,57,1624262177.0,32.000000
-26,-16,57,1624262177.0,32.000000
-26,-16,57,1624262177.0,32.000000
-26,-15,57,1624262177.0,32.000000
-26,-16,57,1624262177.0,32.000000
-26,-16,57,1624262177.0,32.000000
-26,-16,57,1624262177.0,32.000000
-26,-16,57,1624262177.0,32.000000
-26,-16,57,1624262177.0,32.000000
-26,-16,57,1624262177.0,32.000000
-26,-16,57,1624262177.0,32.000000
-26,-16,57,1624262177.0,32.000000
-26,-16,57,1624262177.0,32.000000
-26,-16,57,1624262177.0,32.000000
-26,-16,58,1624262177.0,32.000000
-26,-16,57,1624262177.0,32.000000
-26,-16,57,1624262177.0,32.000000
-26,-16,57,1624262177.0,32.000000
-26,-15,58,1624262177.0,32.000000
-26,-16,57,1624262177.0,32.000000
-25,-16,58,1624262177.0,32.000000
-26,-16,57,1624262177.0,32.000000
-25,-15,57,1624262177.0,32.000000
-25,-15,58,1624262177.0,32.000000
-26,-16,58,1624262177.0,32.000000
-25,-15,58,1624262177.0,32.000000
-25,-16,58,1624262177.0,32.000000
-25,-15,58,1624262177.0,32.000000
-25,-16,58,1624262177.0,32.000000
-24,-16,60,1624262177.0,32.000000
-14,-15,68,1624262177.0,32.000000
-14,-10,70,1624262177.0,32.000000
-19,-27,72,1624262177.0,32.000000
-24,-22,69,1624262177.0,32.000000
-61,4,39,1624262177.0,32.000000
-71,-20,19,1624262177.0,32.000000
-74,-14,23,1624262177.0,32.000000
-62,-22,29,1624262177.0,32.000000
-55,-23,30,1624262177.0,32.000000
-54,-28,22,1624262177.0,32.000000
-52,-31,20,1624262177.0,32.000000
-49,-33,20,1624262177.0,32.000000
-43,-36,23,1624262177.0,32.000000
-41,-37,24,1624262177.0,32.000000
-36,-39,23,1624262177.0,32.000000
-38,-41,23,1624262177.0,32.000000
-38,-43,23,1624262177.0,32.000000
-34,-45,23,1624262177.0,32.000000
-35,-46,22,1624262177.0,32.000000
-34,-47,21,1624262177.0,32.000000
-35,-48,20,1624262177.0,32.000000
-35,-49,19,1624262177.0,32.000000
-38,-49,14,1624262177.0,32.000000
-36,-51,18,1624262177.0,32.000000
-39,-50,19,1624262177.0,32.000000
-38,-52,15,1624262177.0,32.000000
-31,-53,12,1624262177.0,32.000000
-33,-54,10,1624262177.0,32.000000
-29,-54,9,1624262177.0,32.000000
-26,-54,11,1624262177.0,32.000000
-24,-55,11,1624262177.0,32.000000
-22,-56,11,1624262177.0,32.000000
-23,-57,14,1624262177.0,32.000000
-22,-58,13,1624262177.0,32.000000
-24,-57,12,1624262177.0,32.000000
-25,-57,11,1624262177.0,32.000000
-27,-55,12,1624262177.0,32.000000
-30,-55,11,1624262177.0,32.000000
-31,-56,12,1624262177.0,32.000000
-31,-56,13,1624262177.0,32.000000
-30,-56,13,1624262177.0,32.000000
-27,-56,13,1624262177.0,32.000000
-24,-57,12,1624262177.0,32.000000
-24,-56,12,1624262177.0,32.000000
-22,-56,12,1624262177.0,32.000000
-23,-57,11,1624262177.0,32.000000
-26,-55,15,1624262177.0,32.000000
-23,-54,16,1624262177.0,32.000000
-20,-54,13,1624262177.0,32.000000
-13,-53,12,1624262177.0,32.000000
-16,-52,14,1624262177.0,32.000000
-22,-52,20,1624262177.0,32.000000
-27,-51,22,1624262177.0,32.000000
-39,-49,28,1624262177.0,32.000000
-46,-47,29,1624262177.0,32.000000
-51,-44,29,1624262177.0,32.000000
-62,-42,26,1624262177.0,32.000000
-63,-44,14,1624262177.0,32.000000
-61,-45,14,1624262177.0,32.000000
-57,-46,21,1624262177.0,32.000000
-49,-45,24,1624262177.0,32.000000
-39,-44,24,1624262177.0,32.000000
-34,-43,27,1624262177.0,32.000000
-29,-45,29,1624262177.0,32.000000
-16,-48,33,1624262177.0,32.000000
-13,-49,34,1624262177.0,32.000000
-1,-51,37,1624262177.0,32.000000
-1,-52,34,1624262177.0,32.000000
-1,-52,34,1624262177.0,32.000000
0,-52,33,1624262177.0,32.000000
-6,-52,30,1624262177.0,32.000000
-17,-52,27,1624262177.0,32.000000
-22,-51,26,1624262177.0,32.000000
-37,-49,23,1624262177.0,32.000000
-51,-51,16,1624262177.0,32.000000
-51,-52,17,1624262177.0,32.000000
-54,-51,23,1624262177.0,32.000000
-49,-52,23,1624262177.0,32.000000
-28,-48,29,1624262177.0,32.000000
-17,-49,30,1624262177.0,32.000000
-10,-50,32,1624262177.0,32.000000
-3,-51,32,1624262177.0,32.000000
-4,-53,31,1624262177.0,32.000000
-8,-53,29,1624262177.0,32.000000
-15,-53,30,1624262177.0,32.000000
-19,-51,31,1624262177.0,32.000000
-26,-50,31,1624262177.0,32.000000
-31,-51,28,1624262177.0,32.000000
-38,-49,27,1624262177.0,32.000000
-51,-48,21,1624262177.0,32.000000
-58,-48,16,1624262177.0,32.000000
-62,-48,11,1624262177.0,32.000000
-53,-47,14,1624262177.0,32.000000
-36,-47,24,1624262177.0,32.000000
-13,-46,33,1624262177.0,32.000000
-8,-47,35,1624262177.0,32.000000
10,-51,40,1624262177.0,32.000000
16,-51,44,1624262177.0,32.000000
-3,-51,40,1624262177.0,32.000000
-32,-47,32,1624262177.0,32.000000
-45,-50,26,1624262177.0,32.000000
-52,-50,24,1624262177.0,32.000000
-50,-51,24,1624262177.0,32.000000
-26,-50,30,1624262177.0,32.000000
-8,-47,33,1624262177.0,32.000000
-4,-48,33,1624262177.0,32.000000
9,-48,39,1624262177.0,32.000000
8,-48,37,1624262177.0,32.000000
6,-46,24,1624262177.0,32.000000
2,-44,28,1624262177.0,32.000000
-12,-40,30,1624262177.0,32.000000
-44,-39,27,1624262177.0,32.000000
-52,-36,26,1624262177.0,32.000000
-51,-28,30,1624262177.0,32.000000
-49,-25,43,1624262177.0,32.000000
-46,-22,46,1624262177.0,32.000000
-52,-16,51,1624262177.0,32.000000
-57,-17,49,1624262177.0,32.000000
-53,-13,52,1624262177.0,32.000000
-60,-14,52,1624262177.0,32.000000
-55,-16,49,1624262177.0,32.000000
-67,-19,48,1624262177.0,32.000000
-57,-15,48,1624262177.0,32.000000
-49,-13,43,1624262177.0,32.000000
-47,-14,45,1624262177.0,32.000000
-42,-16,48,1624262177.0,32.000000
-36,-15,54,1624262177.0,32.000000
-31,-14,58,1624262177.0,32.000000
-27,-11,66,1624262177.0,32.000000
-20,-14,67,1624262177.0,32.000000
-41,-14,55,1624262177.0,32.000000
-56,-15,42,1624262177.0,32.000000
-41,-17,44,1624262177.0,32.000000
-35,-17,42,1624262177.0,32.000000
-33,-18,38,1624262177.0,32.000000
-31,-18,40,1624262177.0,32.000000
-65,-20,49,1624262177.0,32.000000
-44,-23,62,1624262177.0,32.000000
-42,-26,44,1624262177.0,32.000000
-29,-27,46,1624262177.0,32.000000
-24,-11,59,1624262177.0,32.000000
-23,-7,63,1624262177.0,32.000000
-11,-21,59,1624262177.0,32.000000
-19,-17,62,1624262177.0,32.000000
-15,-20,63,1624262177.0,32.000000
-19,-20,59,1624262177.0,32.000000
-18,-21,59,1624262177.0,32.000000
-17,-20,60,1624262177.0,32.000000
-16,-19,61,1624262177.0,32.000000
-19,-19,60,1624262177.0,32.000000
-19,-22,57,1624262177.0,32.000000
-20,-18,59,1624262177.0,32.000000
-19,-20,59,1624262177.0,32.000000
-21,-20,58,1624262177.0,32.000000
-21,-20,58,1624262177.0,32.000000
-21,-20,58,1624262177.0,32.000000
-21,-20,58,1624262177.0,32.000000
-21,-20,58,1624262177.0,32.000000
-21,-20,58,1624262177.0,32.000000
-21,-20,58,1624262177.0,32.000000
-21,-20,58,1624262177.0,32.000000
-21,-20,58,1624262177.0,32.000000
-21,-20,58,1624262177.0,32.000000
-21,-20,58,1624262177.0,32.000000
-21,-20,58,1624262177.0,32.000000
-21,-20,58,1624262177.0,32.000000
-22,-20,58,1624262177.0,32.000000
-22,-20,58,1624262177.0,32.000000
-21,-20,58,1624262177.0,32.000000
-22,-20,58,1624262177.0,32.000000
-22,-20,57,1624262177.0,32.000000
-22,-20,58,1624262177.0,32.000000
-21,-20,58,1624262177.0,32.000000
-22,-20,58,1624262177.0,32.000000
-22,-19,58,1624262177.0,32.000000
-21,-20,58,1624262177.0,32.000000
-22,-20,58,1624262177.0,32.000000
-22,-20,58,1624262177.0,32.000000
-22,-20,57,1624262177.0,32.000000
-22,-20,58,1624262177.0,32.000000
-22,-20,58,1624262177.0,32.000000
-22,-20,58,1624262177.0,32.000000
-21,-20,58,1624262177.0,32.000000
-22,-20,58,1624262177.0,32.000000
-22,-20,58,1624262177.0,32.000000
-22,-20,58,1624262177.0,32.000000
-22,-20,58,1624262177.0,32.000000
-22,-19,58,1624262177.0,32.000000
-22,-20,58,1624262177.0,32.000000
-22,-20,58,1624262177.0,32.000000
-21,-20,58,1624262177.0,32.000000
-22,-19,58,1624262177.0,32.000000
-22,-20,58,1624262177.0,32.000000
-22,-20,58,1624262177.0,32.000000
-22,-20,58,1624262177.0,32.000000
-22,-20,58,1624262177.0,32.000000
-22,-20,58,1624262177.0,32.000000
-22,-19,57,1624262177.0,32.000000
-22,-19,58,1624262177.0,32.000000
-22,-19,58,1624262177.0,32.000000
-22,-20,58,1624262177.0,32.000000
-22,-20,58,1624262177.0,32.000000
-22,-19,57,1624262177.0,32.000000
-22,-20,58,1624262177.0,32.000000
-22,-20,58,1624262177.0,32.000000
-22,-20,58,1624262177.0,32.000000
-22,-20,58,1624262177.0,32.000000
-22,-20,58,1624262177.0,32.000000
-21,-20,58,1624262177.0,32.000000
-22,-19,58,1624262177.0,32.000000
-24,-20,57,1624262177.0,32.000000
-22,-20,58,1624262177.0,32.000000
-22,-21,58,1624262177.0,32.000000
-23,-21,59,1624262177.0,32.000000
-18,-25,60,1624262177.0,32.000000
-21,-27,57,1624262177.0,32.000000
-21,-28,57,1624262177.0,32.000000
-47,12,65,1624262177.0,32.000000
-45,-4,52,1624262177.0,32.000000
-34,-15,58,1624262177.0,32.000000
-32,-15,59,1624262177.0,32.000000
-34,-15,60,1624262177.0,32.000000
-37,-16,62,1624262177.0,32.000000
-40,-17,57,1624262177.0,32.000000
-38,-20,58,1624262177.0,32.000000
-38,-25,51,1624262177.0,32.000000
-43,-26,43,1624262177.0,32.000000
-39,-26,33,1624262177.0,32.000000
-34,-27,32,1624262177.0,32.000000
-23,-31,32,1624262177.0,32.000000
-21,-35,31,1624262177.0,32.000000
-23,-37,30,1624262177.0,32.000000
-24,-38,31,1624262177.0,32.000000
-23,-39,35,1624262177.0,32.000000
-29,-35,42,1624262177.0,32.000000
-36,-31,43,1624262177.0,32.000000
-37,-28,45,1624262177.0,32.000000
-36,-24,55,1624262177.0,32.000000
-36,-23,57,1624262177.0,32.000000
-34,-21,57,1624262177.0,32.000000
-40,-19,56,1624262177.0,32.000000
-42,-19,55,1624262177.0,32.000000
-35,-21,54,1624262177.0,32.000000
-32,-21,53,1624262177.0,32.000000
-35,-20,52,1624262177.0,32.000000
-38,-20,53,1624262177.0,32.000000
-39,-21,53,1624262177.0,32.000000
-38,-19,58,1624262177.0,32.000000
-34,-20,61,1624262177.0,32.000000
-35,-21,62,1624262177.0,32.000000
-39,-22,59,1624262177.0,32.000000
-38,-25,59,1624262177.0,32.000000
-44,-25,51,1624262177.0,32.000000
-44,-27,46,1624262177.0,32.000000
-38,-32,41,1624262177.0,32.000000
-35,-31,39,1624262177.0,32.000000
-29,-34,37,1624262177.0,32.000000
-32,-41,28,1624262177.0,32.000000
-35,-45,25,1624262177.0,32.000000
-34,-49,22,1624262177.0,32.000000
-33,-49,22,1624262177.0,32.000000
-31,-47,23,1624262177.0,32.000000
-30,-46,26,1624262177.0,32.000000
-31,-44,28,1624262177.0,32.000000
-33,-41,29,1624262177.0,32.000000
-33,-40,28,1624262177.0,32.000000
-32,-37,29,1624262177.0,32.000000
-33,-32,29,1624262177.0,32.000000
-39,-33,19,1624262177.0,32.000000
-40,-38,3,1624262177.0,32.000000
-39,-35,6,1624262177.0,32.000000
-44,-26,40,1624262177.0,32.000000
-48,-17,52,1624262177.0,32.000000
-30,-21,52,1624262177.0,32.000000
21,-21,76,1624262177.0,32.000000
22,-17,82,1624262177.0,32.000000
-48,-15,69,1624262177.0,32.000000
-45,-26,62,1624262177.0,32.000000
-29,-30,66,1624262177.0,32.000000
-36,-36,58,1624262177.0,32.000000
-42,-37,53,1624262177.0,32.000000
-40,-39,53,1624262177.0,32.000000
-36,-39,56,1624262177.0,32.000000
-35,-38,57,1624262177.0,32.000000
-28,-37,56,1624262177.0,32.000000
-25,-38,55,1624262177.0,32.000000
-22,-41,53,1624262177.0,32.000000
-21,-39,57,1624262177.0,32.000000
-22,-38,54,1624262177.0,32.000000
-17,-40,50,1624262177.0,32.000000
-13,-40,52,1624262177.0,32.000000
-15,-41,53,1624262177.0,32.000000
-22,-36,50,1624262177.0,32.000000
-20,-34,49,1624262177.0,32.000000
-18,-35,48,1624262177.0,32.000000
-22,-28,51,1624262177.0,32.000000
-32,-25,49,1624262177.0,32.000000
-31,-22,48,1624262177.0,32.000000
-26,-22,45,1624262177.0,32.000000
-24,-23,47,1624262177.0,32.000000
-21,-19,52,1624262177.0,32.000000
-16,-25,50,1624262177.0,32.000000
-15,-25,50,1624262177.0,32.000000
-17,-25,49,1624262177.0,32.000000
-13,-25,52,1624262177.0,32.000000
-12,-28,53,1624262177.0,32.000000
-14,-22,55,1624262177.0,32.000000
-13,-23,54,1624262177.0,32.000000
-9,-27,53,1624262177.0,32.000000
-5,-37,49,1624262177.0,32.000000
-6,-31,55,1624262177.0,32.000000
-13,-29,56,1624262177.0,32.000000
-18,-25,56,1624262177.0,32.000000
-12,-29,53,1624262177.0,32.000000
-11,-28,55,1624262177.0,32.000000
-11,-30,54,1624262177.0,32.000000
-6,-33,54,1624262177.0,32.000000
-6,-33,53,1624262177.0,32.000000
-10,-31,54,1624262177.0,32.000000
-12,-31,53,1624262177.0,32.000000
-13,-30,53,1624262177.0,32.000000
-13,-31,54,1624262177.0,32.000000
-12,-30,56,1624262177.0,32.000000
-12,-32,56,1624262177.0,32.000000
-13,-31,55,1624262177.0,32.000000
-12,-32,55,1624262177.0,32.000000
-14,-31,56,1624262177.0,32.000000
-15,-31,55,1624262177.0,32.000000
-12,-32,55,1624262177.0,32.000000
-14,-31,54,1624262177.0,32.000000
-12,-32,54,1624262177.0,32.000000
-12,-31,54,1624262177.0,32.000000
-12,-31,54,1624262177.0,32.000000
-13,-31,53,1624262177.0,32.000000
-14,-31,53,1624262177.0,32.000000
-13,-30,56,1624262177.0,32.000000
-14,-27,60,1624262177.0,32.000000
-12,-27,63,1624262177.0,32.000000
9,-22,75,1624262177.0,32.000000
4,-25,63,1624262177.0,32.000000
-52,-35,13,1624262177.0,32.000000
-49,-28,14,1624262177.0,32.000000
-44,-26,11,1624262177.0,32.000000
-33,-24,15,1624262177.0,32.000000
-34,-25,17,1624262177.0,32.000000
-33,-22,24,1624262177.0,32.000000
-20,-29,29,1624262177.0,32.000000
-18,-33,33,1624262177.0,32.000000
-7,-24,42,1624262177.0,32.000000
5,-17,50,1624262177.0,32.000000
46,-39,70,1624262177.0,32.000000
31,-21,77,1624262177.0,32.000000
25,-27,73,1624262177.0,32.000000
15,-27,72,1624262177.0,32.000000
7,-21,79,1624262177.0,32.000000
0,-22,74,1624262177.0,32.000000
0,-23,73,1624262177.0,32.000000
-13,-23,75,1624262177.0,32.000000
-48,-22,57,1624262177.0,32.000000
-46,-24,54,1624262177.0,32.000000
-29,-24,56,1624262177.0,32.000000
-37,-22,51,1624262177.0,32.000000
-42,-24,48,1624262177.0,32.000000
-35,-25,47,1624262177.0,32.000000
-32,-25,49,1624262177.0,32.000000
-33,-24,49,1624262177.0,32.000000
-31,-23,49,1624262177.0,32.000000
-30,-25,47,1624262177.0,32.000000
-30,-29,54,1624262177.0,32.000000
-30,-24,57,1624262177.0,32.000000
-26,-18,50,1624262177.0,32.000000
-55,-16,60,1624262177.0,32.000000
-94,-1,86,1624262177.0,32.000000
-37,-11,40,1624262177.0,32.000000
-28,-13,49,1624262177.0,32.000000
-60,-3,41,1624262177.0,32.000000
-40,-15,47,1624262177.0,32.000000
-32,-15,53,1624262177.0,32.000000
-40,-11,52,1624262177.0,32.000000
-37,-12,54,1624262177.0,32.000000
-35,-13,54,1624262177.0,32.000000
-40,-12,51,1624262177.0,32.000000
-40,-12,50,1624262177.0,32.000000
-40,-12,51,1624262177.0,32.000000
-39,-12,51,1624262177.0,32.000000
-39,-11,51,1624262177.0,32.000000
-39,-12,51,1624262177.0,32.000000
-39,-12,51,1624262177.0,32.000000
-40,-13,51,1624262177.0,32.000000
-39,-13,51,1624262177.0,32.000000
-39,-13,51,1624262177.0,32.000000
-39,-13,51,1624262177.0,32.000000
-40,-12,51,1624262177.0,32.000000
-39,-12,51,1624262177.0,32.000000
-39,-13,51,1624262177.0,32.000000
-39,-12,51,1624262177.0,32.000000
-39,-12,51,1624262177.0,32.000000
-39,-12,51,1624262177.0,32.000000
-39,-12,51,1624262177.0,32.000000
-39,-12,52,1624262177.0,32.000000
-38,-13,52,1624262177.0,32.000000
-39,-13,52,1624262177.0,32.000000
-39,-12,52,1624262177.0,32.000000
-39,-12,52,1624262177.0,32.000000
-39,-12,51,1624262177.0,32.000000
-39,-12,51,1624262177.0,32.000000
-39,-12,51,1624262177.0,32.000000
-38,-12,52,1624262177.0,32.000000
-38,-12,52,1624262177.0,32.000000
-38,-12,52,1624262177.0,32.000000
-38,-12,52,1624262177.0,32.000000
-38,-12,52,1624262177.0,32.000000
-38,-12,51,1624262177.0,32.000000
-40,-14,49,1624262177.0,32.000000
-39,-10,50,1624262177.0,32.000000
-32,-10,54,1624262177.0,32.000000
-30,-10,55,1624262177.0,32.000000
-32,-11,57,1624262177.0,32.000000
-25,-16,61,1624262177.0,32.000000
-25,-14,62,1624262177.0,32.000000
-27,-11,60,1624262177.0,32.000000
-26,-11,60,1624262177.0,32.000000
-28,-10,58,1624262177.0,32.000000
-27,-13,58,1624262177.0,32.000000
-28,-14,57,1624262177.0,32.000000
-28,-13,57,1624262177.0,32.000000
