ACC_X,ACC_Y,ACC_Z,start_time_unix,sampling_rate
-37,40,23,1624262175.0,32.000000
-39,42,24,1624262175.0,32.000000
-34,43,28,1624262175.0,32.000000
-34,43,28,1624262175.0,32.000000
-35,43,30,1624262175.0,32.000000
-32,42,32,1624262175.0,32.000000
-34,43,35,1624262175.0,32.000000
-33,42,35,1624262175.0,32.000000
-30,42,38,1624262175.0,32.000000
-33,43,39,1624262175.0,32.000000
-31,42,36,1624262175.0,32.000000
-30,41,42,1624262175.0,32.000000
-26,40,48,1624262175.0,32.000000
-27,44,46,1624262175.0,32.000000
-22,43,43,1624262175.0,32.000000
-21,42,44,1624262175.0,32.000000
-16,43,41,1624262175.0,32.000000
-19,43,38,1624262175.0,32.000000
-15,42,42,1624262175.0,32.000000
-12,42,44,1624262175.0,32.000000
-7,42,44,1624262175.0,32.000000
-11,42,44,1624262175.0,32.000000
-7,43,46,1624262175.0,32.000000
-4,43,46,1624262175.0,32.000000
-6,43,47,1624262175.0,32.000000
-5,43,48,1624262175.0,32.000000
0,44,48,1624262175.0,32.000000
-1,44,47,1624262175.0,32.000000
-5,45,47,1624262175.0,32.000000
-3,44,47,1624262175.0,32.000000
-2,44,47,1624262175.0,32.000000
0,43,46,1624262175.0,32.000000
0,43,47,1624262175.0,32.000000
1,43,47,1624262175.0,32.000000
1,43,45,1624262175.0,32.000000
0,43,45,1624262175.0,32.000000
1,43,46,1624262175.0,32.000000
1,44,46,1624262175.0,32.000000
0,44,46,1624262175.0,32.000000
2,44,46,1624262175.0,32.000000
1,44,46,1624262175.0,32.000000
3,43,47,1624262175.0,32.000000
3,43,46,1624262175.0,32.000000
3,44,46,1624262175.0,32.000000
4,43,45,1624262175.0,32.000000
5,43,45,1624262175.0,32.000000
4,44,46,1624262175.0,32.000000
5,44,47,1624262175.0,32.000000
7,43,47,1624262175.0,32.000000
5,44,44,1624262175.0,32.000000
7,45,47,1624262175.0,32.000000
7,44,47,1624262175.0,32.000000
7,44,44,1624262175.0,32.000000
7,44,44,1624262175.0,32.000000
8,44,46,1624262175.0,32.000000
8,43,44,1624262175.0,32.000000
9,43,44,1624262175.0,32.000000
11,43,45,1624262175.0,32.000000
11,42,45,1624262175.0,32.000000
10,43,44,1624262175.0,32.000000
11,44,44,1624262175.0,32.000000
10,44,44,1624262175.0,32.000000
11,43,45,1624262175.0,32.000000
13,44,44,1624262175.0,32.000000
10,43,43,1624262175.0,32.000000
10,44,45,1624262175.0,32.000000
10,45,45,1624262175.0,32.000000
9,44,44,1624262175.0,32.000000
9,45,45,1624262175.0,32.000000
11,45,46,1624262175.0,32.000000
11,44,44,1624262175.0,32.000000
9,45,44,1624262175.0,32.000000
10,44,45,1624262175.0,32.000000
11,43,43,1624262175.0,32.000000
10,43,43,1624262175.0,32.000000
10,44,44,1624262175.0,32.000000
11,44,44,1624262175.0,32.000000
10,44,44,1624262175.0,32.000000
9,44,44,1624262175.0,32.000000
10,44,44,1624262175.0,32.000000
9,44,45,1624262175.0,32.000000
8,44,45,1624262175.0,32.000000
8,44,45,1624262175.0,32.000000
6,44,46,1624262175.0,32.000000
5,44,45,1624262175.0,32.000000
4,44,45,1624262175.0,32.000000
2,44,45,1624262175.0,32.000000
1,44,45,1624262175.0,32.000000
0,44,46,1624262175.0,32.000000
0,44,46,1624262175.0,32.000000
0,44,47,1624262175.0,32.000000
-3,44,47,1624262175.0,32.000000
-4,44,46,1624262175.0,32.000000
-6,44,44,1624262175.0,32.000000
-8,44,44,1624262175.0,32.000000
-8,44,44,1624262175.0,32.000000
-9,44,44,1624262175.0,32.000000
-10,44,44,1624262175.0,32.000000
-10,44,43,1624262175.0,32.000000
-11,44,45,1624262175.0,32.000000
-11,44,46,1624262175.0,32.000000
-12,44,45,1624262175.0,32.000000
-12,44,45,1624262175.0,32.000000
-14,44,46,1624262175.0,32.000000
-15,43,45,1624262175.0,32.000000
-16,44,44,1624262175.0,32.000000
-18,45,45,1624262175.0,32.000000
-17,46,43,1624262175.0,32.000000
-19,46,42,1624262175.0,32.000000
-21,45,39,1624262175.0,32.000000
-22,46,39,1624262175.0,32.000000
-27,45,42,1624262175.0,32.000000
-30,43,36,1624262175.0,32.000000
-29,43,33,1624262175.0,32.000000
-33,41,33,1624262175.0,32.000000
-35,40,32,1624262175.0,32.000000
-35,37,29,1624262175.0,32.000000
-41,35,30,1624262175.0,32.000000
-44,35,29,1624262175.0,32.000000
-43,34,29,1624262175.0,32.000000
-46,33,28,1624262175.0,32.000000
-47,31,26,1624262175.0,32.000000
-50,31,26,1624262175.0,32.000000
-50,29,24,1624262175.0,32.000000
-53,26,23,1624262175.0,32.000000
-53,24,25,1624262175.0,32.000000
-53,23,24,1624262175.0,32.000000
-53,20,23,1624262175.0,32.000000
-54,18,24,1624262175.0,32.000000
-52,17,24,1624262175.0,32.000000
-54,13,24,1624262175.0,32.000000
-55,11,25,1624262175.0,32.000000
-57,9,26,1624262175.0,32.000000
-59,7,26,1624262175.0,32.000000
-60,6,27,1624262175.0,32.000000
-63,4,25,1624262175.0,32.000000
-62,4,25,1624262175.0,32.000000
-59,4,27,1624262175.0,32.000000
-61,4,25,1624262175.0,32.000000
-61,2,26,1624262175.0,32.000000
-59,4,27,1624262175.0,32.000000
-58,3,27,1624262175.0,32.000000
-58,3,25,1624262175.0,32.000000
-58,3,27,1624262175.0,32.000000
-58,2,27,1624262175.0,32.000000
-58,2,28,1624262175.0,32.000000
-58,5,26,1624262175.0,32.000000
-59,5,27,1624262175.0,32.000000
-59,4,26,1624262175.0,32.000000
-60,4,25,1624262175.0,32.000000
-59,4,27,1624262175.0,32.000000
-57,3,27,1624262175.0,32.000000
-57,4,27,1624262175.0,32.000000
-56,3,27,1624262175.0,32.000000
-57,3,27,1624262175.0,32.000000
-56,3,25,1624262175.0,32.000000
-57,1,23,1624262175.0,32.000000
-57,1,25,1624262175.0,32.000000
-60,2,29,1624262175.0,32.000000
-60,5,27,1624262175.0,32.000000
-61,3,28,1624262175.0,32.000000
-56,4,27,1624262175.0,32.000000
-54,3,25,1624262175.0,32.000000
-56,2,24,1624262175.0,32.000000
-55,2,28,1624262175.0,32.000000
-62,0,25,1624262175.0,32.000000
-55,2,28,1624262175.0,32.000000
-59,2,29,1624262175.0,32.000000
-59,2,27,1624262175.0,32.000000
-59,2,28,1624262175.0,32.000000
-58,2,27,1624262175.0,32.000000
-57,2,26,1624262175.0,32.000000
-58,-2,29,1624262175.0,32.000000
-58,-4,29,1624262175.0,32.000000
-55,0,29,1624262175.0,32.000000
-53,-1,30,1624262175.0,32.000000
-53,-5,31,1624262175.0,32.000000
-54,-2,27,1624262175.0,32.000000
-55,-1,24,1624262175.0,32.000000
-54,-2,26,1624262175.0,32.000000
-54,-4,27,1624262175.0,32.000000
-55,-2,29,1624262175.0,32.000000
-57,1,27,1624262175.0,32.000000
-56,1,27,1624262175.0,32.000000
-59,1,26,1624262175.0,32.000000
-63,4,24,1624262175.0,32.000000
-65,7,21,1624262175.0,32.000000
-65,7,21,1624262175.0,32.000000
-64,6,18,1624262175.0,32.000000
-67,2,8,1624262175.0,32.000000
-63,3,10,1624262175.0,32.000000
-63,4,8,1624262175.0,32.000000
-64,5,5,1624262175.0,32.000000
-62,7,7,1624262175.0,32.000000
-62,8,4,1624262175.0,32.000000
-61,11,3,1624262175.0,32.000000
-63,12,7,1624262175.0,32.000000
-59,16,12,1624262175.0,32.000000
-59,21,8,1624262175.0,32.000000
-57,23,12,1624262175.0,32.000000
-53,23,22,1624262175.0,32.000000
-49,24,18,1624262175.0,32.000000
-54,25,13,1624262175.0,32.000000
-49,24,26,1624262175.0,32.000000
-48,30,27,1624262175.0,32.000000
-39,30,29,1624262175.0,32.000000
-37,29,31,1624262175.0,32.000000
-35,35,34,1624262175.0,32.000000
-35,27,36,1624262175.0,32.000000
-38,24,40,1624262175.0,32.000000
-41,27,39,1624262175.0,32.000000
-59,17,43,1624262175.0,32.000000
-54,17,56,1624262175.0,32.000000
-48,18,54,1624262175.0,32.000000
-42,16,40,1624262175.0,32.000000
-47,11,15,1624262175.0,32.000000
-60,16,3,1624262175.0,32.000000
-57,15,1,1624262175.0,32.000000
-65,22,-14,1624262175.0,32.000000
-66,16,-14,1624262175.0,32.000000
-71,8,-8,1624262175.0,32.000000
-72,-5,0,1624262175.0,32.000000
-71,-7,-7,1624262175.0,32.000000
-69,-11,-13,1624262175.0,32.000000
-69,-11,-25,1624262175.0,32.000000
-71,-12,-27,1624262175.0,32.000000
-76,-13,-38,1624262175.0,32.000000
-70,-9,-50,1624262175.0,32.000000
-86,5,-51,1624262175.0,32.000000
-60,12,-23,1624262175.0,32.000000
-47,14,-19,1624262175.0,32.000000
-21,21,-4,1624262175.0,32.000000
-4,29,2,1624262175.0,32.000000
-12,36,-12,1624262175.0,32.000000
-26,38,-27,1624262175.0,32.000000
-33,38,-29,1624262175.0,32.000000
-58,33,-40,1624262175.0,32.000000
-67,30,-35,1624262175.0,32.000000
-77,24,-22,1624262175.0,32.000000
-54,16,-3,1624262175.0,32.000000
-51,14,-1,1624262175.0,32.000000
-62,9,-7,1624262175.0,32.000000
-64,17,-11,1624262175.0,32.000000
-66,15,-18,1624262175.0,32.000000
-68,5,-20,1624262175.0,32.000000
-67,-4,-17,1624262175.0,32.000000
-68,-21,-16,1624262175.0,32.000000
-78,-35,-19,1624262175.0,32.000000
-85,-34,-26,1624262175.0,32.000000
-85,-16,-35,1624262175.0,32.000000
-74,-8,-32,1624262175.0,32.000000
-58,17,-29,1624262175.0,32.000000
-34,35,-28,1624262175.0,32.000000
-23,37,-23,1624262175.0,32.000000
-16,39,-18,1624262175.0,32.000000
-26,34,-31,1624262175.0,32.000000
-36,31,-35,1624262175.0,32.000000
-53,24,-29,1624262175.0,32.000000
-60,19,-25,1624262175.0,32.000000
-61,15,-14,1624262175.0,32.000000
-58,4,-8,1624262175.0,32.000000
-59,1,-4,1624262175.0,32.000000
-63,-1,6,1624262175.0,32.000000
-67,-5,7,1624262175.0,32.000000
-78,-18,14,1624262175.0,32.000000
-73,-10,22,1624262175.0,32.000000
-72,-9,10,1624262175.0,32.000000
-66,3,-10,1624262175.0,32.000000
-51,2,0,1624262175.0,32.000000
-64,4,2,1624262175.0,32.000000
-71,2,6,1624262175.0,32.000000
-61,-1,11,1624262175.0,32.000000
-52,0,11,1624262175.0,32.000000
-61,1,3,1624262175.0,32.000000
-66,0,1,1624262175.0,32.000000
-71,0,-4,1624262175.0,32.000000
-71,-1,-5,1624262175.0,32.000000
-66,-1,-5,1624262175.0,32.000000
-63,0,-6,1624262175.0,32.000000
-64,0,-5,1624262175.0,32.000000
-62,0,-5,1624262175.0,32.000000
-66,-2,-3,1624262175.0,32.000000
-64,-1,-1,1624262175.0,32.000000
-68,-2,-5,1624262175.0,32.000000
-65,-1,-5,1624262175.0,32.000000
-64,-5,-4,1624262175.0,32.000000
-67,-4,-4,1624262175.0,32.000000
-67,-3,-5,1624262175.0,32.000000
-63,-3,-2,1624262175.0,32.000000
-62,-3,0,1624262175.0,32.000000
-61,-3,1,1624262175.0,32.000000
-63,-4,0,1624262175.0,32.000000
-59,-4,1,1624262175.0,32.000000
-60,-3,-1,1624262175.0,32.000000
-67,-5,-5,1624262175.0,32.000000
-70,-4,-8,1624262175.0,32.000000
-62,-5,-3,1624262175.0,32.000000
-63,-3,-3,1624262175.0,32.000000
-67,-3,-10,1624262175.0,32.000000
-64,-3,-15,1624262175.0,32.000000
-63,-4,-11,1624262175.0,32.000000
-62,-4,-9,1624262175.0,32.000000
-59,-5,-5,1624262175.0,32.000000
-66,-4,-8,1624262175.0,32.000000
-63,-4,-7,1624262175.0,32.000000
-63,-4,-6,1624262175.0,32.000000
-61,-5,-5,1624262175.0,32.000000
-65,-5,-4,1624262175.0,32.000000
-63,-5,-3,1624262175.0,32.000000
-63,-4,-3,1624262175.0,32.000000
-64,-4,-2,1624262175.0,32.000000
-62,-4,-2,1624262175.0,32.000000
-64,-4,-3,1624262175.0,32.000000
-64,-4,-2,1624262175.0,32.000000
-64,-4,-2,1624262175.0,32.000000
-64,-4,-2,1624262175.0,32.000000
-64,-4,-2,1624262175.0,32.000000
-63,-3,-3,1624262175.0,32.000000
-63,-3,-4,1624262175.0,32.000000
-66,-4,-1,1624262175.0,32.000000
-62,-6,5,1624262175.0,32.000000
-63,-5,5,1624262175.0,32.000000
-63,-4,8,1624262175.0,32.000000
-63,-4,7,1624262175.0,32.000000
-63,-4,5,1624262175.0,32.000000
-62,-4,4,1624262175.0,32.000000
-64,-4,2,1624262175.0,32.000000
-64,-4,3,1624262175.0,32.000000
-64,-4,3,1624262175.0,32.000000
-63,-5,5,1624262175.0,32.000000
-63,-4,5,1624262175.0,32.000000
-64,-3,5,1624262175.0,32.000000
-62,-3,6,1624262175.0,32.000000
-62,-3,6,1624262175.0,32.000000
-65,-3,6,1624262175.0,32.000000
-63,-3,4,1624262175.0,32.000000
-62,-3,4,1624262175.0,32.000000
-62,-4,5,1624262175.0,32.000000
-63,-4,5,1624262175.0,32.000000
-63,-4,5,1624262175.0,32.000000
-63,-4,4,1624262175.0,32.000000
-63,-5,4,1624262175.0,32.000000
-64,-5,3,1624262175.0,32.000000
-63,-6,2,1624262175.0,32.000000
-64,-6,2,1624262175.0,32.000000
-72,-10,7,1624262175.0,32.000000
-71,-9,10,1624262175.0,32.000000
-66,-7,12,1624262175.0,32.000000
-56,-5,12,1624262175.0,32.000000
-65,-7,10,1624262175.0,32.000000
-67,-4,11,1624262175.0,32.000000
-77,-6,17,1624262175.0,32.000000
-74,-7,20,1624262175.0,32.000000
-52,-4,33,1624262175.0,32.000000
-56,-5,29,1624262175.0,32.000000
-38,4,37,1624262175.0,32.000000
-54,7,27,1624262175.0,32.000000
-60,15,19,1624262175.0,32.000000
-40,13,27,1624262175.0,32.000000
-36,14,27,1624262175.0,32.000000
-43,16,20,1624262175.0,32.000000
-45,13,21,1624262175.0,32.000000
-50,11,22,1624262175.0,32.000000
-59,6,22,1624262175.0,32.000000
-63,3,38,1624262175.0,32.000000
-64,3,45,1624262175.0,32.000000
-67,1,45,1624262175.0,32.000000
-59,4,40,1624262175.0,32.000000
-47,6,32,1624262175.0,32.000000
-53,5,27,1624262175.0,32.000000
-55,4,28,1624262175.0,32.000000
-57,3,29,1624262175.0,32.000000
-56,2,27,1624262175.0,32.000000
-55,0,24,1624262175.0,32.000000
-57,-4,24,1624262175.0,32.000000
-59,-4,26,1624262175.0,32.000000
-57,-4,29,1624262175.0,32.000000
-57,-1,30,1624262175.0,32.000000
-56,-1,31,1624262175.0,32.000000
-58,1,31,1624262175.0,32.000000
-59,3,31,1624262175.0,32.000000
-59,-1,29,1624262175.0,32.000000
-56,-2,29,1624262175.0,32.000000
-55,-2,29,1624262175.0,32.000000
-56,0,27,1624262175.0,32.000000
-57,0,26,1624262175.0,32.000000
-56,-2,28,1624262175.0,32.000000
-57,-1,29,1624262175.0,32.000000
-57,-1,30,1624262175.0,32.000000
-56,-2,30,1624262175.0,32.000000
-54,2,29,1624262175.0,32.000000
-54,3,29,1624262175.0,32.000000
-56,1,28,1624262175.0,32.000000
-56,0,28,1624262175.0,32.000000
-59,-1,29,1624262175.0,32.000000
-58,-4,29,1624262175.0,32.000000
-56,-2,28,1624262175.0,32.000000
-55,-2,27,1624262175.0,32.000000
-56,-2,27,1624262175.0,32.000000
-56,-5,29,1624262175.0,32.000000
-56,-4,33,1624262175.0,32.000000
-56,-6,33,1624262175.0,32.000000
-54,-2,29,1624262175.0,32.000000
-57,0,27,1624262175.0,32.000000
-57,-1,28,1624262175.0,32.000000
-57,-4,28,1624262175.0,32.000000
-57,-4,27,1624262175.0,32.000000
-56,-3,29,1624262175.0,32.000000
-55,-2,29,1624262175.0,32.000000
-55,0,30,1624262175.0,32.000000
-57,1,27,1624262175.0,32.000000
-57,-1,28,1624262175.0,32.000000
-56,-5,28,1624262175.0,32.000000
-56,-5,31,1624262175.0,32.000000
-55,-5,31,1624262175.0,32.000000
-55,-4,29,1624262175.0,32.000000
-56,-3,29,1624262175.0,32.000000
-55,-2,29,1624262175.0,32.000000
-58,1,28,1624262175.0,32.000000
-60,2,27,1624262175.0,32.000000
-62,0,26,1624262175.0,32.000000
-67,0,28,1624262175.0,32.000000
-69,-4,30,1624262175.0,32.000000
-60,-5,31,1624262175.0,32.000000
-56,-3,32,1624262175.0,32.000000
-55,2,28,1624262175.0,32.000000
-59,6,26,1624262175.0,32.000000
-47,-6,29,1624262175.0,32.000000
-36,1,41,1624262175.0,32.000000
-39,4,38,1624262175.0,32.000000
-38,5,36,1624262175.0,32.000000
-45,9,35,1624262175.0,32.000000
-52,10,36,1624262175.0,32.000000
-49,13,39,1624262175.0,32.000000
-44,4,39,1624262175.0,32.000000
-42,3,41,1624262175.0,32.000000
-40,-5,38,1624262175.0,32.000000
-46,-7,31,1624262175.0,32.000000
-71,0,16,1624262175.0,32.000000
-63,-5,38,1624262175.0,32.000000
-57,-12,26,1624262175.0,32.000000
-43,-9,31,1624262175.0,32.000000
-48,-20,39,1624262175.0,32.000000
-78,-35,20,1624262175.0,32.000000
-78,-42,6,1624262175.0,32.000000
-72,-30,15,1624262175.0,32.000000
-65,-21,19,1624262175.0,32.000000
-47,-11,33,1624262175.0,32.000000
-39,-12,35,1624262175.0,32.000000
-42,-17,34,1624262175.0,32.000000
-54,-24,31,1624262175.0,32.000000
-70,-24,26,1624262175.0,32.000000
-65,-21,18,1624262175.0,32.000000
-58,-19,16,1624262175.0,32.000000
-52,-16,17,1624262175.0,32.000000
-51,-17,19,1624262175.0,32.000000
-52,-19,23,1624262175.0,32.000000
-56,-20,27,1624262175.0,32.000000
-57,-20,27,1624262175.0,32.000000
-55,-18,25,1624262175.0,32.000000
-54,-17,24,1624262175.0,32.000000
-55,-17,24,1624262175.0,32.000000
-54,-16,26,1624262175.0,32.000000
-56,-16,25,1624262175.0,32.000000
-56,-16,24,1624262175.0,32.000000
-56,-17,24,1624262175.0,32.000000
-57,-17,23,1624262175.0,32.000000
-57,-17,23,1624262175.0,32.000000
-56,-17,23,1624262175.0,32.000000
-56,-16,24,1624262175.0,32.000000
-55,-16,25,1624262175.0,32.000000
-56,-16,25,1624262175.0,32.000000
-56,-16,25,1624262175.0,32.000000
-56,-16,24,1624262175.0,32.000000
-56,-16,23,1624262175.0,32.000000
-57,-17,23,1624262175.0,32.000000
-57,-18,23,1624262175.0,32.000000
-57,-18,23,1624262175.0,32.000000
-56,-16,23,1624262175.0,32.000000
-56,-16,24,1624262175.0,32.000000
-55,-15,24,1624262175.0,32.000000
-55,-15,25,1624262175.0,32.000000
-56,-15,26,1624262175.0,32.000000
-56,-16,25,1624262175.0,32.000000
-56,-15,24,1624262175.0,32.000000
-56,-15,24,1624262175.0,32.000000
-56,-16,25,1624262175.0,32.000000
-56,-16,24,1624262175.0,32.000000
-56,-18,23,1624262175.0,32.000000
-56,-18,23,1624262175.0,32.000000
-56,-18,22,1624262175.0,32.000000
-57,-18,22,1624262175.0,32.000000
-56,-18,23,1624262175.0,32.000000
-56,-18,23,1624262175.0,32.000000
-56,-19,23,1624262175.0,32.000000
-56,-19,23,1624262175.0,32.000000
-55,-19,23,1624262175.0,32.000000
-55,-18,23,1624262175.0,32.000000
-56,-19,23,1624262175.0,32.000000
-56,-19,23,1624262175.0,32.000000
-56,-20,23,1624262175.0,32.000000
-56,-19,23,1624262175.0,32.000000
-55,-19,23,1624262175.0,32.000000
-56,-20,23,1624262175.0,32.000000
-56,-19,24,1624262175.0,32.000000
-55,-19,24,1624262175.0,32.000000
-55,-17,25,1624262175.0,32.000000
-55,-17,25,1624262175.0,32.000000
-56,-17,23,1624262175.0,32.000000
-56,-18,23,1624262175.0,32.000000
-56,-18,23,1624262175.0,32.000000
-56,-17,24,1624262175.0,32.000000
-56,-17,24,1624262175.0,32.000000
-56,-17,24,1624262175.0,32.000000
-56,-17,24,1624262175.0,32.000000
-56,-17,24,1624262175.0,32.000000
-57,-17,24,1624262175.0,32.000000
-56,-17,24,1624262175.0,32.000000
-56,-17,24,1624262175.0,32.000000
-56,-16,23,1624262175.0,32.000000
-56,-16,23,1624262175.0,32.000000
-57,-16,24,1624262175.0,32.000000
-56,-16,24,1624262175.0,32.000000
-56,-16,24,1624262175.0,32.000000
-57,-15,24,1624262175.0,32.000000
-57,-14,24,1624262175.0,32.000000
-57,-14,24,1624262175.0,32.000000
-56,-17,24,1624262175.0,32.000000
-56,-18,23,1624262175.0,32.000000
-56,-18,23,1624262175.0,32.000000
-57,-17,24,1624262175.0,32.000000
-56,-16,24,1624262175.0,32.000000
-56,-16,24,1624262175.0,32.000000
-56,-16,24,1624262175.0,32.000000
-56,-16,24,1624262175.0,32.000000
-56,-16,24,1624262175.0,32.000000
-56,-17,24,1624262175.0,32.000000
-57,-17,24,1624262175.0,32.000000
-56,-18,23,1624262175.0,32.000000
-56,-18,23,1624262175.0,32.000000
-56,-18,23,1624262175.0,32.000000
-56,-18,23,1624262175.0,32.000000
-56,-18,23,1624262175.0,32.000000
-56,-17,24,1624262175.0,32.000000
-56,-18,24,1624262175.0,32.000000
-56,-18,24,1624262175.0,32.000000
-56,-18,24,1624262175.0,32.000000
-56,-18,23,1624262175.0,32.000000
-56,-19,23,1624262175.0,32.000000
-56,-19,23,1624262175.0,32.000000
-56,-18,23,1624262175.0,32.000000
-57,-17,24,1624262175.0,32.000000
-57,-17,24,1624262175.0,32.000000
-56,-17,24,1624262175.0,32.000000
-56,-17,24,1624262175.0,32.000000
-56,-18,24,1624262175.0,32.000000
-56,-18,23,1624262175.0,32.000000
-56,-18,23,1624262175.0,32.000000
-56,-17,23,1624262175.0,32.000000
-56,-17,23,1624262175.0,32.000000
-56,-17,24,1624262175.0,32.000000
-56,-16,24,1624262175.0,32.000000
-56,-17,24,1624262175.0,32.000000
-56,-17,24,1624262175.0,32.000000
-56,-16,24,1624262175.0,32.000000
-56,-16,24,1624262175.0,32.000000
-56,-17,24,1624262175.0,32.000000
-56,-17,23,1624262175.0,32.000000
-56,-17,23,1624262175.0,32.000000
-56,-16,24,1624262175.0,32.000000
-57,-16,24,1624262175.0,32.000000
-56,-17,23,1624262175.0,32.000000
-56,-17,23,1624262175.0,32.000000
-56,-17,24,1624262175.0,32.000000
-56,-17,23,1624262175.0,32.000000
-56,-16,24,1624262175.0,32.000000
-57,-15,24,1624262175.0,32.000000
-57,-15,23,1624262175.0,32.000000
-56,-15,23,1624262175.0,32.000000
-56,-16,23,1624262175.0,32.000000
-56,-17,23,1624262175.0,32.000000
-56,-17,24,1624262175.0,32.000000
-57,-17,23,1624262175.0,32.000000
-57,-16,22,1624262175.0,32.000000
-57,-17,23,1624262175.0,32.000000
-57,-17,23,1624262175.0,32.000000
-57,-18,23,1624262175.0,32.000000
-56,-18,23,1624262175.0,32.000000
-56,-19,23,1624262175.0,32.000000
-55,-20,23,1624262175.0,32.000000
-55,-20,23,1624262175.0,32.000000
-56,-19,23,1624262175.0,32.000000
-56,-18,23,1624262175.0,32.000000
-56,-18,23,1624262175.0,32.000000
-56,-17,22,1624262175.0,32.000000
-57,-17,23,1624262175.0,32.000000
-56,-18,23,1624262175.0,32.000000
-56,-18,25,1624262175.0,32.000000
-55,-18,24,1624262175.0,32.000000
-54,-18,20,1624262175.0,32.000000
-58,-18,19,1624262175.0,32.000000
-58,-18,21,1624262175.0,32.000000
-58,-18,22,1624262175.0,32.000000
-57,-18,23,1624262175.0,32.000000
-57,-19,23,1624262175.0,32.000000
-53,-16,23,1624262175.0,32.000000
-54,-16,22,1624262175.0,32.000000
-56,-14,21,1624262175.0,32.000000
-59,-16,22,1624262175.0,32.000000
-59,-17,23,1624262175.0,32.000000
-57,-16,23,1624262175.0,32.000000
-58,-19,23,1624262175.0,32.000000
-56,-18,21,1624262175.0,32.000000
-56,-15,20,1624262175.0,32.000000
-56,-13,21,1624262175.0,32.000000
-57,-13,23,1624262175.0,32.000000
-58,-13,24,1624262175.0,32.000000
-58,-15,25,1624262175.0,32.000000
-57,-17,23,1624262175.0,32.000000
-56,-18,23,1624262175.0,32.000000
-56,-18,21,1624262175.0,32.000000
-56,-16,21,1624262175.0,32.000000
-56,-15,22,1624262175.0,32.000000
-57,-14,24,1624262175.0,32.000000
-57,-14,26,1624262175.0,32.000000
-58,-16,25,1624262175.0,32.000000
-57,-16,23,1624262175.0,32.000000
-57,-16,23,1624262175.0,32.000000
-56,-16,21,1624262175.0,32.000000
-57,-16,19,1624262175.0,32.000000
-57,-18,21,1624262175.0,32.000000
-56,-18,24,1624262175.0,32.000000
-56,-18,24,1624262175.0,32.000000
-57,-18,23,1624262175.0,32.000000
-55,-18,24,1624262175.0,32.000000
-54,-18,24,1624262175.0,32.000000
-55,-18,22,1624262175.0,32.000000
-56,-18,22,1624262175.0,32.000000
-57,-19,22,1624262175.0,32.000000
-58,-19,23,1624262175.0,32.000000
-57,-20,23,1624262175.0,32.000000
-56,-19,23,1624262175.0,32.000000
-55,-17,23,1624262175.0,32.000000
-54,-16,24,1624262175.0,32.000000
-57,-17,23,1624262175.0,32.000000
-58,-17,23,1624262175.0,32.000000
-58,-18,22,1624262175.0,32.000000
-56,-19,22,1624262175.0,32.000000
-56,-19,22,1624262175.0,32.000000
-55,-17,24,1624262175.0,32.000000
-55,-16,24,1624262175.0,32.000000
-57,-16,24,1624262175.0,32.000000
-56,-16,24,1624262175.0,32.000000
-56,-16,23,1624262175.0,32.000000
-56,-15,22,1624262175.0,32.000000
-56,-16,21,1624262175.0,32.000000
-57,-17,23,1624262175.0,32.000000
-58,-20,22,1624262175.0,32.000000
-58,-20,23,1624262175.0,32.000000
-54,-15,23,1624262175.0,32.000000
-55,-13,23,1624262175.0,32.000000
-57,-13,23,1624262175.0,32.000000
-59,-14,22,1624262175.0,32.000000
-59,-15,22,1624262175.0,32.000000
-59,-17,23,1624262175.0,32.000000
-55,-16,22,1624262175.0,32.000000
-55,-16,21,1624262175.0,32.000000
-57,-14,19,1624262175.0,32.000000
-57,-15,21,1624262175.0,32.000000
-59,-17,25,1624262175.0,32.000000
-58,-18,23,1624262175.0,32.000000
-55,-16,20,1624262175.0,32.000000
-57,-14,19,1624262175.0,32.000000
-56,-14,21,1624262175.0,32.000000
-58,-15,23,1624262175.0,32.000000
-60,-18,26,1624262175.0,32.000000
-60,-19,23,1624262175.0,32.000000
-54,-17,17,1624262175.0,32.000000
-56,-15,19,1624262175.0,32.000000
-56,-15,21,1624262175.0,32.000000
-60,-17,23,1624262175.0,32.000000
-60,-18,22,1624262175.0,32.000000
-56,-17,23,1624262175.0,32.000000
-57,-19,19,1624262175.0,32.000000
-54,-18,18,1624262175.0,32.000000
-57,-16,18,1624262175.0,32.000000
-58,-16,22,1624262175.0,32.000000
-60,-17,23,1624262175.0,32.000000
-56,-17,24,1624262175.0,32.000000
-56,-17,23,1624262175.0,32.000000
-56,-19,22,1624262175.0,32.000000
-58,-21,21,1624262175.0,32.000000
-59,-21,20,1624262175.0,32.000000
-68,-21,18,1624262175.0,32.000000
-70,-21,19,1624262175.0,32.000000
-74,-26,21,1624262175.0,32.000000
-81,-29,30,1624262175.0,32.000000
-78,-29,34,1624262175.0,32.000000
-72,-40,40,1624262175.0,32.000000
-68,-24,36,1624262175.0,32.000000
-49,-30,49,1624262175.0,32.000000
-53,0,65,1624262175.0,32.000000
-21,2,77,1624262175.0,32.000000
-48,7,46,1624262175.0,32.000000
-48,12,22,1624262175.0,32.000000
-39,17,16,1624262175.0,32.000000
-15,30,9,1624262175.0,32.000000
-14,32,2,1624262175.0,32.000000
-2,40,2,1624262175.0,32.000000
1,27,54,1624262175.0,32.000000
-9,20,70,1624262175.0,32.000000
-39,9,53,1624262175.0,32.000000
-43,10,43,1624262175.0,32.000000
-33,7,49,1624262175.0,32.000000
-40,-4,62,1624262175.0,32.000000
-50,-14,66,1624262175.0,32.000000
-64,-32,69,1624262175.0,32.000000
-46,-24,62,1624262175.0,32.000000
-38,-9,55,1624262175.0,32.000000
-30,12,50,1624262175.0,32.000000
-24,20,51,1624262175.0,32.000000
-14,36,48,1624262175.0,32.000000
-13,48,53,1624262175.0,32.000000
-10,48,55,1624262175.0,32.000000
-16,33,54,1624262175.0,32.000000
-21,25,54,1624262175.0,32.000000
-37,9,54,1624262175.0,32.000000
-40,0,55,1624262175.0,32.000000
-40,-3,57,1624262175.0,32.000000
-39,-2,56,1624262175.0,32.000000
-31,7,54,1624262175.0,32.000000
-26,10,52,1624262175.0,32.000000
-21,17,47,1624262175.0,32.000000
-20,20,46,1624262175.0,32.000000
-12,20,41,1624262175.0,32.000000
-13,24,39,1624262175.0,32.000000
-18,25,39,1624262175.0,32.000000
-39,25,49,1624262175.0,32.000000
-40,24,59,1624262175.0,32.000000
-37,13,73,1624262175.0,32.000000
-41,11,66,1624262175.0,32.000000
-41,11,61,1624262175.0,32.000000
-35,7,57,1624262175.0,32.000000
-34,5,55,1624262175.0,32.000000
-34,4,55,1624262175.0,32.000000
-38,1,59,1624262175.0,32.000000
-34,2,59,1624262175.0,32.000000
-27,7,55,1624262175.0,32.000000
-27,20,56,1624262175.0,32.000000
-24,23,57,1624262175.0,32.000000
-25,30,57,1624262175.0,32.000000
-23,35,56,1624262175.0,32.000000
-19,36,48,1624262175.0,32.000000
-19,28,43,1624262175.0,32.000000
-21,24,42,1624262175.0,32.000000
-30,15,47,1624262175.0,32.000000
-35,11,53,1624262175.0,32.000000
-33,8,57,1624262175.0,32.000000
-37,2,60,1624262175.0,32.000000
-38,1,60,1624262175.0,32.000000
-32,-2,58,1624262175.0,32.000000
-24,3,56,1624262175.0,32.000000
-24,6,54,1624262175.0,32.000000
-21,16,51,1624262175.0,32.000000
-21,20,49,1624262175.0,32.000000
-18,19,53,1624262175.0,32.000000
-15,26,48,1624262175.0,32.000000
-21,25,53,1624262175.0,32.000000
-40,24,76,1624262175.0,32.000000
-38,23,55,1624262175.0,32.000000
-39,23,45,1624262175.0,32.000000
-41,23,47,1624262175.0,32.000000
-34,21,48,1624262175.0,32.000000
-32,21,45,1624262175.0,32.000000
-43,22,44,1624262175.0,32.000000
-43,23,46,1624262175.0,32.000000
-43,30,54,1624262175.0,32.000000
-44,33,58,1624262175.0,32.000000
-37,29,49,1624262175.0,32.000000
-34,26,44,1624262175.0,32.000000
-37,29,39,1624262175.0,32.000000
-42,24,28,1624262175.0,32.000000
-46,13,27,1624262175.0,32.000000
-43,10,27,1624262175.0,32.000000
-47,5,29,1624262175.0,32.000000
-49,4,28,1624262175.0,32.000000
-55,4,27,1624262175.0,32.000000
-56,7,21,1624262175.0,32.000000
-57,10,20,1624262175.0,32.000000
-67,11,18,1624262175.0,32.000000
-62,10,21,1624262175.0,32.000000
-60,7,19,1624262175.0,32.000000
-60,3,19,1624262175.0,32.000000
-59,0,20,1624262175.0,32.000000
-58,-4,18,1624262175.0,32.000000
-59,-5,21,1624262175.0,32.000000
-59,-7,21,1624262175.0,32.000000
-54,-6,33,1624262175.0,32.000000
-59,-3,37,1624262175.0,32.000000
-59,-1,32,1624262175.0,32.000000
-59,-1,37,1624262175.0,32.000000
-59,0,39,1624262175.0,32.000000
-61,0,27,1624262175.0,32.000000
-60,3,26,1624262175.0,32.000000
-61,2,24,1624262175.0,32.000000
-58,1,23,1624262175.0,32.000000
-59,-1,25,1624262175.0,32.000000
-66,-2,23,1624262175.0,32.000000
-67,1,26,1624262175.0,32.000000
-65,2,26,1624262175.0,32.000000
-64,4,26,1624262175.0,32.000000
-63,4,26,1624262175.0,32.000000
-61,7,28,1624262175.0,32.000000
-57,10,28,1624262175.0,32.000000
-54,12,27,1624262175.0,32.000000
-55,16,28,1624262175.0,32.000000
-52,17,31,1624262175.0,32.000000
-50,21,28,1624262175.0,32.000000
-45,24,33,1624262175.0,32.000000
-44,26,35,1624262175.0,32.000000
-43,28,34,1624262175.0,32.000000
-38,30,35,1624262175.0,32.000000
-38,31,35,1624262175.0,32.000000
-32,33,39,1624262175.0,32.000000
-33,34,38,1624262175.0,32.000000
-31,35,38,1624262175.0,32.000000
-30,35,39,1624262175.0,32.000000
-28,35,40,1624262175.0,32.000000
-28,35,43,1624262175.0,32.000000
-28,36,43,1624262175.0,32.000000
-29,35,46,1624262175.0,32.000000
-28,36,46,1624262175.0,32.000000
-29,36,46,1624262175.0,32.000000
-28,36,48,1624262175.0,32.000000
-27,36,48,1624262175.0,32.000000
-26,36,46,1624262175.0,32.000000
-24,35,47,1624262175.0,32.000000
-24,36,48,1624262175.0,32.000000
-24,36,47,1624262175.0,32.000000
-21,35,46,1624262175.0,32.000000
-22,36,45,1624262175.0,32.000000
-22,35,47,1624262175.0,32.000000
-21,35,47,1624262175.0,32.000000
-21,35,46,1624262175.0,32.000000
-22,36,46,1624262175.0,32.000000
-23,36,46,1624262175.0,32.000000
-22,38,47,1624262175.0,32.000000
-21,39,46,1624262175.0,32.000000
-20,41,45,1624262175.0,32.000000
-18,41,43,1624262175.0,32.000000
-18,41,43,1624262175.0,32.000000
-18,42,41,1624262175.0,32.000000
-19,42,42,1624262175.0,32.000000
-20,42,42,1624262175.0,32.000000
-20,42,41,1624262175.0,32.000000
-19,43,41,1624262175.0,32.000000
-18,43,42,1624262175.0,32.000000
-17,44,43,1624262175.0,32.000000
-17,45,44,1624262175.0,32.000000
-19,45,44,1624262175.0,32.000000
-20,43,39,1624262175.0,32.000000
-21,43,39,1624262175.0,32.000000
-20,44,39,1624262175.0,32.000000
-19,47,37,1624262175.0,32.000000
-21,50,43,1624262175.0,32.000000
-20,43,34,1624262175.0,32.000000
-17,46,33,1624262175.0,32.000000
-19,50,42,1624262175.0,32.000000
-22,48,40,1624262175.0,32.000000
-26,46,36,1624262175.0,32.000000
-26,45,40,1624262175.0,32.000000
-25,44,40,1624262175.0,32.000000
-23,45,40,1624262175.0,32.000000
-23,45,39,1624262175.0,32.000000
-24,46,37,1624262175.0,32.000000
-19,47,38,1624262175.0,32.000000
-19,48,39,1624262175.0,32.000000
-21,48,38,1624262175.0,32.000000
-22,47,38,1624262175.0,32.000000
-21,47,39,1624262175.0,32.000000
-21,46,39,1624262175.0,32.000000
-21,46,39,1624262175.0,32.000000
-19,47,39,1624262175.0,32.000000
-18,48,39,1624262175.0,32.000000
-17,48,38,1624262175.0,32.000000
-18,48,37,1624262175.0,32.000000
-16,49,38,1624262175.0,32.000000
-16,49,38,1624262175.0,32.000000
-16,49,38,1624262175.0,32.000000
-15,49,37,1624262175.0,32.000000
-14,49,36,1624262175.0,32.000000
-13,50,37,1624262175.0,32.000000
-13,50,37,1624262175.0,32.000000
-12,49,37,1624262175.0,32.000000
-13,49,37,1624262175.0,32.000000
-13,50,38,1624262175.0,32.000000
-13,49,38,1624262175.0,32.000000
-13,50,38,1624262175.0,32.000000
-11,50,38,1624262175.0,32.000000
-8,49,40,1624262175.0,32.000000
-8,49,40,1624262175.0,32.000000
-10,50,39,1624262175.0,32.000000
-12,50,38,1624262175.0,32.000000
-12,50,38,1624262175.0,32.000000
-8,50,40,1624262175.0,32.000000
-8,49,40,1624262175.0,32.000000
-8,50,39,1624262175.0,32.000000
-7,49,39,1624262175.0,32.000000
-6,50,40,1624262175.0,32.000000
-7,50,40,1624262175.0,32.000000
-3,50,41,1624262175.0,32.000000
-6,50,40,1624262175.0,32.000000
-5,50,40,1624262175.0,32.000000
-4,50,40,1624262175.0,32.000000
-4,50,39,1624262175.0,32.000000
-3,50,39,1624262175.0,32.000000
-1,49,39,1624262175.0,32.000000
-2,50,39,1624262175.0,32.000000
-1,51,39,1624262175.0,32.000000
-1,50,39,1624262175.0,32.000000
-3,51,39,1624262175.0,32.000000
1,52,40,1624262175.0,32.000000
1,51,38,1624262175.0,32.000000
0,50,39,1624262175.0,32.000000
2,50,40,1624262175.0,32.000000
1,50,39,1624262175.0,32.000000
0,50,39,1624262175.0,32.000000
2,49,39,1624262175.0,32.000000
1,49,38,1624262175.0,32.000000
0,49,38,1624262175.0,32.000000
3,49,39,1624262175.0,32.000000
4,48,40,1624262175.0,32.000000
0,49,39,1624262175.0,32.000000
1,49,39,1624262175.0,32.000000
3,49,41,1624262175.0,32.000000
0,49,41,1624262175.0,32.000000
0,49,42,1624262175.0,32.000000
-1,48,42,1624262175.0,32.000000
-3,48,42,1624262175.0,32.000000
-1,48,43,1624262175.0,32.000000
-5,47,43,1624262175.0,32.000000
-6,47,42,1624262175.0,32.000000
-5,46,44,1624262175.0,32.000000
-8,45,44,1624262175.0,32.000000
-7,44,44,1624262175.0,32.000000
-3,43,47,1624262175.0,32.000000
-3,43,48,1624262175.0,32.000000
-5,42,47,1624262175.0,32.000000
-10,40,45,1624262175.0,32.000000
-12,40,46,1624262175.0,32.000000
-14,39,47,1624262175.0,32.000000
-18,39,44,1624262175.0,32.000000
-24,39,40,1624262175.0,32.000000
-29,39,38,1624262175.0,32.000000
-27,39,40,1624262175.0,32.000000
-32,38,34,1624262175.0,32.000000
-34,36,37,1624262175.0,32.000000
-35,35,39,1624262175.0,32.000000
-39,33,38,1624262175.0,32.000000
-41,31,39,1624262175.0,32.000000
-42,30,37,1624262175.0,32.000000
-45,27,36,1624262175.0,32.000000
-45,26,35,1624262175.0,32.000000
-51,24,34,1624262175.0,32.000000
-49,24,33,1624262175.0,32.000000
-48,21,35,1624262175.0,32.000000
-52,17,34,1624262175.0,32.000000
-53,16,31,1624262175.0,32.000000
-52,12,30,1624262175.0,32.000000
-57,12,28,1624262175.0,32.000000
-55,10,29,1624262175.0,32.000000
-53,10,32,1624262175.0,32.000000
-55,8,33,1624262175.0,32.000000
-49,7,38,1624262175.0,32.000000
-52,5,37,1624262175.0,32.000000
-53,4,36,1624262175.0,32.000000
-53,3,35,1624262175.0,32.000000
-54,1,36,1624262175.0,32.000000
-53,2,35,1624262175.0,32.000000
-54,-1,34,1624262175.0,32.000000
-55,-2,33,1624262175.0,32.000000
-58,2,31,1624262175.0,32.000000
-60,3,33,1624262175.0,32.000000
-57,2,35,1624262175.0,32.000000
-55,0,34,1624262175.0,32.000000
-55,0,33,1624262175.0,32.000000
-54,1,33,1624262175.0,32.000000
-54,0,32,1624262175.0,32.000000
-54,0,31,1624262175.0,32.000000
-53,0,31,1624262175.0,32.000000
-53,0,31,1624262175.0,32.000000
-54,-1,32,1624262175.0,32.000000
-54,-3,37,1624262175.0,32.000000
-60,-1,29,1624262175.0,32.000000
-58,-1,32,1624262175.0,32.000000
-54,-1,31,1624262175.0,32.000000
-53,0,33,1624262175.0,32.000000
-52,-1,35,1624262175.0,32.000000
-51,-1,34,1624262175.0,32.000000
-48,0,39,1624262175.0,32.000000
-56,-1,35,1624262175.0,32.000000
-56,-1,34,1624262175.0,32.000000
-56,-3,37,1624262175.0,32.000000
-54,-4,37,1624262175.0,32.000000
-51,-3,37,1624262175.0,32.000000
-52,-6,38,1624262175.0,32.000000
-54,-6,39,1624262175.0,32.000000
-53,-6,40,1624262175.0,32.000000
-54,-5,36,1624262175.0,32.000000
-53,-4,36,1624262175.0,32.000000
-53,-4,37,1624262175.0,32.000000
-53,-5,36,1624262175.0,32.000000
-53,-2,33,1624262175.0,32.000000
-52,1,32,1624262175.0,32.000000
-53,2,34,1624262175.0,32.000000
-55,3,33,1624262175.0,32.000000
-55,4,31,1624262175.0,32.000000
-58,5,30,1624262175.0,32.000000
-66,3,25,1624262175.0,32.000000
-68,3,22,1624262175.0,32.000000
-64,5,19,1624262175.0,32.000000
-63,11,12,1624262175.0,32.000000
-65,16,9,1624262175.0,32.000000
-60,21,12,1624262175.0,32.000000
-55,25,14,1624262175.0,32.000000
-51,29,15,1624262175.0,32.000000
-45,30,16,1624262175.0,32.000000
-42,30,15,1624262175.0,32.000000
-35,35,7,1624262175.0,32.000000
-32,35,5,1624262175.0,32.000000
-31,36,16,1624262175.0,32.000000
-27,40,22,1624262175.0,32.000000
-27,38,27,1624262175.0,32.000000
-30,39,39,1624262175.0,32.000000
-28,38,36,1624262175.0,32.000000
-29,34,42,1624262175.0,32.000000
-25,35,41,1624262175.0,32.000000
-26,29,32,1624262175.0,32.000000
-37,17,61,1624262175.0,32.000000
-19,22,61,1624262175.0,32.000000
-12,20,60,1624262175.0,32.000000
-36,16,47,1624262175.0,32.000000
-54,15,38,1624262175.0,32.000000
-67,15,37,1624262175.0,32.000000
-46,19,53,1624262175.0,32.000000
-47,16,46,1624262175.0,32.000000
-56,15,43,1624262175.0,32.000000
-50,12,42,1624262175.0,32.000000
-75,10,29,1624262175.0,32.000000
-64,5,31,1624262175.0,32.000000
-61,9,41,1624262175.0,32.000000
-64,5,39,1624262175.0,32.000000
-44,-1,30,1624262175.0,32.000000
-27,1,43,1624262175.0,32.000000
-33,6,32,1624262175.0,32.000000
-32,6,33,1624262175.0,32.000000
-37,-5,41,1624262175.0,32.000000
-32,-21,52,1624262175.0,32.000000
-67,-22,48,1624262175.0,32.000000
-48,-2,53,1624262175.0,32.000000
-42,0,58,1624262175.0,32.000000
-49,1,51,1624262175.0,32.000000
-57,4,41,1624262175.0,32.000000
-53,2,41,1624262175.0,32.000000
-54,0,41,1624262175.0,32.000000
-52,-6,37,1624262175.0,32.000000
-48,-6,38,1624262175.0,32.000000
-48,-2,40,1624262175.0,32.000000
-47,-1,42,1624262175.0,32.000000
-47,0,42,1624262175.0,32.000000
-47,-1,41,1624262175.0,32.000000
-48,-3,41,1624262175.0,32.000000
-49,-4,40,1624262175.0,32.000000
-51,-4,39,1624262175.0,32.000000
-52,-4,38,1624262175.0,32.000000
-51,-4,38,1624262175.0,32.000000
-49,-3,40,1624262175.0,32.000000
-48,-1,40,1624262175.0,32.000000
-49,-1,40,1624262175.0,32.000000
-49,-1,40,1624262175.0,32.000000
-49,-2,39,1624262175.0,32.000000
-51,-2,40,1624262175.0,32.000000
-51,-2,39,1624262175.0,32.000000
-52,-2,37,1624262175.0,32.000000
-51,-2,37,1624262175.0,32.000000
-47,-3,37,1624262175.0,32.000000
-48,-2,37,1624262175.0,32.000000
-48,-1,38,1624262175.0,32.000000
-50,0,40,1624262175.0,32.000000
-51,1,41,1624262175.0,32.000000
-49,0,40,1624262175.0,32.000000
-49,0,39,1624262175.0,32.000000
-50,0,39,1624262175.0,32.000000
-50,-1,40,1624262175.0,32.000000
-51,0,41,1624262175.0,32.000000
-49,1,41,1624262175.0,32.000000
-50,0,39,1624262175.0,32.000000
-49,0,40,1624262175.0,32.000000
-49,0,39,1624262175.0,32.000000
-49,0,38,1624262175.0,32.000000
-50,0,39,1624262175.0,32.000000
-49,-1,40,1624262175.0,32.000000
-48,-1,41,1624262175.0,32.000000
-48,-1,41,1624262175.0,32.000000
-48,-1,41,1624262175.0,32.000000
-49,0,42,1624262175.0,32.000000
-48,0,41,1624262175.0,32.000000
-47,0,41,1624262175.0,32.000000
-47,1,41,1624262175.0,32.000000
-47,2,41,1624262175.0,32.000000
-46,1,41,1624262175.0,32.000000
-47,0,42,1624262175.0,32.000000
-47,-1,42,1624262175.0,32.000000
-48,-1,42,1624262175.0,32.000000
-46,0,43,1624262175.0,32.000000
-46,0,42,1624262175.0,32.000000
-47,-1,41,1624262175.0,32.000000
-48,-3,41,1624262175.0,32.000000
-49,-4,40,1624262175.0,32.000000
-49,-3,40,1624262175.0,32.000000
-48,-3,40,1624262175.0,32.000000
-48,-3,41,1624262175.0,32.000000
-48,-2,41,1624262175.0,32.000000
-48,-2,41,1624262175.0,32.000000
-48,-3,41,1624262175.0,32.000000
-48,-2,40,1624262175.0,32.000000
-49,-3,39,1624262175.0,32.000000
-50,-3,40,1624262175.0,32.000000
-49,-2,40,1624262175.0,32.000000
-49,-2,40,1624262175.0,32.000000
-48,-2,42,1624262175.0,32.000000
-49,-2,42,1624262175.0,32.000000
-48,0,40,1624262175.0,32.000000
-47,1,40,1624262175.0,32.000000
-49,-1,37,1624262175.0,32.000000
-50,-2,39,1624262175.0,32.000000
-49,-3,40,1624262175.0,32.000000
-50,-2,40,1624262175.0,32.000000
-49,-1,40,1624262175.0,32.000000
-48,-1,39,1624262175.0,32.000000
-49,-2,39,1624262175.0,32.000000
-50,-2,39,1624262175.0,32.000000
-50,-1,39,1624262175.0,32.000000
-50,0,39,1624262175.0,32.000000
-50,-1,39,1624262175.0,32.000000
-50,-1,39,1624262175.0,32.000000
-50,-1,39,1624262175.0,32.000000
-49,0,40,1624262175.0,32.000000
-50,0,39,1624262175.0,32.000000
-49,0,39,1624262175.0,32.000000
-49,0,38,1624262175.0,32.000000
-49,1,39,1624262175.0,32.000000
-50,1,39,1624262175.0,32.000000
-49,1,39,1624262175.0,32.000000
-49,-1,39,1624262175.0,32.000000
-50,-1,39,1624262175.0,32.000000
-48,-1,39,1624262175.0,32.000000
-49,0,38,1624262175.0,32.000000
-48,-1,39,1624262175.0,32.000000
-52,-1,39,1624262175.0,32.000000
-50,-1,39,1624262175.0,32.000000
-49,-1,39,1624262175.0,32.000000
-49,-1,40,1624262175.0,32.000000
-49,0,40,1624262175.0,32.000000
-49,0,40,1624262175.0,32.000000
-49,-1,39,1624262175.0,32.000000
-50,-1,39,1624262175.0,32.000000
-51,-1,39,1624262175.0,32.000000
-50,-2,39,1624262175.0,32.000000
-50,-2,39,1624262175.0,32.000000
-49,-2,39,1624262175.0,32.000000
-49,-3,39,1624262175.0,32.000000
-49,-3,39,1624262175.0,32.000000
-50,-3,39,1624262175.0,32.000000
-49,-4,39,1624262175.0,32.000000
-50,-4,39,1624262175.0,32.000000
-50,-4,40,1624262175.0,32.000000
-50,-4,39,1624262175.0,32.000000
-50,-4,39,1624262175.0,32.000000
-49,-4,39,1624262175.0,32.000000
-49,-4,39,1624262175.0,32.000000
-50,-4,39,1624262175.0,32.000000
-49,-3,39,1624262175.0,32.000000
-48,-3,39,1624262175.0,32.000000
-50,-3,39,1624262175.0,32.000000
-50,-3,39,1624262175.0,32.000000
-49,-2,39,1624262175.0,32.000000
-49,-2,39,1624262175.0,32.000000
-49,-2,39,1624262175.0,32.000000
-51,-3,39,1624262175.0,32.000000
-50,-3,39,1624262175.0,32.000000
-50,-3,39,1624262175.0,32.000000
-50,-3,39,1624262175.0,32.000000
-50,-3,39,1624262175.0,32.000000
-49,-3,39,1624262175.0,32.000000
-49,-2,39,1624262175.0,32.000000
-49,-2,39,1624262175.0,32.000000
-50,-2,38,1624262175.0,32.000000
-50,-2,39,1624262175.0,32.000000
-50,-2,39,1624262175.0,32.000000
-50,-2,38,1624262175.0,32.000000
-50,-2,38,1624262175.0,32.000000
-50,-2,38,1624262175.0,32.000000
-50,-1,38,1624262175.0,32.000000
-50,-1,38,1624262175.0,32.000000
-50,-1,38,1624262175.0,32.000000
-51,-1,38,1624262175.0,32.000000
-50,-1,39,1624262175.0,32.000000
-50,0,39,1624262175.0,32.000000
-51,0,38,1624262175.0,32.000000
-51,0,38,1624262175.0,32.000000
-51,-1,38,1624262175.0,32.000000
-52,-2,36,1624262175.0,32.000000
-52,-2,35,1624262175.0,32.000000
-52,-2,35,1624262175.0,32.000000
-52,-1,36,1624262175.0,32.000000
-51,-1,36,1624262175.0,32.000000
-52,-1,36,1624262175.0,32.000000
-52,-1,36,1624262175.0,32.000000
-52,-1,36,1624262175.0,32.000000
-52,-1,36,1624262175.0,32.000000
-52,-1,36,1624262175.0,32.000000
-52,-2,36,1624262175.0,32.000000
-52,-2,36,1624262175.0,32.000000
-51,-2,36,1624262175.0,32.000000
-52,-2,37,1624262175.0,32.000000
-51,-2,36,1624262175.0,32.000000
-52,-2,36,1624262175.0,32.000000
-52,-2,36,1624262175.0,32.000000
-52,-2,36,1624262175.0,32.000000
-52,-2,35,1624262175.0,32.000000
-56,-11,33,1624262175.0,32.000000
-49,2,36,1624262175.0,32.000000
-52,-6,36,1624262175.0,32.000000
-53,-7,37,1624262175.0,32.000000
-52,-3,37,1624262175.0,32.000000
-51,-8,37,1624262175.0,32.000000
-52,-4,36,1624262175.0,32.000000
-51,-3,37,1624262175.0,32.000000
-52,-3,36,1624262175.0,32.000000
-51,-3,36,1624262175.0,32.000000
-51,-9,37,1624262175.0,32.000000
-52,-4,37,1624262175.0,32.000000
-53,-8,35,1624262175.0,32.000000
-52,1,36,1624262175.0,32.000000
-51,-5,35,1624262175.0,32.000000
-52,-2,35,1624262175.0,32.000000
-52,-3,36,1624262175.0,32.000000
-52,-2,36,1624262175.0,32.000000
-52,-2,36,1624262175.0,32.000000
-51,-2,37,1624262175.0,32.000000
-51,-2,37,1624262175.0,32.000000
-52,-3,36,1624262175.0,32.000000
-52,-3,36,1624262175.0,32.000000
-53,-2,36,1624262175.0,32.000000
-53,-2,35,1624262175.0,32.000000
-55,-1,34,1624262175.0,32.000000
-59,-3,31,1624262175.0,32.000000
-61,-3,31,1624262175.0,32.000000
-55,-3,33,1624262175.0,32.000000
-46,-1,39,1624262175.0,32.000000
-38,0,46,1624262175.0,32.000000
-46,3,48,1624262175.0,32.000000
-37,3,52,1624262175.0,32.000000
-32,0,53,1624262175.0,32.000000
-34,0,51,1624262175.0,32.000000
-34,1,52,1624262175.0,32.000000
-29,1,55,1624262175.0,32.000000
-28,1,56,1624262175.0,32.000000
-24,1,57,1624262175.0,32.000000
-25,1,57,1624262175.0,32.000000
-23,0,57,1624262175.0,32.000000
-24,1,58,1624262175.0,32.000000
-17,2,59,1624262175.0,32.000000
-19,1,59,1624262175.0,32.000000
-19,-1,60,1624262175.0,32.000000
-16,-1,59,1624262175.0,32.000000
-26,1,57,1624262175.0,32.000000
-20,0,61,1624262175.0,32.000000
-19,0,61,1624262175.0,32.000000
-21,-3,60,1624262175.0,32.000000
-26,0,58,1624262175.0,32.000000
-26,1,58,1624262175.0,32.000000
-29,-1,59,1624262175.0,32.000000
-40,0,53,1624262175.0,32.000000
-37,2,54,1624262175.0,32.000000
-34,3,58,1624262175.0,32.000000
-41,6,48,1624262175.0,32.000000
-52,5,44,1624262175.0,32.000000
-45,6,46,1624262175.0,32.000000
-47,4,48,1624262175.0,32.000000
-35,1,46,1624262175.0,32.000000
-38,2,42,1624262175.0,32.000000
-35,1,47,1624262175.0,32.000000
-38,2,48,1624262175.0,32.000000
-39,5,46,1624262175.0,32.000000
-43,7,48,1624262175.0,32.000000
-43,6,50,1624262175.0,32.000000
-45,5,55,1624262175.0,32.000000
-39,5,58,1624262175.0,32.000000
-28,3,54,1624262175.0,32.000000
-36,3,45,1624262175.0,32.000000
-37,6,47,1624262175.0,32.000000
-33,8,54,1624262175.0,32.000000
-40,6,51,1624262175.0,32.000000
-43,5,50,1624262175.0,32.000000
-35,6,52,1624262175.0,32.000000
-33,7,52,1624262175.0,32.000000
-32,7,52,1624262175.0,32.000000
-36,7,57,1624262175.0,32.000000
-40,8,56,1624262175.0,32.000000
-34,8,49,1624262175.0,32.000000
-51,8,38,1624262175.0,32.000000
-54,8,36,1624262175.0,32.000000
-47,7,35,1624262175.0,32.000000
-47,9,37,1624262175.0,32.000000
-52,10,32,1624262175.0,32.000000
-52,9,33,1624262175.0,32.000000
-40,10,45,1624262175.0,32.000000
-33,12,57,1624262175.0,32.000000
-23,10,65,1624262175.0,32.000000
-21,6,60,1624262175.0,32.000000
-30,9,59,1624262175.0,32.000000
-33,10,59,1624262175.0,32.000000
-42,11,60,1624262175.0,32.000000
-59,9,52,1624262175.0,32.000000
-62,10,52,1624262175.0,32.000000
-47,13,50,1624262175.0,32.000000
-44,19,48,1624262175.0,32.000000
-50,20,45,1624262175.0,32.000000
-65,20,40,1624262175.0,32.000000
-57,16,37,1624262175.0,32.000000
-37,22,38,1624262175.0,32.000000
-28,25,41,1624262175.0,32.000000
-24,34,46,1624262175.0,32.000000
-15,35,49,1624262175.0,32.000000
-10,31,48,1624262175.0,32.000000
-21,25,45,1624262175.0,32.000000
-20,23,48,1624262175.0,32.000000
-21,18,53,1624262175.0,32.000000
-13,18,47,1624262175.0,32.000000
-11,20,49,1624262175.0,32.000000
-7,22,55,1624262175.0,32.000000
-14,21,51,1624262175.0,32.000000
-15,20,49,1624262175.0,32.000000
-15,20,47,1624262175.0,32.000000
-15,20,49,1624262175.0,32.000000
-21,17,54,1624262175.0,32.000000
-31,15,55,1624262175.0,32.000000
-23,13,60,1624262175.0,32.000000
-36,11,50,1624262175.0,32.000000
-46,12,43,1624262175.0,32.000000
-23,15,59,1624262175.0,32.000000
-6,22,63,1624262175.0,32.000000
0,22,69,1624262175.0,32.000000
-3,20,68,1624262175.0,32.000000
-8,19,62,1624262175.0,32.000000
-16,18,57,1624262175.0,32.000000
-21,14,58,1624262175.0,32.000000
-28,12,53,1624262175.0,32.000000
-47,15,35,1624262175.0,32.000000
-28,12,50,1624262175.0,32.000000
-27,14,55,1624262175.0,32.000000
-14,15,63,1624262175.0,32.000000
-13,15,61,1624262175.0,32.000000
-14,20,59,1624262175.0,32.000000
-5,16,66,1624262175.0,32.000000
-18,19,61,1624262175.0,32.000000
-29,18,58,1624262175.0,32.000000
-20,15,60,1624262175.0,32.000000
-27,18,57,1624262175.0,32.000000
-31,14,45,1624262175.0,32.000000
-23,13,53,1624262175.0,32.000000
-22,12,57,1624262175.0,32.000000
-20,13,58,1624262175.0,32.000000
-17,13,58,1624262175.0,32.000000
-13,16,61,1624262175.0,32.000000
-12,18,65,1624262175.0,32.000000
-23,21,60,1624262175.0,32.000000
-22,20,56,1624262175.0,32.000000
-17,20,58,1624262175.0,32.000000
-21,16,58,1624262175.0,32.000000
-31,18,53,1624262175.0,32.000000
-31,16,43,1624262175.0,32.000000
-24,18,50,1624262175.0,32.000000
-22,16,53,1624262175.0,32.000000
-14,17,60,1624262175.0,32.000000
-17,17,61,1624262175.0,32.000000
-6,19,68,1624262175.0,32.000000
-4,18,67,1624262175.0,32.000000
-15,18,62,1624262175.0,32.000000
-27,23,59,1624262175.0,32.000000
-14,17,59,1624262175.0,32.000000
-23,14,56,1624262175.0,32.000000
-46,16,39,1624262175.0,32.000000
-30,13,46,1624262175.0,32.000000
-19,14,54,1624262175.0,32.000000
-12,15,62,1624262175.0,32.000000
-12,16,61,1624262175.0,32.000000
-9,18,63,1624262175.0,32.000000
-7,19,62,1624262175.0,32.000000
-10,19,61,1624262175.0,32.000000
-24,20,61,1624262175.0,32.000000
-29,21,56,1624262175.0,32.000000
-16,18,58,1624262175.0,32.000000
-29,14,54,1624262175.0,32.000000
-40,17,46,1624262175.0,32.000000
-22,14,51,1624262175.0,32.000000
-15,14,57,1624262175.0,32.000000
-10,14,62,1624262175.0,32.000000
-8,15,63,1624262175.0,32.000000
-3,17,67,1624262175.0,32.000000
-9,17,62,1624262175.0,32.000000
-20,17,58,1624262175.0,32.000000
-19,15,62,1624262175.0,32.000000
-17,14,63,1624262175.0,32.000000
-19,12,61,1624262175.0,32.000000
-12,11,63,1624262175.0,32.000000
-14,12,56,1624262175.0,32.000000
-17,15,53,1624262175.0,32.000000
-17,15,50,1624262175.0,32.000000
-18,19,48,1624262175.0,32.000000
-17,21,45,1624262175.0,32.000000
-22,25,42,1624262175.0,32.000000
-25,27,42,1624262175.0,32.000000
-26,27,40,1624262175.0,32.000000
-34,27,37,1624262175.0,32.000000
-38,26,36,1624262175.0,32.000000
-43,28,38,1624262175.0,32.000000
-43,28,39,1624262175.0,32.000000
-46,26,40,1624262175.0,32.000000
-50,25,43,1624262175.0,32.000000
-50,24,46,1624262175.0,32.000000
-49,24,48,1624262175.0,32.000000
-50,23,47,1624262175.0,32.000000
-76,43,52,1624262175.0,32.000000
-43,29,51,1624262175.0,32.000000
-35,27,52,1624262175.0,32.000000
-44,22,39,1624262175.0,32.000000
-42,19,40,1624262175.0,32.000000
-42,19,41,1624262175.0,32.000000
-46,20,44,1624262175.0,32.000000
-46,21,46,1624262175.0,32.000000
-43,25,47,1624262175.0,32.000000
-46,27,42,1624262175.0,32.000000
-46,26,41,1624262175.0,32.000000
-40,26,46,1624262175.0,32.000000
-39,26,46,1624262175.0,32.000000
-35,23,42,1624262175.0,32.000000
-32,21,45,1624262175.0,32.000000
-24,19,53,1624262175.0,32.000000
-20,13,58,1624262175.0,32.000000
-21,7,56,1624262175.0,32.000000
-19,5,59,1624262175.0,32.000000
-17,2,60,1624262175.0,32.000000
-17,0,60,1624262175.0,32.000000
-16,0,60,1624262175.0,32.000000
-13,1,62,1624262175.0,32.000000
-10,1,63,1624262175.0,32.000000
-10,3,63,1624262175.0,32.000000
-10,3,63,1624262175.0,32.000000
4,14,53,1624262175.0,32.000000
5,7,64,1624262175.0,32.000000
-1,6,73,1624262175.0,32.000000
-16,-19,64,1624262175.0,32.000000
13,-2,55,1624262175.0,32.000000
9,22,75,1624262175.0,32.000000
8,39,68,1624262175.0,32.000000
11,51,65,1624262175.0,32.000000
-6,-42,61,1624262175.0,32.000000
-3,-39,59,1624262175.0,32.000000
-2,-45,54,1624262175.0,32.000000
9,67,63,1624262175.0,32.000000
-3,36,66,1624262175.0,32.000000
1,38,68,1624262175.0,32.000000
-6,-28,61,1624262175.0,32.000000
-7,-28,59,1624262175.0,32.000000
-2,-10,55,1624262175.0,32.000000
8,58,68,1624262175.0,32.000000
6,51,68,1624262175.0,32.000000
9,-62,63,1624262175.0,32.000000
12,-36,69,1624262175.0,32.000000
-25,5,38,1624262175.0,32.000000
-20,12,55,1624262175.0,32.000000
-6,-6,61,1624262175.0,32.000000
-17,14,61,1624262175.0,32.000000
-19,8,62,1624262175.0,32.000000
-26,7,59,1624262175.0,32.000000
-23,5,58,1624262175.0,32.000000
-23,5,60,1624262175.0,32.000000
-27,9,57,1624262175.0,32.000000
-32,8,54,1624262175.0,32.000000
-32,10,51,1624262175.0,32.000000
-35,18,45,1624262175.0,32.000000
-38,18,43,1624262175.0,32.000000
-42,19,40,1624262175.0,32.000000
-42,25,40,1624262175.0,32.000000
-42,25,41,1624262175.0,32.000000
-43,24,41,1624262175.0,32.000000
-42,24,40,1624262175.0,32.000000
-39,34,38,1624262175.0,32.000000
-55,32,47,1624262175.0,32.000000
-50,26,50,1624262175.0,32.000000
-37,15,44,1624262175.0,32.000000
-40,22,43,1624262175.0,32.000000
-42,21,43,1624262175.0,32.000000
-37,19,42,1624262175.0,32.000000
-37,18,43,1624262175.0,32.000000
-38,19,45,1624262175.0,32.000000
-41,19,44,1624262175.0,32.000000
-41,17,41,1624262175.0,32.000000
-42,18,39,1624262175.0,32.000000
-44,19,37,1624262175.0,32.000000
-52,17,37,1624262175.0,32.000000
-47,18,38,1624262175.0,32.000000
-46,18,35,1624262175.0,32.000000
-52,18,47,1624262175.0,32.000000
-55,20,51,1624262175.0,32.000000
-43,17,48,1624262175.0,32.000000
-44,15,36,1624262175.0,32.000000
-44,13,37,1624262175.0,32.000000
-44,16,38,1624262175.0,32.000000
-43,16,36,1624262175.0,32.000000
-54,32,41,1624262175.0,32.000000
-48,8,40,1624262175.0,32.000000
-45,15,43,1624262175.0,32.000000
-44,15,44,1624262175.0,32.000000
-43,15,43,1624262175.0,32.000000
-43,12,42,1624262175.0,32.000000
-42,8,46,1624262175.0,32.000000
-43,8,47,1624262175.0,32.000000
-43,8,46,1624262175.0,32.000000
-45,8,45,1624262175.0,32.000000
-44,6,46,1624262175.0,32.000000
-43,7,46,1624262175.0,32.000000
-43,6,47,1624262175.0,32.000000
-42,7,47,1624262175.0,32.000000
-43,6,46,1624262175.0,32.000000
-43,6,46,1624262175.0,32.000000
-44,6,46,1624262175.0,32.000000
-43,6,46,1624262175.0,32.000000
-45,5,45,1624262175.0,32.000000
-43,5,46,1624262175.0,32.000000
-40,6,48,1624262175.0,32.000000
-40,7,49,1624262175.0,32.000000
-37,8,50,1624262175.0,32.000000
-36,8,51,1624262175.0,32.000000
-33,7,53,1624262175.0,32.000000
-30,8,55,1624262175.0,32.000000
-29,7,55,1624262175.0,32.000000
-28,7,55,1624262175.0,32.000000
-28,8,56,1624262175.0,32.000000
-30,9,55,1624262175.0,32.000000
-31,7,54,1624262175.0,32.000000
-31,7,54,1624262175.0,32.000000
-30,7,54,1624262175.0,32.000000
-30,7,55,1624262175.0,32.000000
-32,7,54,1624262175.0,32.000000
-31,8,55,1624262175.0,32.000000
-30,8,55,1624262175.0,32.000000
-30,8,55,1624262175.0,32.000000
-31,8,54,1624262175.0,32.000000
-33,8,54,1624262175.0,32.000000
-33,8,53,1624262175.0,32.000000
-34,8,53,1624262175.0,32.000000
-34,7,53,1624262175.0,32.000000
-34,7,53,1624262175.0,32.000000
-33,7,53,1624262175.0,32.000000
-33,8,53,1624262175.0,32.000000
-33,8,53,1624262175.0,32.000000
-32,8,53,1624262175.0,32.000000
-33,7,53,1624262175.0,32.000000
-32,10,54,1624262175.0,32.000000
-37,7,52,1624262175.0,32.000000
-32,8,55,1624262175.0,32.000000
-31,7,54,1624262175.0,32.000000
-32,7,54,1624262175.0,32.000000
-33,7,52,1624262175.0,32.000000
-34,7,53,1624262175.0,32.000000
-32,8,54,1624262175.0,32.000000
-32,8,53,1624262175.0,32.000000
-33,8,54,1624262175.0,32.000000
-33,8,53,1624262175.0,32.000000
-33,8,54,1624262175.0,32.000000
-33,8,53,1624262175.0,32.000000
-34,8,53,1624262175.0,32.000000
-33,8,52,1624262175.0,32.000000
-33,6,51,1624262175.0,32.000000
-32,10,54,1624262175.0,32.000000
-34,8,53,1624262175.0,32.000000
-34,7,53,1624262175.0,32.000000
-33,8,54,1624262175.0,32.000000
-32,8,54,1624262175.0,32.000000
-33,7,53,1624262175.0,32.000000
-34,7,52,1624262175.0,32.000000
-33,8,53,1624262175.0,32.000000
-33,8,53,1624262175.0,32.000000
-33,7,53,1624262175.0,32.000000
-34,7,53,1624262175.0,32.000000
-34,7,53,1624262175.0,32.000000
-33,8,54,1624262175.0,32.000000
-33,7,53,1624262175.0,32.000000
-33,7,53,1624262175.0,32.000000
-34,7,53,1624262175.0,32.000000
-33,8,53,1624262175.0,32.000000
-33,8,54,1624262175.0,32.000000
-33,7,53,1624262175.0,32.000000
-33,7,53,1624262175.0,32.000000
-34,7,53,1624262175.0,32.000000
-33,8,53,1624262175.0,32.000000
-33,7,53,1624262175.0,32.000000
-33,7,53,1624262175.0,32.000000
-33,7,53,1624262175.0,32.000000
-33,7,53,1624262175.0,32.000000
-34,8,53,1624262175.0,32.000000
-34,7,53,1624262175.0,32.000000
-34,7,53,1624262175.0,32.000000
-34,7,53,1624262175.0,32.000000
-33,7,53,1624262175.0,32.000000
-34,7,53,1624262175.0,32.000000
-33,7,53,1624262175.0,32.000000
-34,7,53,1624262175.0,32.000000
-34,7,53,1624262175.0,32.000000
-33,7,53,1624262175.0,32.000000
-34,7,53,1624262175.0,32.000000
-34,7,53,1624262175.0,32.000000
-34,7,53,1624262175.0,32.000000
-34,7,53,1624262175.0,32.000000
-34,7,53,1624262175.0,32.000000
-34,7,53,1624262175.0,32.000000
-33,7,53,1624262175.0,32.000000
-34,7,53,1624262175.0,32.000000
-34,7,53,1624262175.0,32.000000
-34,7,53,1624262175.0,32.000000
-34,7,53,1624262175.0,32.000000
-34,7,53,1624262175.0,32.000000
-34,7,52,1624262175.0,32.000000
-34,7,53,1624262175.0,32.000000
-33,7,53,1624262175.0,32.000000
-34,6,53,1624262175.0,32.000000
-35,7,52,1624262175.0,32.000000
-34,7,53,1624262175.0,32.000000
-34,7,53,1624262175.0,32.000000
-34,8,53,1624262175.0,32.000000
-34,7,53,1624262175.0,32.000000
-34,7,53,1624262175.0,32.000000
-34,7,53,1624262175.0,32.000000
-34,7,53,1624262175.0,32.000000
-35,7,52,1624262175.0,32.000000
-34,7,52,1624262175.0,32.000000
-33,7,53,1624262175.0,32.000000
-34,7,53,1624262175.0,32.000000
-34,7,53,1624262175.0,32.000000
-35,7,53,1624262175.0,32.000000
-34,6,52,1624262175.0,32.000000
-35,7,52,1624262175.0,32.000000
-35,7,52,1624262175.0,32.000000
-34,7,53,1624262175.0,32.000000
-34,7,53,1624262175.0,32.000000
-34,7,53,1624262175.0,32.000000
-35,7,53,1624262175.0,32.000000
-35,7,53,1624262175.0,32.000000
-34,7,52,1624262175.0,32.000000
-34,7,52,1624262175.0,32.000000
-34,7,52,1624262175.0,32.000000
-35,6,52,1624262175.0,32.000000
-35,6,52,1624262175.0,32.000000
-34,6,53,1624262175.0,32.000000
-34,7,52,1624262175.0,32.000000
-35,7,52,1624262175.0,32.000000
-35,8,53,1624262175.0,32.000000
-35,7,52,1624262175.0,32.000000
-34,6,53,1624262175.0,32.000000
-35,8,53,1624262175.0,32.000000
-35,7,52,1624262175.0,32.000000
-34,7,52,1624262175.0,32.000000
-33,7,53,1624262175.0,32.000000
-35,6,52,1624262175.0,32.000000
-35,5,52,1624262175.0,32.000000
-36,5,52,1624262175.0,32.000000
-36,5,52,1624262175.0,32.000000
-37,5,51,1624262175.0,32.000000
-36,6,51,1624262175.0,32.000000
-37,6,51,1624262175.0,32.000000
-36,7,51,1624262175.0,32.000000
-37,6,51,1624262175.0,32.000000
-37,6,51,1624262175.0,32.000000
-37,6,51,1624262175.0,32.000000
-37,6,51,1624262175.0,32.000000
-38,6,51,1624262175.0,32.000000
-38,6,50,1624262175.0,32.000000
-38,6,51,1624262175.0,32.000000
-38,6,51,1624262175.0,32.000000
-36,6,52,1624262175.0,32.000000
-36,6,52,1624262175.0,32.000000
-37,6,51,1624262175.0,32.000000
-37,6,50,1624262175.0,32.000000
-37,6,51,1624262175.0,32.000000
-39,6,49,1624262175.0,32.000000
-40,6,49,1624262175.0,32.000000
-38,6,50,1624262175.0,32.000000
-36,7,50,1624262175.0,32.000000
-36,6,52,1624262175.0,32.000000
-37,7,51,1624262175.0,32.000000
-37,6,50,1624262175.0,32.000000
-36,7,52,1624262175.0,32.000000
-35,8,52,1624262175.0,32.000000
-36,8,52,1624262175.0,32.000000
-39,6,49,1624262175.0,32.000000
-41,5,48,1624262175.0,32.000000
-39,5,50,1624262175.0,32.000000
-37,6,50,1624262175.0,32.000000
-38,7,50,1624262175.0,32.000000
-40,7,49,1624262175.0,32.000000
-38,7,50,1624262175.0,32.000000
-39,6,49,1624262175.0,32.000000
-39,6,49,1624262175.0,32.000000
-38,6,50,1624262175.0,32.000000
-39,6,49,1624262175.0,32.000000
-41,5,48,1624262175.0,32.000000
-39,5,49,1624262175.0,32.000000
-39,6,49,1624262175.0,32.000000
-38,7,50,1624262175.0,32.000000
-38,7,50,1624262175.0,32.000000
-39,6,49,1624262175.0,32.000000
-39,5,49,1624262175.0,32.000000
-39,6,49,1624262175.0,32.000000
-39,6,49,1624262175.0,32.000000
-39,6,49,1624262175.0,32.000000
-38,5,50,1624262175.0,32.000000
-40,5,48,1624262175.0,32.000000
-40,6,49,1624262175.0,32.000000
-39,6,49,1624262175.0,32.000000
-38,6,49,1624262175.0,32.000000
-37,8,50,1624262175.0,32.000000
-39,7,49,1624262175.0,32.000000
-40,6,49,1624262175.0,32.000000
-39,5,49,1624262175.0,32.000000
-39,5,49,1624262175.0,32.000000
-39,7,49,1624262175.0,32.000000
-39,7,49,1624262175.0,32.000000
-38,7,50,1624262175.0,32.000000
-38,6,50,1624262175.0,32.000000
-39,6,49,1624262175.0,32.000000
-39,6,49,1624262175.0,32.000000
-39,6,49,1624262175.0,32.000000
-41,6,48,1624262175.0,32.000000
-41,5,47,1624262175.0,32.000000
-39,7,49,1624262175.0,32.000000
-39,7,49,1624262175.0,32.000000
-39,7,50,1624262175.0,32.000000
-40,6,49,1624262175.0,32.000000
-39,6,49,1624262175.0,32.000000
-39,7,49,1624262175.0,32.000000
-39,6,49,1624262175.0,32.000000
-40,6,49,1624262175.0,32.000000
-39,6,49,1624262175.0,32.000000
-39,6,48,1624262175.0,32.000000
-40,6,48,1624262175.0,32.000000
-40,6,48,1624262175.0,32.000000
-38,7,50,1624262175.0,32.000000
-38,6,49,1624262175.0,32.000000
-39,6,49,1624262175.0,32.000000
-40,6,48,1624262175.0,32.000000
-40,6,49,1624262175.0,32.000000
-39,6,49,1624262175.0,32.000000
-40,6,49,1624262175.0,32.000000
-40,6,49,1624262175.0,32.000000
-39,6,49,1624262175.0,32.000000
-39,6,49,1624262175.0,32.000000
-39,6,48,1624262175.0,32.000000
-39,6,49,1624262175.0,32.000000
-39,6,49,1624262175.0,32.000000
-39,6,49,1624262175.0,32.000000
-41,6,49,1624262175.0,32.000000
-39,6,49,1624262175.0,32.000000
-39,6,49,1624262175.0,32.000000
-40,6,49,1624262175.0,32.000000
-40,6,49,1624262175.0,32.000000
-39,6,49,1624262175.0,32.000000
-39,6,49,1624262175.0,32.000000
-39,6,49,1624262175.0,32.000000
-39,6,49,1624262175.0,32.000000
-39,6,49,1624262175.0,32.000000
-39,6,49,1624262175.0,32.000000
-38,6,50,1624262175.0,32.000000
-39,6,49,1624262175.0,32.000000
-39,6,49,1624262175.0,32.000000
-39,6,49,1624262175.0,32.000000
-40,6,49,1624262175.0,32.000000
-39,6,49,1624262175.0,32.000000
-39,6,49,1624262175.0,32.000000
-39,6,49,1624262175.0,32.000000
-39,6,49,1624262175.0,32.000000
-39,6,49,1624262175.0,32.000000
-39,6,49,1624262175.0,32.000000
-39,6,49,1624262175.0,32.000000
-38,6,49,1624262175.0,32.000000
-39,6,49,1624262175.0,32.000000
-39,6,49,1624262175.0,32.000000
-39,6,49,1624262175.0,32.000000
-40,6,49,1624262175.0,32.000000
-38,6,50,1624262175.0,32.000000
-39,6,50,1624262175.0,32.000000
-39,6,49,1624262175.0,32.000000
-40,6,49,1624262175.0,32.000000
-39,7,49,1624262175.0,32.000000
-39,6,49,1624262175.0,32.000000
-39,6,49,1624262175.0,32.000000
-38,6,49,1624262175.0,32.000000
-39,6,48,1624262175.0,32.000000
-39,6,49,1624262175.0,32.000000
-39,7,49,1624262175.0,32.000000
-39,7,49,1624262175.0,32.000000
-39,6,49,1624262175.0,32.000000
-38,6,50,1624262175.0,32.000000
-39,6,49,1624262175.0,32.000000
-40,6,49,1624262175.0,32.000000
-39,6,49,1624262175.0,32.000000
-39,6,50,1624262175.0,32.000000
-39,6,49,1624262175.0,32.000000
-39,6,49,1624262175.0,32.000000
-39,6,49,1624262175.0,32.000000
-39,6,49,1624262175.0,32.000000
-39,6,49,1624262175.0,32.000000
-39,6,49,1624262175.0,32.000000
-39,6,49,1624262175.0,32.000000
-39,6,49,1624262175.0,32.000000
-40,6,49,1624262175.0,32.000000
-39,6,49,1624262175.0,32.000000
-39,7,50,1624262175.0,32.000000
-40,7,51,1624262175.0,32.000000
-40,5,47,1624262175.0,32.000000
-40,6,49,1624262175.0,32.000000
-38,7,50,1624262175.0,32.000000
-38,6,49,1624262175.0,32.000000
-38,6,49,1624262175.0,32.000000
-38,6,50,1624262175.0,32.000000
-39,7,49,1624262175.0,32.000000
-39,6,49,1624262175.0,32.000000
-39,6,49,1624262175.0,32.000000
-39,7,50,1624262175.0,32.000000
-39,7,49,1624262175.0,32.000000
-38,6,50,1624262175.0,32.000000
-39,7,50,1624262175.0,32.000000
-39,6,49,1624262175.0,32.000000
-38,6,49,1624262175.0,32.000000
-38,7,50,1624262175.0,32.000000
-38,7,50,1624262175.0,32.000000
-38,6,50,1624262175.0,32.000000
-39,6,49,1624262175.0,32.000000
-39,6,49,1624262175.0,32.000000
-39,6,49,1624262175.0,32.000000
-37,7,51,1624262175.0,32.000000
-37,7,51,1624262175.0,32.000000
-37,7,51,1624262175.0,32.000000
-37,6,50,1624262175.0,32.000000
-37,6,50,1624262175.0,32.000000
-37,6,50,1624262175.0,32.000000
-39,6,50,1624262175.0,32.000000
-38,6,50,1624262175.0,32.000000
-38,6,50,1624262175.0,32.000000
-39,6,49,1624262175.0,32.000000
-39,6,49,1624262175.0,32.000000
-39,6,49,1624262175.0,32.000000
-39,6,49,1624262175.0,32.000000
-39,6,49,1624262175.0,32.000000
-39,6,49,1624262175.0,32.000000
-38,6,50,1624262175.0,32.000000
-38,6,50,1624262175.0,32.000000
-38,6,50,1624262175.0,32.000000
-38,6,50,1624262175.0,32.000000
-38,6,50,1624262175.0,32.000000
-38,6,50,1624262175.0,32.000000
-38,6,50,1624262175.0,32.000000
-38,6,50,1624262175.0,32.000000
-37,6,50,1624262175.0,32.000000
-38,6,50,1624262175.0,32.000000
-38,6,50,1624262175.0,32.000000
-38,6,50,1624262175.0,32.000000
-38,6,50,1624262175.0,32.000000
-39,6,49,1624262175.0,32.000000
-38,6,50,1624262175.0,32.000000
-39,6,49,1624262175.0,32.000000
-40,6,49,1624262175.0,32.000000
-39,7,49,1624262175.0,32.000000
-38,6,50,1624262175.0,32.000000
-38,6,49,1624262175.0,32.000000
-39,6,49,1624262175.0,32.000000
-38,6,49,1624262175.0,32.000000
-38,6,50,1624262175.0,32.000000
-38,6,50,1624262175.0,32.000000
-38,6,50,1624262175.0,32.000000
-38,6,50,1624262175.0,32.000000
-38,6,50,1624262175.0,32.000000
-38,6,50,1624262175.0,32.000000
-39,6,50,1624262175.0,32.000000
-39,6,49,1624262175.0,32.000000
-39,6,49,1624262175.0,32.000000
-39,6,49,1624262175.0,32.000000
-39,6,50,1624262175.0,32.000000
-39,6,49,1624262175.0,32.000000
-39,6,49,1624262175.0,32.000000
-38,6,50,1624262175.0,32.000000
-37,6,50,1624262175.0,32.000000
-38,6,50,1624262175.0,32.000000
-38,6,50,1624262175.0,32.000000
-37,6,50,1624262175.0,32.000000
-38,6,50,1624262175.0,32.000000
-39,6,49,1624262175.0,32.000000
-38,6,50,1624262175.0,32.000000
-39,6,50,1624262175.0,32.000000
-39,6,49,1624262175.0,32.000000
-40,6,49,1624262175.0,32.000000
-39,6,49,1624262175.0,32.000000
-39,6,49,1624262175.0,32.000000
-36,5,44,1624262175.0,32.000000
-49,7,61,1624262175.0,32.000000
-25,5,53,1624262175.0,32.000000
-32,5,45,1624262175.0,32.000000
-38,7,52,1624262175.0,32.000000
-40,6,49,1624262175.0,32.000000
-39,6,49,1624262175.0,32.000000
-37,6,51,1624262175.0,32.000000
-37,6,49,1624262175.0,32.000000
-40,6,50,1624262175.0,32.000000
-39,6,49,1624262175.0,32.000000
-39,6,50,1624262175.0,32.000000
-38,6,49,1624262175.0,32.000000
-39,6,49,1624262175.0,32.000000
-39,6,49,1624262175.0,32.000000
-39,6,50,1624262175.0,32.000000
-39,6,49,1624262175.0,32.000000
-39,6,49,1624262175.0,32.000000
-40,6,49,1624262175.0,32.000000
-40,6,49,1624262175.0,32.000000
-39,6,49,1624262175.0,32.000000
-39,6,49,1624262175.0,32.000000
-39,6,49,1624262175.0,32.000000
-39,6,49,1624262175.0,32.000000
-39,6,49,1624262175.0,32.000000
-39,6,49,1624262175.0,32.000000
-39,6,49,1624262175.0,32.000000
-39,6,49,1624262175.0,32.000000
-39,6,49,1624262175.0,32.000000
-39,6,49,1624262175.0,32.000000
-39,6,49,1624262175.0,32.000000
-38,6,49,1624262175.0,32.000000
-39,6,49,1624262175.0,32.000000
-39,6,49,1624262175.0,32.000000
-39,6,49,1624262175.0,32.000000
-39,6,49,1624262175.0,32.000000
-39,6,50,1624262175.0,32.000000
-39,6,49,1624262175.0,32.000000
-39,6,49,1624262175.0,32.000000
-39,6,49,1624262175.0,32.000000
-39,6,49,1624262175.0,32.000000
-40,6,49,1624262175.0,32.000000
-39,6,49,1624262175.0,32.000000
-39,6,49,1624262175.0,32.000000
-38,6,51,1624262175.0,32.000000
-39,6,49,1624262175.0,32.000000
-39,6,49,1624262175.0,32.000000
-40,6,48,1624262175.0,32.000000
-40,5,49,1624262175.0,32.000000
-40,5,48,1624262175.0,32.000000
-41,5,48,1624262175.0,32.000000
-41,5,48,1624262175.0,32.000000
-40,6,48,1624262175.0,32.000000
-41,5,48,1624262175.0,32.000000
-41,5,48,1624262175.0,32.000000
-40,6,48,1624262175.0,32.000000
-40,5,48,1624262175.0,32.000000
-41,5,48,1624262175.0,32.000000
-41,5,48,1624262175.0,32.000000
-40,5,48,1624262175.0,32.000000
-41,5,48,1624262175.0,32.000000
-41,5,48,1624262175.0,32.000000
-41,5,48,1624262175.0,32.000000
-41,5,48,1624262175.0,32.000000
-41,6,48,1624262175.0,32.000000
-41,5,48,1624262175.0,32.000000
-41,5,48,1624262175.0,32.000000
-41,6,48,1624262175.0,32.000000
-40,5,48,1624262175.0,32.000000
-40,5,48,1624262175.0,32.000000
-41,5,48,1624262175.0,32.000000
-41,5,48,1624262175.0,32.000000
-41,5,48,1624262175.0,32.000000
-41,6,48,1624262175.0,32.000000
-41,6,48,1624262175.0,32.000000
-40,5,48,1624262175.0,32.000000
-41,6,48,1624262175.0,32.000000
-41,6,48,1624262175.0,32.000000
-40,5,48,1624262175.0,32.000000
-40,5,48,1624262175.0,32.000000
-41,6,48,1624262175.0,32.000000
-41,5,48,1624262175.0,32.000000
-41,6,48,1624262175.0,32.000000
-41,5,48,1624262175.0,32.000000
-40,5,48,1624262175.0,32.000000
-41,6,48,1624262175.0,32.000000
-41,5,48,1624262175.0,32.000000
-41,5,48,1624262175.0,32.000000
-41,5,48,1624262175.0,32.000000
-41,6,48,1624262175.0,32.000000
-41,5,48,1624262175.0,32.000000
-40,5,48,1624262175.0,32.000000
-41,5,48,1624262175.0,32.000000
-41,5,48,1624262175.0,32.000000
-41,5,48,1624262175.0,32.000000
-41,5,48,1624262175.0,32.000000
-40,5,48,1624262175.0,32.000000
-41,5,48,1624262175.0,32.000000
-41,5,48,1624262175.0,32.000000
-40,5,48,1624262175.0,32.000000
-40,5,48,1624262175.0,32.000000
-41,5,48,1624262175.0,32.000000
-41,5,48,1624262175.0,32.000000
-41,5,48,1624262175.0,32.000000
-41,5,48,1624262175.0,32.000000
-41,5,48,1624262175.0,32.000000
-41,5,48,1624262175.0,32.000000
-40,5,48,1624262175.0,32.000000
-41,5,48,1624262175.0,32.000000
-41,5,48,1624262175.0,32.000000
-41,5,48,1624262175.0,32.000000
-40,5,48,1624262175.0,32.000000
-40,5,48,1624262175.0,32.000000
-41,5,48,1624262175.0,32.000000
-41,6,48,1624262175.0,32.000000
-41,6,48,1624262175.0,32.000000
-41,6,48,1624262175.0,32.000000
-40,5,48,1624262175.0,32.000000
-40,6,48,1624262175.0,32.000000
-40,5,48,1624262175.0,32.000000
-40,5,48,1624262175.0,32.000000
-41,5,48,1624262175.0,32.000000
-41,5,48,1624262175.0,32.000000
-41,5,48,1624262175.0,32.000000
-41,5,48,1624262175.0,32.000000
-41,5,48,1624262175.0,32.000000
-41,5,48,1624262175.0,32.000000
-40,5,48,1624262175.0,32.000000
-40,5,48,1624262175.0,32.000000
-40,6,48,1624262175.0,32.000000
-40,5,48,1624262175.0,32.000000
-41,5,48,1624262175.0,32.000000
-41,5,48,1624262175.0,32.000000
-41,5,48,1624262175.0,32.000000
-41,5,48,1624262175.0,32.000000
-40,5,48,1624262175.0,32.000000
-41,5,48,1624262175.0,32.000000
-40,5,48,1624262175.0,32.000000
-40,6,48,1624262175.0,32.000000
-41,5,48,1624262175.0,32.000000
-41,5,48,1624262175.0,32.000000
-41,5,48,1624262175.0,32.000000
-41,6,48,1624262175.0,32.000000
-41,5,48,1624262175.0,32.000000
-41,5,48,1624262175.0,32.000000
-40,6,48,1624262175.0,32.000000
-40,5,48,1624262175.0,32.000000
-40,6,48,1624262175.0,32.000000
-41,5,48,1624262175.0,32.000000
-41,5,48,1624262175.0,32.000000
-41,5,48,1624262175.0,32.000000
-40,6,48,1624262175.0,32.000000
-41,5,48,1624262175.0,32.000000
-41,5,48,1624262175.0,32.000000
-41,6,48,1624262175.0,32.000000
-41,5,48,1624262175.0,32.000000
-41,5,48,1624262175.0,32.000000
-41,5,48,1624262175.0,32.000000
-40,6,48,1624262175.0,32.000000
-41,5,48,1624262175.0,32.000000
-41,5,48,1624262175.0,32.000000
-39,5,49,1624262175.0,32.000000
-40,5,48,1624262175.0,32.000000
-41,6,48,1624262175.0,32.000000
-40,5,48,1624262175.0,32.000000
-41,5,48,1624262175.0,32.000000
-41,5,48,1624262175.0,32.000000
-41,5,48,1624262175.0,32.000000
-41,5,48,1624262175.0,32.000000
-41,5,48,1624262175.0,32.000000
-41,5,48,1624262175.0,32.000000
-41,6,48,1624262175.0,32.000000
-40,6,48,1624262175.0,32.000000
-40,6,48,1624262175.0,32.000000
-40,5,48,1624262175.0,32.000000
-40,6,48,1624262175.0,32.000000
-40,5,48,1624262175.0,32.000000
-41,6,48,1624262175.0,32.000000
-41,5,48,1624262175.0,32.000000
-40,5,48,1624262175.0,32.000000
-41,6,48,1624262175.0,32.000000
-41,5,48,1624262175.0,32.000000
-40,6,48,1624262175.0,32.000000
-40,6,48,1624262175.0,32.000000
-41,6,48,1624262175.0,32.000000
-40,5,48,1624262175.0,32.000000
-40,5,48,1624262175.0,32.000000
-40,5,48,1624262175.0,32.000000
-40,6,49,1624262175.0,32.000000
-40,6,48,1624262175.0,32.000000
-41,5,48,1624262175.0,32.000000
-41,5,47,1624262175.0,32.000000
-42,6,47,1624262175.0,32.000000
-41,5,48,1624262175.0,32.000000
-41,5,48,1624262175.0,32.000000
-41,6,48,1624262175.0,32.000000
-40,6,48,1624262175.0,32.000000
-40,6,49,1624262175.0,32.000000
-40,5,48,1624262175.0,32.000000
-40,5,48,1624262175.0,32.000000
-40,5,48,1624262175.0,32.000000
-41,6,48,1624262175.0,32.000000
-41,5,48,1624262175.0,32.000000
-40,5,49,1624262175.0,32.000000
-40,6,49,1624262175.0,32.000000
-41,6,48,1624262175.0,32.000000
-41,6,48,1624262175.0,32.000000
-40,6,48,1624262175.0,32.000000
-41,5,48,1624262175.0,32.000000
-41,6,48,1624262175.0,32.000000
-40,5,48,1624262175.0,32.000000
-41,6,48,1624262175.0,32.000000
-40,6,48,1624262175.0,32.000000
-40,6,49,1624262175.0,32.000000
-40,5,48,1624262175.0,32.000000
-40,6,48,1624262175.0,32.000000
-41,6,48,1624262175.0,32.000000
-41,5,48,1624262175.0,32.000000
-40,5,48,1624262175.0,32.000000
-41,6,48,1624262175.0,32.000000
-41,5,48,1624262175.0,32.000000
-40,5,48,1624262175.0,32.000000
-41,6,48,1624262175.0,32.000000
-40,5,48,1624262175.0,32.000000
-40,6,49,1624262175.0,32.000000
-40,6,48,1624262175.0,32.000000
-40,6,48,1624262175.0,32.000000
-41,6,48,1624262175.0,32.000000
-40,6,48,1624262175.0,32.000000
-41,5,48,1624262175.0,32.000000
-41,5,48,1624262175.0,32.000000
-40,6,48,1624262175.0,32.000000
-40,6,49,1624262175.0,32.000000
-40,5,48,1624262175.0,32.000000
-40,5,48,1624262175.0,32.000000
-41,5,48,1624262175.0,32.000000
-41,6,48,1624262175.0,32.000000
-40,6,48,1624262175.0,32.000000
-41,5,48,1624262175.0,32.000000
-41,6,48,1624262175.0,32.000000
-41,5,48,1624262175.0,32.000000
-40,6,48,1624262175.0,32.000000
-40,6,49,1624262175.0,32.000000
-39,5,49,1624262175.0,32.000000
-40,5,49,1624262175.0,32.000000
-40,5,48,1624262175.0,32.000000
-39,5,49,1624262175.0,32.000000
-39,6,49,1624262175.0,32.000000
-39,6,49,1624262175.0,32.000000
-39,6,49,1624262175.0,32.000000
-40,6,49,1624262175.0,32.000000
-40,5,49,1624262175.0,32.000000
-39,5,49,1624262175.0,32.000000
-39,5,49,1624262175.0,32.000000
-40,6,49,1624262175.0,32.000000
-41,6,48,1624262175.0,32.000000
-41,6,48,1624262175.0,32.000000
-40,5,48,1624262175.0,32.000000
-40,5,48,1624262175.0,32.000000
-40,6,49,1624262175.0,32.000000
-40,6,48,1624262175.0,32.000000
-40,6,48,1624262175.0,32.000000
-40,5,48,1624262175.0,32.000000
-40,6,48,1624262175.0,32.000000
-40,5,48,1624262175.0,32.000000
-40,6,49,1624262175.0,32.000000
-40,6,48,1624262175.0,32.000000
-39,6,49,1624262175.0,32.000000
-40,5,49,1624262175.0,32.000000
-39,6,49,1624262175.0,32.000000
-39,6,49,1624262175.0,32.000000
-40,6,48,1624262175.0,32.000000
-39,6,49,1624262175.0,32.000000
-40,6,49,1624262175.0,32.000000
-40,6,49,1624262175.0,32.000000
-40,6,49,1624262175.0,32.000000
-40,6,49,1624262175.0,32.000000
-40,6,49,1624262175.0,32.000000
-40,6,49,1624262175.0,32.000000
-40,6,49,1624262175.0,32.000000
-40,6,49,1624262175.0,32.000000
-40,5,49,1624262175.0,32.000000
-40,5,48,1624262175.0,32.000000
-40,6,49,1624262175.0,32.000000
-40,6,49,1624262175.0,32.000000
-39,5,49,1624262175.0,32.000000
-40,6,48,1624262175.0,32.000000
-40,5,48,1624262175.0,32.000000
-40,5,49,1624262175.0,32.000000
-40,6,48,1624262175.0,32.000000
-40,6,48,1624262175.0,32.000000
-40,6,48,1624262175.0,32.000000
-40,6,49,1624262175.0,32.000000
-40,6,48,1624262175.0,32.000000
-40,6,48,1624262175.0,32.000000
-40,6,48,1624262175.0,32.000000
-40,6,49,1624262175.0,32.000000
-40,6,49,1624262175.0,32.000000
-41,6,48,1624262175.0,32.000000
-41,6,48,1624262175.0,32.000000
-40,6,48,1624262175.0,32.000000
-40,6,49,1624262175.0,32.000000
-40,6,48,1624262175.0,32.000000
-40,6,48,1624262175.0,32.000000
-40,6,48,1624262175.0,32.000000
-40,6,48,1624262175.0,32.000000
-40,6,48,1624262175.0,32.000000
-40,5,48,1624262175.0,32.000000
-40,6,48,1624262175.0,32.000000
-40,6,49,1624262175.0,32.000000
-40,6,48,1624262175.0,32.000000
-39,6,49,1624262175.0,32.000000
-40,6,48,1624262175.0,32.000000
-41,6,49,1624262175.0,32.000000
-40,6,49,1624262175.0,32.000000
-40,5,48,1624262175.0,32.000000
-40,6,48,1624262175.0,32.000000
-40,6,48,1624262175.0,32.000000
-40,6,48,1624262175.0,32.000000
-40,6,49,1624262175.0,32.000000
-40,6,49,1624262175.0,32.000000
-40,6,48,1624262175.0,32.000000
-40,6,48,1624262175.0,32.000000
-40,6,48,1624262175.0,32.000000
-40,5,48,1624262175.0,32.000000
-40,6,48,1624262175.0,32.000000
-40,6,49,1624262175.0,32.000000
-40,6,48,1624262175.0,32.000000
-40,6,49,1624262175.0,32.000000
-40,6,49,1624262175.0,32.000000
-40,6,49,1624262175.0,32.000000
-40,6,48,1624262175.0,32.000000
-40,6,49,1624262175.0,32.000000
-40,6,48,1624262175.0,32.000000
-40,6,49,1624262175.0,32.000000
-40,6,49,1624262175.0,32.000000
-40,6,49,1624262175.0,32.000000
-40,6,48,1624262175.0,32.000000
-40,6,49,1624262175.0,32.000000
-40,6,49,1624262175.0,32.000000
-40,5,49,1624262175.0,32.000000
-40,6,48,1624262175.0,32.000000
-40,6,48,1624262175.0,32.000000
-40,6,48,1624262175.0,32.000000
-40,6,48,1624262175.0,32.000000
-40,6,48,1624262175.0,32.000000
-40,6,48,1624262175.0,32.000000
-40,6,48,1624262175.0,32.000000
-40,6,48,1624262175.0,32.000000
-40,6,48,1624262175.0,32.000000
-40,6,49,1624262175.0,32.000000
-40,6,48,1624262175.0,32.000000
-40,6,49,1624262175.0,32.000000
-40,5,49,1624262175.0,32.000000
-40,5,48,1624262175.0,32.000000
-40,6,49,1624262175.0,32.000000
-40,6,49,1624262175.0,32.000000
-40,6,49,1624262175.0,32.000000
-40,6,49,1624262175.0,32.000000
-40,6,48,1624262175.0,32.000000
-40,6,49,1624262175.0,32.000000
-40,6,48,1624262175.0,32.000000
-40,6,48,1624262175.0,32.000000
-40,5,48,1624262175.0,32.000000
-40,6,48,1624262175.0,32.000000
-40,6,48,1624262175.0,32.000000
-40,6,49,1624262175.0,32.000000
-40,6,49,1624262175.0,32.000000
-40,6,49,1624262175.0,32.000000
-40,6,48,1624262175.0,32.000000
-40,6,49,1624262175.0,32.000000
-40,6,48,1624262175.0,32.000000
-40,6,49,1624262175.0,32.000000
-40,6,48,1624262175.0,32.000000
-40,6,48,1624262175.0,32.000000
-40,5,48,1624262175.0,32.000000
-40,6,48,1624262175.0,32.000000
-40,6,48,1624262175.0,32.000000
-40,6,49,1624262175.0,32.000000
-40,6,49,1624262175.0,32.000000
-40,6,49,1624262175.0,32.000000
-40,5,48,1624262175.0,32.000000
-40,6,49,1624262175.0,32.000000
-40,5,48,1624262175.0,32.000000
-40,6,49,1624262175.0,32.000000
-40,6,49,1624262175.0,32.000000
-40,6,48,1624262175.0,32.000000
-40,6,49,1624262175.0,32.000000
-40,6,49,1624262175.0,32.000000
-40,6,48,1624262175.0,32.000000
-40,5,48,1624262175.0,32.000000
-40,6,49,1624262175.0,32.000000
-40,6,49,1624262175.0,32.000000
-40,5,49,1624262175.0,32.000000
-40,6,49,1624262175.0,32.000000
-40,6,48,1624262175.0,32.000000
-40,6,49,1624262175.0,32.000000
-40,5,48,1624262175.0,32.000000
-40,6,49,1624262175.0,32.000000
-40,6,49,1624262175.0,32.000000
-40,6,49,1624262175.0,32.000000
-40,6,48,1624262175.0,32.000000
-40,6,48,1624262175.0,32.000000
-40,6,48,1624262175.0,32.000000
-40,6,49,1624262175.0,32.000000
-40,6,48,1624262175.0,32.000000
-40,5,49,1624262175.0,32.000000
-40,5,48,1624262175.0,32.000000
-40,6,48,1624262175.0,32.000000
-40,6,48,1624262175.0,32.000000
-40,6,49,1624262175.0,32.000000
-40,6,49,1624262175.0,32.000000
-40,6,49,1624262175.0,32.000000
-40,5,49,1624262175.0,32.000000
-40,6,48,1624262175.0,32.000000
-40,5,48,1624262175.0,32.000000
-40,6,48,1624262175.0,32.000000
-40,6,49,1624262175.0,32.000000
-40,6,48,1624262175.0,32.000000
-40,6,48,1624262175.0,32.000000
-40,6,49,1624262175.0,32.000000
-40,5,48,1624262175.0,32.000000
-40,5,48,1624262175.0,32.000000
-40,6,49,1624262175.0,32.000000
-40,6,49,1624262175.0,32.000000
-40,6,49,1624262175.0,32.000000
-40,6,49,1624262175.0,32.000000
-40,6,49,1624262175.0,32.000000
-40,6,49,1624262175.0,32.000000
-40,5,48,1624262175.0,32.000000
-40,5,48,1624262175.0,32.000000
-40,6,49,1624262175.0,32.000000
-40,6,49,1624262175.0,32.000000
-40,5,49,1624262175.0,32.000000
-40,5,48,1624262175.0,32.000000
-40,6,49,1624262175.0,32.000000
-40,6,49,1624262175.0,32.000000
-40,6,49,1624262175.0,32.000000
-40,5,49,1624262175.0,32.000000
-40,6,48,1624262175.0,32.000000
-40,5,48,1624262175.0,32.000000
-40,6,48,1624262175.0,32.000000
-39,5,49,1624262175.0,32.000000
-39,6,49,1624262175.0,32.000000
-39,6,49,1624262175.0,32.000000
-39,6,49,1624262175.0,32.000000
-40,5,49,1624262175.0,32.000000
-40,6,49,1624262175.0,32.000000
-39,6,49,1624262175.0,32.000000
-38,6,50,1624262175.0,32.000000
-42,6,47,1624262175.0,32.000000
-40,5,49,1624262175.0,32.000000
-38,6,49,1624262175.0,32.000000
-38,5,49,1624262175.0,32.000000
-39,6,50,1624262175.0,32.000000
-37,5,50,1624262175.0,32.000000
-38,6,50,1624262175.0,32.000000
-37,5,50,1624262175.0,32.000000
-37,5,51,1624262175.0,32.000000
-38,5,50,1624262175.0,32.000000
-39,5,50,1624262175.0,32.000000
-38,5,49,1624262175.0,32.000000
-39,6,49,1624262175.0,32.000000
-39,5,49,1624262175.0,32.000000
-39,5,49,1624262175.0,32.000000
-39,5,49,1624262175.0,32.000000
-40,5,48,1624262175.0,32.000000
-41,5,48,1624262175.0,32.000000
-41,5,48,1624262175.0,32.000000
-41,5,48,1624262175.0,32.000000
-40,5,48,1624262175.0,32.000000
-41,5,48,1624262175.0,32.000000
-41,5,48,1624262175.0,32.000000
-41,5,47,1624262175.0,32.000000
-41,5,48,1624262175.0,32.000000
-41,5,48,1624262175.0,32.000000
-41,5,48,1624262175.0,32.000000
-41,5,48,1624262175.0,32.000000
-41,5,48,1624262175.0,32.000000
-41,5,48,1624262175.0,32.000000
-41,5,48,1624262175.0,32.000000
-41,5,48,1624262175.0,32.000000
-41,5,48,1624262175.0,32.000000
-41,5,48,1624262175.0,32.000000
-41,5,48,1624262175.0,32.000000
-41,5,48,1624262175.0,32.000000
-41,5,48,1624262175.0,32.000000
-41,5,48,1624262175.0,32.000000
-41,5,48,1624262175.0,32.000000
-41,5,48,1624262175.0,32.000000
-41,5,48,1624262175.0,32.000000
-41,5,48,1624262175.0,32.000000
-41,5,48,1624262175.0,32.000000
-41,5,48,1624262175.0,32.000000
-41,5,48,1624262175.0,32.000000
-41,5,48,1624262175.0,32.000000
-41,5,48,1624262175.0,32.000000
-41,5,48,1624262175.0,32.000000
-41,5,48,1624262175.0,32.000000
-41,5,48,1624262175.0,32.000000
-41,5,48,1624262175.0,32.000000
-41,5,48,1624262175.0,32.000000
-41,5,48,1624262175.0,32.000000
-41,5,48,1624262175.0,32.000000
-41,5,48,1624262175.0,32.000000
-41,5,48,1624262175.0,32.000000
-41,5,48,1624262175.0,32.000000
-41,5,48,1624262175.0,32.000000
-41,5,48,1624262175.0,32.000000
-41,6,48,1624262175.0,32.000000
-41,5,48,1624262175.0,32.000000
-41,5,48,1624262175.0,32.000000
-41,5,48,1624262175.0,32.000000
-41,6,48,1624262175.0,32.000000
-41,5,48,1624262175.0,32.000000
-41,5,48,1624262175.0,32.000000
-41,6,48,1624262175.0,32.000000
-41,5,48,1624262175.0,32.000000
-41,5,48,1624262175.0,32.000000
-41,5,48,1624262175.0,32.000000
-41,5,48,1624262175.0,32.000000
-41,5,48,1624262175.0,32.000000
-41,5,48,1624262175.0,32.000000
-41,5,48,1624262175.0,32.000000
-41,5,48,1624262175.0,32.000000
-41,5,47,1624262175.0,32.000000
-41,5,48,1624262175.0,32.000000
-41,5,48,1624262175.0,32.000000
-41,6,48,1624262175.0,32.000000
-41,5,48,1624262175.0,32.000000
-40,5,48,1624262175.0,32.000000
-41,6,48,1624262175.0,32.000000
-41,5,48,1624262175.0,32.000000
-40,6,48,1624262175.0,32.000000
-41,5,48,1624262175.0,32.000000
-41,5,48,1624262175.0,32.000000
-41,5,48,1624262175.0,32.000000
-40,5,49,1624262175.0,32.000000
-41,6,48,1624262175.0,32.000000
-41,6,48,1624262175.0,32.000000
-40,5,48,1624262175.0,32.000000
-40,5,48,1624262175.0,32.000000
-40,5,48,1624262175.0,32.000000
-40,5,49,1624262175.0,32.000000
-40,5,49,1624262175.0,32.000000
-41,5,48,1624262175.0,32.000000
-41,5,48,1624262175.0,32.000000
-40,5,48,1624262175.0,32.000000
-40,5,48,1624262175.0,32.000000
-40,5,48,1624262175.0,32.000000
-41,5,48,1624262175.0,32.000000
-40,5,48,1624262175.0,32.000000
-40,5,48,1624262175.0,32.000000
-40,6,48,1624262175.0,32.000000
-40,6,48,1624262175.0,32.000000
-40,5,48,1624262175.0,32.000000
-41,5,48,1624262175.0,32.000000
-40,5,48,1624262175.0,32.000000
-40,5,48,1624262175.0,32.000000
-40,5,48,1624262175.0,32.000000
-40,5,48,1624262175.0,32.000000
-40,5,48,1624262175.0,32.000000
-40,5,48,1624262175.0,32.000000
-40,6,48,1624262175.0,32.000000
-40,5,48,1624262175.0,32.000000
-41,5,48,1624262175.0,32.000000
-40,5,48,1624262175.0,32.000000
-41,5,48,1624262175.0,32.000000
-41,5,48,1624262175.0,32.000000
-40,5,48,1624262175.0,32.000000
-40,5,48,1624262175.0,32.000000
-40,5,48,1624262175.0,32.000000
-40,5,48,1624262175.0,32.000000
-40,5,49,1624262175.0,32.000000
-40,5,49,1624262175.0,32.000000
-40,5,49,1624262175.0,32.000000
-40,5,48,1624262175.0,32.000000
-40,5,48,1624262175.0,32.000000
-41,6,48,1624262175.0,32.000000
-40,5,48,1624262175.0,32.000000
-40,5,48,1624262175.0,32.000000
-40,5,48,1624262175.0,32.000000
-40,5,49,1624262175.0,32.000000
-40,5,48,1624262175.0,32.000000
-40,5,48,1624262175.0,32.000000
-40,5,49,1624262175.0,32.000000
-40,5,48,1624262175.0,32.000000
-40,5,48,1624262175.0,32.000000
-40,5,49,1624262175.0,32.000000
-40,5,48,1624262175.0,32.000000
-41,5,48,1624262175.0,32.000000
-41,6,48,1624262175.0,32.000000
-40,5,49,1624262175.0,32.000000
-40,5,48,1624262175.0,32.000000
-40,6,48,1624262175.0,32.000000
-39,5,49,1624262175.0,32.000000
-39,5,49,1624262175.0,32.000000
-39,5,49,1624262175.0,32.000000
-40,5,49,1624262175.0,32.000000
-40,5,48,1624262175.0,32.000000
-41,5,48,1624262175.0,32.000000
-41,5,48,1624262175.0,32.000000
-41,5,48,1624262175.0,32.000000
-42,5,47,1624262175.0,32.000000
-42,5,47,1624262175.0,32.000000
-42,6,47,1624262175.0,32.000000
-42,6,47,1624262175.0,32.000000
-41,6,47,1624262175.0,32.000000
-41,5,48,1624262175.0,32.000000
-41,5,48,1624262175.0,32.000000
-41,5,48,1624262175.0,32.000000
-40,5,48,1624262175.0,32.000000
-40,5,48,1624262175.0,32.000000
-40,5,48,1624262175.0,32.000000
-40,5,48,1624262175.0,32.000000
-40,5,49,1624262175.0,32.000000
-40,5,48,1624262175.0,32.000000
-40,5,48,1624262175.0,32.000000
-41,6,48,1624262175.0,32.000000
-41,6,48,1624262175.0,32.000000
-40,5,48,1624262175.0,32.000000
-41,5,48,1624262175.0,32.000000
-40,5,48,1624262175.0,32.000000
-40,5,48,1624262175.0,32.000000
-40,5,48,1624262175.0,32.000000
-40,5,48,1624262175.0,32.000000
-40,5,48,1624262175.0,32.000000
-40,5,48,1624262175.0,32.000000
-40,5,49,1624262175.0,32.000000
-41,5,48,1624262175.0,32.000000
-41,5,48,1624262175.0,32.000000
-41,5,48,1624262175.0,32.000000
-41,5,48,1624262175.0,32.000000
-41,5,48,1624262175.0,32.000000
-41,6,48,1624262175.0,32.000000
-40,5,48,1624262175.0,32.000000
-40,5,48,1624262175.0,32.000000
-41,5,48,1624262175.0,32.000000
-40,5,48,1624262175.0,32.000000
-40,5,48,1624262175.0,32.000000
-40,5,48,1624262175.0,32.000000
-41,5,48,1624262175.0,32.000000
-41,5,48,1624262175.0,32.000000
-41,5,48,1624262175.0,32.000000
-41,5,48,1624262175.0,32.000000
-41,5,48,1624262175.0,32.000000
-41,5,48,1624262175.0,32.000000
-41,6,48,1624262175.0,32.000000
-40,5,48,1624262175.0,32.000000
-40,5,48,1624262175.0,32.000000
-40,5,48,1624262175.0,32.000000
-40,5,48,1624262175.0,32.000000
-41,5,48,1624262175.0,32.000000
-40,5,48,1624262175.0,32.000000
-40,5,48,1624262175.0,32.000000
-40,5,48,1624262175.0,32.000000
-40,5,49,1624262175.0,32.000000
-40,6,48,1624262175.0,32.000000
-40,5,48,1624262175.0,32.000000
-40,5,48,1624262175.0,32.000000
-40,5,48,1624262175.0,32.000000
-40,5,48,1624262175.0,32.000000
-41,5,48,1624262175.0,32.000000
-41,5,49,1624262175.0,32.000000
-40,6,48,1624262175.0,32.000000
-41,5,48,1624262175.0,32.000000
-40,6,48,1624262175.0,32.000000
-40,5,48,1624262175.0,32.000000
-41,5,48,1624262175.0,32.000000
-41,5,48,1624262175.0,32.000000
-41,5,48,1624262175.0,32.000000
-41,5,48,1624262175.0,32.000000
-40,5,48,1624262175.0,32.000000
-40,5,48,1624262175.0,32.000000
-40,5,48,1624262175.0,32.000000
-40,5,48,1624262175.0,32.000000
-40,5,48,1624262175.0,32.000000
-40,5,48,1624262175.0,32.000000
-40,5,48,1624262175.0,32.000000
-40,5,48,1624262175.0,32.000000
-40,6,48,1624262175.0,32.000000
-40,6,48,1624262175.0,32.000000
-40,5,48,1624262175.0,32.000000
-41,5,48,1624262175.0,32.000000
-40,5,48,1624262175.0,32.000000
-40,5,48,1624262175.0,32.000000
-40,5,48,1624262175.0,32.000000
-40,5,48,1624262175.0,32.000000
-40,6,49,1624262175.0,32.000000
-40,5,48,1624262175.0,32.000000
-41,5,48,1624262175.0,32.000000
-40,5,48,1624262175.0,32.000000
-40,5,48,1624262175.0,32.000000
-40,5,48,1624262175.0,32.000000
-40,5,48,1624262175.0,32.000000
-40,5,48,1624262175.0,32.000000
-40,6,48,1624262175.0,32.000000
-40,6,49,1624262175.0,32.000000
-40,5,48,1624262175.0,32.000000
-40,5,48,1624262175.0,32.000000
-40,5,48,1624262175.0,32.000000
-40,5,48,1624262175.0,32.000000
-40,5,48,1624262175.0,32.000000
-40,6,48,1624262175.0,32.000000
-40,5,48,1624262175.0,32.000000
-40,6,48,1624262175.0,32.000000
-40,5,48,1624262175.0,32.000000
-41,5,48,1624262175.0,32.000000
-41,5,48,1624262175.0,32.000000
-40,5,48,1624262175.0,32.000000
-40,5,48,1624262175.0,32.000000
-40,5,48,1624262175.0,32.000000
-40,6,48,1624262175.0,32.000000
-40,6,48,1624262175.0,32.000000
-40,5,48,1624262175.0,32.000000
-40,5,48,1624262175.0,32.000000
-40,5,48,1624262175.0,32.000000
-41,5,48,1624262175.0,32.000000
-40,5,48,1624262175.0,32.000000
-41,5,48,1624262175.0,32.000000
-41,5,48,1624262175.0,32.000000
-40,5,48,1624262175.0,32.000000
-40,5,48,1624262175.0,32.000000
-40,5,48,1624262175.0,32.000000
-40,5,48,1624262175.0,32.000000
-40,5,48,1624262175.0,32.000000
-40,5,48,1624262175.0,32.000000
-40,5,48,1624262175.0,32.000000
-40,6,48,1624262175.0,32.000000
-41,5,48,1624262175.0,32.000000
-40,6,48,1624262175.0,32.000000
-40,5,48,1624262175.0,32.000000
-40,5,48,1624262175.0,32.000000
-40,5,48,1624262175.0,32.000000
-40,5,48,1624262175.0,32.000000
-40,5,48,1624262175.0,32.000000
-41,5,48,1624262175.0,32.000000
-40,5,48,1624262175.0,32.000000
-40,5,48,1624262175.0,32.000000
-41,5,48,1624262175.0,32.000000
-40,5,48,1624262175.0,32.000000
-40,5,48,1624262175.0,32.000000
-40,5,48,1624262175.0,32.000000
-41,5,48,1624262175.0,32.000000
-41,6,48,1624262175.0,32.000000
-40,5,48,1624262175.0,32.000000
-40,5,48,1624262175.0,32.000000
-40,5,48,1624262175.0,32.000000
-40,5,48,1624262175.0,32.000000
-40,6,48,1624262175.0,32.000000
-40,5,48,1624262175.0,32.000000
-40,5,48,1624262175.0,32.000000
-40,5,48,1624262175.0,32.000000
-41,5,48,1624262175.0,32.000000
-40,5,48,1624262175.0,32.000000
-40,5,48,1624262175.0,32.000000
-40,5,48,1624262175.0,32.000000
-41,5,48,1624262175.0,32.000000
-41,5,48,1624262175.0,32.000000
-40,5,48,1624262175.0,32.000000
-40,5,48,1624262175.0,32.000000
-41,5,48,1624262175.0,32.000000
-41,5,48,1624262175.0,32.000000
-40,6,48,1624262175.0,32.000000
-41,5,48,1624262175.0,32.000000
-41,5,48,1624262175.0,32.000000
-40,5,48,1624262175.0,32.000000
-41,5,48,1624262175.0,32.000000
-41,5,48,1624262175.0,32.000000
-40,5,48,1624262175.0,32.000000
-40,5,48,1624262175.0,32.000000
-40,5,48,1624262175.0,32.000000
-42,5,47,1624262175.0,32.000000
-37,6,50,1624262175.0,32.000000
-41,6,48,1624262175.0,32.000000
-42,5,47,1624262175.0,32.000000
-41,6,48,1624262175.0,32.000000
-41,5,48,1624262175.0,32.000000
-41,5,48,1624262175.0,32.000000
-41,5,47,1624262175.0,32.000000
-41,5,48,1624262175.0,32.000000
-41,5,48,1624262175.0,32.000000
-41,5,48,1624262175.0,32.000000
-41,6,47,1624262175.0,32.000000
-41,5,48,1624262175.0,32.000000
-41,6,48,1624262175.0,32.000000
-41,5,48,1624262175.0,32.000000
-41,5,48,1624262175.0,32.000000
-41,5,48,1624262175.0,32.000000
-41,5,47,1624262175.0,32.000000
-41,5,48,1624262175.0,32.000000
-41,5,48,1624262175.0,32.000000
-41,5,48,1624262175.0,32.000000
-41,5,48,1624262175.0,32.000000
-41,5,48,1624262175.0,32.000000
-41,5,47,1624262175.0,32.000000
-41,5,48,1624262175.0,32.000000
-41,5,48,1624262175.0,32.000000
-41,5,48,1624262175.0,32.000000
-41,5,48,1624262175.0,32.000000
-41,6,48,1624262175.0,32.000000
-41,5,48,1624262175.0,32.000000
-41,6,48,1624262175.0,32.000000
-41,5,48,1624262175.0,32.000000
-41,5,48,1624262175.0,32.000000
-41,5,48,1624262175.0,32.000000
-41,5,47,1624262175.0,32.000000
-41,5,48,1624262175.0,32.000000
-41,5,48,1624262175.0,32.000000
-41,5,48,1624262175.0,32.000000
-41,5,48,1624262175.0,32.000000
-41,5,47,1624262175.0,32.000000
-41,5,48,1624262175.0,32.000000
-41,5,48,1624262175.0,32.000000
-41,5,48,1624262175.0,32.000000
-41,5,48,1624262175.0,32.000000
-39,5,49,1624262175.0,32.000000
-39,6,50,1624262175.0,32.000000
-43,5,48,1624262175.0,32.000000
-40,5,47,1624262175.0,32.000000
-44,6,45,1624262175.0,32.000000
-43,6,46,1624262175.0,32.000000
-42,6,47,1624262175.0,32.000000
-43,5,47,1624262175.0,32.000000
-43,6,47,1624262175.0,32.000000
-42,6,47,1624262175.0,32.000000
-39,5,49,1624262175.0,32.000000
-40,6,49,1624262175.0,32.000000
-41,5,47,1624262175.0,32.000000
-41,6,48,1624262175.0,32.000000
-40,5,48,1624262175.0,32.000000
-41,5,48,1624262175.0,32.000000
-41,5,48,1624262175.0,32.000000
-41,5,48,1624262175.0,32.000000
-41,6,48,1624262175.0,32.000000
-41,6,48,1624262175.0,32.000000
-41,5,48,1624262175.0,32.000000
-40,5,48,1624262175.0,32.000000
-40,5,48,1624262175.0,32.000000
-41,6,47,1624262175.0,32.000000
-41,5,47,1624262175.0,32.000000
-41,5,48,1624262175.0,32.000000
-41,5,48,1624262175.0,32.000000
-41,6,48,1624262175.0,32.000000
-41,5,48,1624262175.0,32.000000
-41,5,48,1624262175.0,32.000000
-41,5,48,1624262175.0,32.000000
-41,5,48,1624262175.0,32.000000
-41,5,48,1624262175.0,32.000000
-41,6,48,1624262175.0,32.000000
-41,5,48,1624262175.0,32.000000
-41,5,48,1624262175.0,32.000000
-41,6,48,1624262175.0,32.000000
-41,5,48,1624262175.0,32.000000
-41,5,48,1624262175.0,32.000000
-41,6,48,1624262175.0,32.000000
-41,5,48,1624262175.0,32.000000
-41,6,48,1624262175.0,32.000000
-41,6,48,1624262175.0,32.000000
-41,6,48,1624262175.0,32.000000
-41,5,46,1624262175.0,32.000000
-36,4,45,1624262175.0,32.000000
-45,7,54,1624262175.0,32.000000
-49,14,43,1624262175.0,32.000000
-42,-3,45,1624262175.0,32.000000
-37,13,45,1624262175.0,32.000000
-36,18,45,1624262175.0,32.000000
-47,10,48,1624262175.0,32.000000
-46,10,43,1624262175.0,32.000000
-43,9,44,1624262175.0,32.000000
-40,6,47,1624262175.0,32.000000
-38,4,48,1624262175.0,32.000000
-70,-2,48,1624262175.0,32.000000
-13,3,55,1624262175.0,32.000000
-23,7,65,1624262175.0,32.000000
-33,6,50,1624262175.0,32.000000
-46,7,47,1624262175.0,32.000000
-45,7,45,1624262175.0,32.000000
-41,6,48,1624262175.0,32.000000
-40,5,49,1624262175.0,32.000000
-37,6,50,1624262175.0,32.000000
-39,6,49,1624262175.0,32.000000
-39,6,49,1624262175.0,32.000000
-41,6,48,1624262175.0,32.000000
-41,6,48,1624262175.0,32.000000
-37,6,51,1624262175.0,32.000000
-38,6,50,1624262175.0,32.000000
-40,6,49,1624262175.0,32.000000
-41,6,48,1624262175.0,32.000000
-41,6,49,1624262175.0,32.000000
-38,6,49,1624262175.0,32.000000
-39,6,49,1624262175.0,32.000000
-39,6,49,1624262175.0,32.000000
-39,5,49,1624262175.0,32.000000
-39,7,50,1624262175.0,32.000000
-40,6,48,1624262175.0,32.000000
-38,6,51,1624262175.0,32.000000
-37,6,50,1624262175.0,32.000000
-37,6,50,1624262175.0,32.000000
-39,6,49,1624262175.0,32.000000
-39,6,49,1624262175.0,32.000000
-39,6,50,1624262175.0,32.000000
-38,6,50,1624262175.0,32.000000
-38,6,51,1624262175.0,32.000000
-39,6,49,1624262175.0,32.000000
-40,6,49,1624262175.0,32.000000
-39,6,50,1624262175.0,32.000000
-38,6,50,1624262175.0,32.000000
-39,6,50,1624262175.0,32.000000
-40,6,50,1624262175.0,32.000000
-38,6,49,1624262175.0,32.000000
-39,6,49,1624262175.0,32.000000
-39,6,49,1624262175.0,32.000000
-39,6,49,1624262175.0,32.000000
-39,6,49,1624262175.0,32.000000
-38,5,50,1624262175.0,32.000000
-38,6,49,1624262175.0,32.000000
-39,6,49,1624262175.0,32.000000
-39,6,48,1624262175.0,32.000000
-39,6,49,1624262175.0,32.000000
-38,6,50,1624262175.0,32.000000
-38,6,50,1624262175.0,32.000000
-39,6,49,1624262175.0,32.000000
-39,6,49,1624262175.0,32.000000
-39,6,49,1624262175.0,32.000000
-38,6,49,1624262175.0,32.000000
-39,6,50,1624262175.0,32.000000
-38,6,49,1624262175.0,32.000000
-39,6,49,1624262175.0,32.000000
-39,6,49,1624262175.0,32.000000
-39,6,50,1624262175.0,32.000000
-38,6,50,1624262175.0,32.000000
-38,6,49,1624262175.0,32.000000
-39,6,49,1624262175.0,32.000000
-39,6,50,1624262175.0,32.000000
-38,6,50,1624262175.0,32.000000
-39,6,50,1624262175.0,32.000000
-39,6,50,1624262175.0,32.000000
-39,6,50,1624262175.0,32.000000
-39,6,50,1624262175.0,32.000000
-38,6,50,1624262175.0,32.000000
-39,6,49,1624262175.0,32.000000
-39,6,49,1624262175.0,32.000000
-39,6,50,1624262175.0,32.000000
-38,6,49,1624262175.0,32.000000
-39,6,49,1624262175.0,32.000000
-39,6,49,1624262175.0,32.000000
-39,6,49,1624262175.0,32.000000
-39,6,50,1624262175.0,32.000000
-39,6,49,1624262175.0,32.000000
-39,6,49,1624262175.0,32.000000
-39,6,49,1624262175.0,32.000000
-39,6,49,1624262175.0,32.000000
-39,6,49,1624262175.0,32.000000
-39,6,49,1624262175.0,32.000000
-39,6,49,1624262175.0,32.000000
-38,6,50,1624262175.0,32.000000
-39,6,49,1624262175.0,32.000000
-39,6,49,1624262175.0,32.000000
-39,6,49,1624262175.0,32.000000
-39,6,50,1624262175.0,32.000000
-39,6,50,1624262175.0,32.000000
-39,6,49,1624262175.0,32.000000
-39,6,49,1624262175.0,32.000000
-39,6,49,1624262175.0,32.000000
-39,6,49,1624262175.0,32.000000
-39,6,49,1624262175.0,32.000000
-39,6,49,1624262175.0,32.000000
-39,6,49,1624262175.0,32.000000
-39,6,49,1624262175.0,32.000000
-39,6,50,1624262175.0,32.000000
-39,6,49,1624262175.0,32.000000
-39,6,49,1624262175.0,32.000000
-38,6,49,1624262175.0,32.000000
-39,6,49,1624262175.0,32.000000
-39,6,49,1624262175.0,32.000000
-38,6,50,1624262175.0,32.000000
-39,6,49,1624262175.0,32.000000
-39,6,49,1624262175.0,32.000000
-38,5,49,1624262175.0,32.000000
-39,6,49,1624262175.0,32.000000
-40,6,50,1624262175.0,32.000000
-39,6,50,1624262175.0,32.000000
-39,6,50,1624262175.0,32.000000
-43,7,49,1624262175.0,32.000000
-39,6,49,1624262175.0,32.000000
-42,6,51,1624262175.0,32.000000
-42,7,48,1624262175.0,32.000000
-42,2,51,1624262175.0,32.000000
-44,0,46,1624262175.0,32.000000
-41,10,45,1624262175.0,32.000000
-41,13,45,1624262175.0,32.000000
-54,26,43,1624262175.0,32.000000
-46,16,41,1624262175.0,32.000000
-44,20,41,1624262175.0,32.000000
-44,20,41,1624262175.0,32.000000
-43,21,39,1624262175.0,32.000000
-42,21,34,1624262175.0,32.000000
-42,20,35,1624262175.0,32.000000
-41,21,38,1624262175.0,32.000000
-44,21,36,1624262175.0,32.000000
-46,19,32,1624262175.0,32.000000
-51,17,33,1624262175.0,32.000000
-54,22,43,1624262175.0,32.000000
-52,21,44,1624262175.0,32.000000
-45,8,43,1624262175.0,32.000000
-49,19,39,1624262175.0,32.000000
-45,16,40,1624262175.0,32.000000
-46,12,42,1624262175.0,32.000000
-45,13,42,1624262175.0,32.000000
-49,12,39,1624262175.0,32.000000
-48,8,40,1624262175.0,32.000000
-48,9,41,1624262175.0,32.000000
-47,9,40,1624262175.0,32.000000
-46,9,41,1624262175.0,32.000000
-48,12,40,1624262175.0,32.000000
-48,13,39,1624262175.0,32.000000
-48,12,39,1624262175.0,32.000000
-48,11,39,1624262175.0,32.000000
-49,9,39,1624262175.0,32.000000
-43,9,44,1624262175.0,32.000000
-43,8,45,1624262175.0,32.000000
-43,8,46,1624262175.0,32.000000
-43,8,46,1624262175.0,32.000000
-44,7,45,1624262175.0,32.000000
-44,7,45,1624262175.0,32.000000
-45,5,46,1624262175.0,32.000000
-43,6,46,1624262175.0,32.000000
-40,4,48,1624262175.0,32.000000
-41,6,49,1624262175.0,32.000000
-39,6,48,1624262175.0,32.000000
-40,6,48,1624262175.0,32.000000
-39,7,49,1624262175.0,32.000000
-39,6,49,1624262175.0,32.000000
-41,6,47,1624262175.0,32.000000
-43,6,48,1624262175.0,32.000000
-40,7,45,1624262175.0,32.000000
-43,6,47,1624262175.0,32.000000
-41,7,48,1624262175.0,32.000000
-41,6,48,1624262175.0,32.000000
-41,5,47,1624262175.0,32.000000
-42,6,48,1624262175.0,32.000000
-41,6,48,1624262175.0,32.000000
-40,6,47,1624262175.0,32.000000
-41,6,48,1624262175.0,32.000000
-40,6,48,1624262175.0,32.000000
-41,6,48,1624262175.0,32.000000
-41,6,48,1624262175.0,32.000000
-41,6,48,1624262175.0,32.000000
-41,6,48,1624262175.0,32.000000
-41,6,48,1624262175.0,32.000000
-41,6,48,1624262175.0,32.000000
-41,6,48,1624262175.0,32.000000
-41,6,48,1624262175.0,32.000000
-40,6,48,1624262175.0,32.000000
-41,6,48,1624262175.0,32.000000
-41,6,48,1624262175.0,32.000000
-41,6,48,1624262175.0,32.000000
-40,6,48,1624262175.0,32.000000
-40,6,48,1624262175.0,32.000000
-41,6,48,1624262175.0,32.000000
-41,6,48,1624262175.0,32.000000
-41,6,48,1624262175.0,32.000000
-41,6,48,1624262175.0,32.000000
-41,6,48,1624262175.0,32.000000
-41,6,48,1624262175.0,32.000000
-41,6,48,1624262175.0,32.000000
-40,6,48,1624262175.0,32.000000
-40,6,48,1624262175.0,32.000000
-40,6,48,1624262175.0,32.000000
-41,6,48,1624262175.0,32.000000
-40,6,48,1624262175.0,32.000000
-41,6,48,1624262175.0,32.000000
-41,6,48,1624262175.0,32.000000
-40,6,48,1624262175.0,32.000000
-40,6,48,1624262175.0,32.000000
-40,6,48,1624262175.0,32.000000
-41,6,48,1624262175.0,32.000000
-41,6,48,1624262175.0,32.000000
-40,6,48,1624262175.0,32.000000
-41,6,48,1624262175.0,32.000000
-41,6,48,1624262175.0,32.000000
-40,6,48,1624262175.0,32.000000
-39,6,49,1624262175.0,32.000000
-39,6,49,1624262175.0,32.000000
-39,6,49,1624262175.0,32.000000
-40,6,49,1624262175.0,32.000000
-40,6,49,1624262175.0,32.000000
-39,6,49,1624262175.0,32.000000
-39,6,49,1624262175.0,32.000000
-40,6,48,1624262175.0,32.000000
-41,6,48,1624262175.0,32.000000
-41,6,47,1624262175.0,32.000000
-40,6,48,1624262175.0,32.000000
-41,6,49,1624262175.0,32.000000
-39,6,48,1624262175.0,32.000000
-37,6,46,1624262175.0,32.000000
-42,6,51,1624262175.0,32.000000
-40,6,50,1624262175.0,32.000000
-40,6,49,1624262175.0,32.000000
-41,6,48,1624262175.0,32.000000
-40,6,49,1624262175.0,32.000000
-39,6,48,1624262175.0,32.000000
-39,6,49,1624262175.0,32.000000
-39,6,49,1624262175.0,32.000000
-39,6,49,1624262175.0,32.000000
-39,6,49,1624262175.0,32.000000
-40,6,49,1624262175.0,32.000000
-40,6,49,1624262175.0,32.000000
-41,5,48,1624262175.0,32.000000
-41,6,48,1624262175.0,32.000000
-41,6,47,1624262175.0,32.000000
-37,6,50,1624262175.0,32.000000
-39,6,49,1624262175.0,32.000000
-39,6,50,1624262175.0,32.000000
-39,7,49,1624262175.0,32.000000
-39,7,49,1624262175.0,32.000000
-40,8,49,1624262175.0,32.000000
-42,8,48,1624262175.0,32.000000
-39,6,49,1624262175.0,32.000000
-37,6,50,1624262175.0,32.000000
-38,6,50,1624262175.0,32.000000
-39,6,49,1624262175.0,32.000000
-40,6,49,1624262175.0,32.000000
-40,8,50,1624262175.0,32.000000
-38,9,50,1624262175.0,32.000000
-40,7,52,1624262175.0,32.000000
-36,0,51,1624262175.0,32.000000
-38,9,52,1624262175.0,32.000000
-50,8,56,1624262175.0,32.000000
-37,10,52,1624262175.0,32.000000
-42,13,49,1624262175.0,32.000000
-47,10,42,1624262175.0,32.000000
-44,12,37,1624262175.0,32.000000
-45,13,37,1624262175.0,32.000000
-48,14,42,1624262175.0,32.000000
-45,13,43,1624262175.0,32.000000
-41,14,46,1624262175.0,32.000000
-34,21,50,1624262175.0,32.000000
-33,24,47,1624262175.0,32.000000
-25,28,40,1624262175.0,32.000000
-29,32,40,1624262175.0,32.000000
-16,38,48,1624262175.0,32.000000
0,42,47,1624262175.0,32.000000
-6,43,43,1624262175.0,32.000000
-10,34,48,1624262175.0,32.000000
-65,16,40,1624262175.0,32.000000
-101,7,41,1624262175.0,32.000000
-53,-11,32,1624262175.0,32.000000
-60,-12,28,1624262175.0,32.000000
-10,37,34,1624262175.0,32.000000
59,82,73,1624262175.0,32.000000
14,66,95,1624262175.0,32.000000
-75,-4,87,1624262175.0,32.000000
-96,-57,11,1624262175.0,32.000000
-63,-40,25,1624262175.0,32.000000
-21,18,65,1624262175.0,32.000000
20,37,47,1624262175.0,32.000000
30,76,49,1624262175.0,32.000000
-7,34,95,1624262175.0,32.000000
-30,9,119,1624262175.0,32.000000
-100,-44,-12,1624262175.0,32.000000
-62,-40,-17,1624262175.0,32.000000
26,63,33,1624262175.0,32.000000
-12,81,86,1624262175.0,32.000000
-28,30,118,1624262175.0,32.000000
-53,-26,11,1624262175.0,32.000000
-62,-47,-29,1624262175.0,32.000000
-6,47,77,1624262175.0,32.000000
-23,47,76,1624262175.0,32.000000
-39,22,43,1624262175.0,32.000000
-58,-26,16,1624262175.0,32.000000
-31,11,24,1624262175.0,32.000000
-28,18,15,1624262175.0,32.000000
-21,31,32,1624262175.0,32.000000
-17,31,46,1624262175.0,32.000000
-31,37,62,1624262175.0,32.000000
-35,46,57,1624262175.0,32.000000
-45,42,60,1624262175.0,32.000000
-60,34,65,1624262175.0,32.000000
-59,28,61,1624262175.0,32.000000
-40,21,48,1624262175.0,32.000000
-24,17,32,1624262175.0,32.000000
-23,9,19,1624262175.0,32.000000
-25,11,26,1624262175.0,32.000000
-22,10,37,1624262175.0,32.000000
-53,7,66,1624262175.0,32.000000
-35,69,93,1624262175.0,32.000000
-22,25,37,1624262175.0,32.000000
-42,11,47,1624262175.0,32.000000
-44,17,49,1624262175.0,32.000000
-26,12,56,1624262175.0,32.000000
-35,16,43,1624262175.0,32.000000
-28,13,46,1624262175.0,32.000000
-25,16,48,1624262175.0,32.000000
-30,3,49,1624262175.0,32.000000
-41,15,62,1624262175.0,32.000000
-30,17,55,1624262175.0,32.000000
-30,15,51,1624262175.0,32.000000
-34,15,52,1624262175.0,32.000000
-34,15,51,1624262175.0,32.000000
-32,14,52,1624262175.0,32.000000
-29,16,54,1624262175.0,32.000000
-29,16,54,1624262175.0,32.000000
-30,17,53,1624262175.0,32.000000
-31,16,53,1624262175.0,32.000000
-30,16,53,1624262175.0,32.000000
-28,16,54,1624262175.0,32.000000
-30,16,53,1624262175.0,32.000000
-31,16,53,1624262175.0,32.000000
-31,17,53,1624262175.0,32.000000
-31,17,52,1624262175.0,32.000000
-31,17,52,1624262175.0,32.000000
-31,18,52,1624262175.0,32.000000
-31,18,52,1624262175.0,32.000000
-32,17,51,1624262175.0,32.000000
-33,17,52,1624262175.0,32.000000
-33,17,51,1624262175.0,32.000000
-32,17,51,1624262175.0,32.000000
-32,17,52,1624262175.0,32.000000
-31,18,52,1624262175.0,32.000000
-32,18,52,1624262175.0,32.000000
-32,18,51,1624262175.0,32.000000
-32,17,51,1624262175.0,32.000000
-32,18,52,1624262175.0,32.000000
-32,18,52,1624262175.0,32.000000
-32,18,51,1624262175.0,32.000000
-32,17,52,1624262175.0,32.000000
-32,18,51,1624262175.0,32.000000
-32,18,51,1624262175.0,32.000000
-32,18,52,1624262175.0,32.000000
-31,18,52,1624262175.0,32.000000
-31,18,52,1624262175.0,32.000000
-31,19,52,1624262175.0,32.000000
-31,19,52,1624262175.0,32.000000
-30,18,53,1624262175.0,32.000000
-30,18,53,1624262175.0,32.000000
-31,18,52,1624262175.0,32.000000
-32,17,51,1624262175.0,32.000000
-31,17,52,1624262175.0,32.000000
-31,18,53,1624262175.0,32.000000
-31,17,52,1624262175.0,32.000000
-31,17,52,1624262175.0,32.000000
-31,17,52,1624262175.0,32.000000
-31,18,53,1624262175.0,32.000000
-31,18,52,1624262175.0,32.000000
-31,19,52,1624262175.0,32.000000
-31,18,52,1624262175.0,32.000000
-32,18,52,1624262175.0,32.000000
-32,18,52,1624262175.0,32.000000
-31,18,52,1624262175.0,32.000000
-32,18,52,1624262175.0,32.000000
-31,18,52,1624262175.0,32.000000
-31,18,52,1624262175.0,32.000000
-31,17,53,1624262175.0,32.000000
-30,18,52,1624262175.0,32.000000
-30,19,53,1624262175.0,32.000000
-30,19,53,1624262175.0,32.000000
-30,19,52,1624262175.0,32.000000
-31,18,52,1624262175.0,32.000000
-31,18,52,1624262175.0,32.000000
-31,18,52,1624262175.0,32.000000
-31,18,52,1624262175.0,32.000000
-31,18,52,1624262175.0,32.000000
-31,18,52,1624262175.0,32.000000
-31,18,52,1624262175.0,32.000000
-31,18,52,1624262175.0,32.000000
-31,18,52,1624262175.0,32.000000
-31,18,52,1624262175.0,32.000000
-31,18,52,1624262175.0,32.000000
-31,18,52,1624262175.0,32.000000
-31,18,52,1624262175.0,32.000000
-31,18,52,1624262175.0,32.000000
-31,18,52,1624262175.0,32.000000
-31,18,52,1624262175.0,32.000000
-31,18,52,1624262175.0,32.000000
-31,18,52,1624262175.0,32.000000
-31,18,52,1624262175.0,32.000000
-31,18,52,1624262175.0,32.000000
-31,18,52,1624262175.0,32.000000
-31,18,52,1624262175.0,32.000000
-31,18,52,1624262175.0,32.000000
-31,18,52,1624262175.0,32.000000
-31,18,52,1624262175.0,32.000000
-31,18,52,1624262175.0,32.000000
-31,18,52,1624262175.0,32.000000
-31,18,52,1624262175.0,32.000000
-31,18,52,1624262175.0,32.000000
-31,18,52,1624262175.0,32.000000
-31,18,52,1624262175.0,32.000000
-31,18,52,1624262175.0,32.000000
-31,18,52,1624262175.0,32.000000
-31,18,52,1624262175.0,32.000000
-31,18,52,1624262175.0,32.000000
-31,18,52,1624262175.0,32.000000
-31,18,52,1624262175.0,32.000000
-32,18,51,1624262175.0,32.000000
-32,17,52,1624262175.0,32.000000
-31,18,52,1624262175.0,32.000000
-31,18,52,1624262175.0,32.000000
-31,18,52,1624262175.0,32.000000
-31,18,52,1624262175.0,32.000000
-31,18,53,1624262175.0,32.000000
-32,18,52,1624262175.0,32.000000
-32,18,52,1624262175.0,32.000000
-32,18,52,1624262175.0,32.000000
-32,18,52,1624262175.0,32.000000
-31,18,52,1624262175.0,32.000000
-32,18,52,1624262175.0,32.000000
-32,18,52,1624262175.0,32.000000
-32,18,52,1624262175.0,32.000000
-32,18,52,1624262175.0,32.000000
-31,18,52,1624262175.0,32.000000
-31,19,52,1624262175.0,32.000000
-31,18,52,1624262175.0,32.000000
-31,18,52,1624262175.0,32.000000
-32,18,51,1624262175.0,32.000000
-32,18,51,1624262175.0,32.000000
-32,18,51,1624262175.0,32.000000
-31,18,52,1624262175.0,32.000000
-32,18,52,1624262175.0,32.000000
-32,18,51,1624262175.0,32.000000
-32,18,52,1624262175.0,32.000000
-31,19,52,1624262175.0,32.000000
-31,18,52,1624262175.0,32.000000
-32,18,52,1624262175.0,32.000000
-32,18,52,1624262175.0,32.000000
-32,18,51,1624262175.0,32.000000
-32,18,51,1624262175.0,32.000000
-31,18,52,1624262175.0,32.000000
-29,20,55,1624262175.0,32.000000
-24,16,64,1624262175.0,32.000000
-30,18,67,1624262175.0,32.000000
-49,6,60,1624262175.0,32.000000
-68,18,41,1624262175.0,32.000000
-65,26,33,1624262175.0,32.000000
-57,23,29,1624262175.0,32.000000
-52,25,19,1624262175.0,32.000000
-44,29,15,1624262175.0,32.000000
-40,33,15,1624262175.0,32.000000
-37,38,19,1624262175.0,32.000000
-34,41,16,1624262175.0,32.000000
-32,46,14,1624262175.0,32.000000
-32,49,15,1624262175.0,32.000000
-32,50,16,1624262175.0,32.000000
-34,51,12,1624262175.0,32.000000
-34,51,12,1624262175.0,32.000000
-37,50,11,1624262175.0,32.000000
-37,51,11,1624262175.0,32.000000
-39,51,11,1624262175.0,32.000000
-37,51,12,1624262175.0,32.000000
-35,50,12,1624262175.0,32.000000
-32,49,13,1624262175.0,32.000000
-31,50,13,1624262175.0,32.000000
-31,50,11,1624262175.0,32.000000
-30,51,12,1624262175.0,32.000000
-31,51,11,1624262175.0,32.000000
-31,51,10,1624262175.0,32.000000
-28,51,8,1624262175.0,32.000000
-27,51,7,1624262175.0,32.000000
-29,51,10,1624262175.0,32.000000
-33,49,14,1624262175.0,32.000000
-38,48,17,1624262175.0,32.000000
-49,48,24,1624262175.0,32.000000
-61,45,22,1624262175.0,32.000000
-65,44,20,1624262175.0,32.000000
-65,41,13,1624262175.0,32.000000
-64,40,11,1624262175.0,32.000000
-56,41,7,1624262175.0,32.000000
-43,46,8,1624262175.0,32.000000
-38,49,10,1624262175.0,32.000000
-33,54,12,1624262175.0,32.000000
-28,55,14,1624262175.0,32.000000
-22,56,15,1624262175.0,32.000000
-14,54,17,1624262175.0,32.000000
-11,54,18,1624262175.0,32.000000
-4,54,22,1624262175.0,32.000000
0,54,26,1624262175.0,32.000000
1,54,28,1624262175.0,32.000000
-4,53,31,1624262175.0,32.000000
-14,52,33,1624262175.0,32.000000
-24,52,29,1624262175.0,32.000000
-34,51,24,1624262175.0,32.000000
-35,49,23,1624262175.0,32.000000
-49,50,15,1624262175.0,32.000000
-52,50,12,1624262175.0,32.000000
-37,51,19,1624262175.0,32.000000
-35,56,19,1624262175.0,32.000000
-29,56,21,1624262175.0,32.000000
-19,53,26,1624262175.0,32.000000
-16,51,25,1624262175.0,32.000000
-15,49,24,1624262175.0,32.000000
-18,49,29,1624262175.0,32.000000
-23,50,29,1624262175.0,32.000000
-24,52,24,1624262175.0,32.000000
-35,51,19,1624262175.0,32.000000
-40,50,19,1624262175.0,32.000000
-51,47,20,1624262175.0,32.000000
-53,46,21,1624262175.0,32.000000
-55,44,15,1624262175.0,32.000000
-54,44,9,1624262175.0,32.000000
-52,44,7,1624262175.0,32.000000
-40,45,10,1624262175.0,32.000000
-23,51,28,1624262175.0,32.000000
-17,53,29,1624262175.0,32.000000
4,51,40,1624262175.0,32.000000
8,48,44,1624262175.0,32.000000
-10,48,40,1624262175.0,32.000000
-23,46,40,1624262175.0,32.000000
-30,47,32,1624262175.0,32.000000
-56,42,6,1624262175.0,32.000000
-60,44,8,1624262175.0,32.000000
-29,54,35,1624262175.0,32.000000
-11,53,37,1624262175.0,32.000000
-4,50,35,1624262175.0,32.000000
7,44,34,1624262175.0,32.000000
1,42,34,1624262175.0,32.000000
-7,41,35,1624262175.0,32.000000
-12,48,36,1624262175.0,32.000000
-15,47,36,1624262175.0,32.000000
-38,43,27,1624262175.0,32.000000
-43,46,15,1624262175.0,32.000000
-36,26,16,1624262175.0,32.000000
-66,19,32,1624262175.0,32.000000
-54,24,51,1624262175.0,32.000000
-45,23,56,1624262175.0,32.000000
-47,17,47,1624262175.0,32.000000
-54,15,41,1624262175.0,32.000000
-46,14,39,1624262175.0,32.000000
-36,16,48,1624262175.0,32.000000
-33,18,51,1624262175.0,32.000000
-42,18,44,1624262175.0,32.000000
-42,18,41,1624262175.0,32.000000
-47,17,38,1624262175.0,32.000000
-53,16,56,1624262175.0,32.000000
-32,47,64,1624262175.0,32.000000
-31,11,45,1624262175.0,32.000000
-34,17,52,1624262175.0,32.000000
-34,19,52,1624262175.0,32.000000
-35,20,49,1624262175.0,32.000000
-35,19,49,1624262175.0,32.000000
-35,19,50,1624262175.0,32.000000
-36,20,49,1624262175.0,32.000000
-35,20,49,1624262175.0,32.000000
-34,19,49,1624262175.0,32.000000
-34,18,50,1624262175.0,32.000000
-34,17,50,1624262175.0,32.000000
-33,17,50,1624262175.0,32.000000
-32,17,52,1624262175.0,32.000000
-31,17,51,1624262175.0,32.000000
-32,18,52,1624262175.0,32.000000
-34,18,51,1624262175.0,32.000000
-32,17,50,1624262175.0,32.000000
-32,18,52,1624262175.0,32.000000
-33,18,51,1624262175.0,32.000000
-33,18,51,1624262175.0,32.000000
-34,19,51,1624262175.0,32.000000
-33,17,50,1624262175.0,32.000000
-33,18,51,1624262175.0,32.000000
-30,17,53,1624262175.0,32.000000
-26,16,55,1624262175.0,32.000000
-25,16,56,1624262175.0,32.000000
-25,16,56,1624262175.0,32.000000
-25,16,56,1624262175.0,32.000000
-27,16,55,1624262175.0,32.000000
-27,16,55,1624262175.0,32.000000
-26,16,55,1624262175.0,32.000000
-27,16,54,1624262175.0,32.000000
-28,16,54,1624262175.0,32.000000
-28,16,54,1624262175.0,32.000000
-27,16,55,1624262175.0,32.000000
-26,16,55,1624262175.0,32.000000
-27,16,54,1624262175.0,32.000000
-29,17,54,1624262175.0,32.000000
-28,17,54,1624262175.0,32.000000
-28,16,54,1624262175.0,32.000000
-28,17,54,1624262175.0,32.000000
-28,16,54,1624262175.0,32.000000
-28,17,54,1624262175.0,32.000000
-28,17,54,1624262175.0,32.000000
-28,17,54,1624262175.0,32.000000
-29,17,54,1624262175.0,32.000000
-29,17,54,1624262175.0,32.000000
-29,17,54,1624262175.0,32.000000
-29,17,54,1624262175.0,32.000000
-29,17,54,1624262175.0,32.000000
-29,17,54,1624262175.0,32.000000
-29,17,54,1624262175.0,32.000000
-29,17,54,1624262175.0,32.000000
-29,16,54,1624262175.0,32.000000
-29,16,54,1624262175.0,32.000000
-29,17,53,1624262175.0,32.000000
-29,17,54,1624262175.0,32.000000
-29,17,54,1624262175.0,32.000000
-29,17,54,1624262175.0,32.000000
-29,17,54,1624262175.0,32.000000
-29,17,54,1624262175.0,32.000000
-29,17,54,1624262175.0,32.000000
-29,17,53,1624262175.0,32.000000
-29,17,53,1624262175.0,32.000000
-29,17,54,1624262175.0,32.000000
-29,17,54,1624262175.0,32.000000
-29,17,54,1624262175.0,32.000000
-29,17,53,1624262175.0,32.000000
-29,17,53,1624262175.0,32.000000
-29,17,54,1624262175.0,32.000000
-29,16,54,1624262175.0,32.000000
-29,17,53,1624262175.0,32.000000
-30,17,53,1624262175.0,32.000000
-29,17,54,1624262175.0,32.000000
-29,17,54,1624262175.0,32.000000
-29,17,54,1624262175.0,32.000000
-29,17,53,1624262175.0,32.000000
-29,17,53,1624262175.0,32.000000
-29,17,54,1624262175.0,32.000000
-29,17,54,1624262175.0,32.000000
-29,17,54,1624262175.0,32.000000
-30,17,53,1624262175.0,32.000000
-30,18,53,1624262175.0,32.000000
-29,17,53,1624262175.0,32.000000
-28,16,54,1624262175.0,32.000000
-28,16,54,1624262175.0,32.000000
-28,17,54,1624262175.0,32.000000
-28,16,54,1624262175.0,32.000000
-28,16,54,1624262175.0,32.000000
-29,17,53,1624262175.0,32.000000
-29,17,53,1624262175.0,32.000000
-28,17,54,1624262175.0,32.000000
-28,16,54,1624262175.0,32.000000
-29,17,54,1624262175.0,32.000000
-29,17,53,1624262175.0,32.000000
-30,17,53,1624262175.0,32.000000
-30,17,52,1624262175.0,32.000000
-30,17,53,1624262175.0,32.000000
-30,17,53,1624262175.0,32.000000
-30,18,53,1624262175.0,32.000000
-30,17,53,1624262175.0,32.000000
-30,17,53,1624262175.0,32.000000
-30,17,53,1624262175.0,32.000000
-30,17,53,1624262175.0,32.000000
-29,17,54,1624262175.0,32.000000
-29,17,53,1624262175.0,32.000000
-29,17,53,1624262175.0,32.000000
-29,17,53,1624262175.0,32.000000
-29,17,54,1624262175.0,32.000000
-29,17,54,1624262175.0,32.000000
-29,17,54,1624262175.0,32.000000
-29,17,54,1624262175.0,32.000000
-28,17,54,1624262175.0,32.000000
-29,17,54,1624262175.0,32.000000
-29,17,53,1624262175.0,32.000000
-30,18,53,1624262175.0,32.000000
-31,18,53,1624262175.0,32.000000
-29,17,54,1624262175.0,32.000000
-28,18,56,1624262175.0,32.000000
-28,18,57,1624262175.0,32.000000
-32,17,51,1624262175.0,32.000000
-34,17,48,1624262175.0,32.000000
-36,16,48,1624262175.0,32.000000
-35,16,49,1624262175.0,32.000000
-32,16,52,1624262175.0,32.000000
-32,16,53,1624262175.0,32.000000
-32,16,52,1624262175.0,32.000000
-33,18,54,1624262175.0,32.000000
-33,17,51,1624262175.0,32.000000
-36,15,48,1624262175.0,32.000000
-35,17,49,1624262175.0,32.000000
-37,16,48,1624262175.0,32.000000
-35,16,47,1624262175.0,32.000000
-38,19,49,1624262175.0,32.000000
-37,18,50,1624262175.0,32.000000
-37,14,48,1624262175.0,32.000000
-36,13,49,1624262175.0,32.000000
-34,15,50,1624262175.0,32.000000
-34,17,51,1624262175.0,32.000000
-34,18,51,1624262175.0,32.000000
-32,17,52,1624262175.0,32.000000
-33,19,52,1624262175.0,32.000000
-35,20,52,1624262175.0,32.000000
-36,17,50,1624262175.0,32.000000
-35,14,49,1624262175.0,32.000000
-34,15,50,1624262175.0,32.000000
-34,18,51,1624262175.0,32.000000
-34,18,50,1624262175.0,32.000000
-32,19,52,1624262175.0,32.000000
-31,18,52,1624262175.0,32.000000
-30,17,53,1624262175.0,32.000000
-31,18,53,1624262175.0,32.000000
-31,18,52,1624262175.0,32.000000
-32,17,52,1624262175.0,32.000000
-31,14,53,1624262175.0,32.000000
-30,14,53,1624262175.0,32.000000
-30,14,53,1624262175.0,32.000000
-30,15,53,1624262175.0,32.000000
-30,15,53,1624262175.0,32.000000
-30,16,53,1624262175.0,32.000000
-30,16,53,1624262175.0,32.000000
-30,17,53,1624262175.0,32.000000
-31,16,53,1624262175.0,32.000000
-31,16,52,1624262175.0,32.000000
-31,16,53,1624262175.0,32.000000
-31,17,52,1624262175.0,32.000000
-32,16,52,1624262175.0,32.000000
-32,17,52,1624262175.0,32.000000
-32,16,52,1624262175.0,32.000000
-31,16,52,1624262175.0,32.000000
-32,17,52,1624262175.0,32.000000
-32,17,53,1624262175.0,32.000000
-32,17,52,1624262175.0,32.000000
-32,17,52,1624262175.0,32.000000
-31,16,52,1624262175.0,32.000000
-32,16,52,1624262175.0,32.000000
-32,17,52,1624262175.0,32.000000
-32,17,52,1624262175.0,32.000000
-31,17,52,1624262175.0,32.000000
-32,17,52,1624262175.0,32.000000
-32,17,52,1624262175.0,32.000000
-32,17,52,1624262175.0,32.000000
-32,17,52,1624262175.0,32.000000
-32,17,52,1624262175.0,32.000000
-32,17,52,1624262175.0,32.000000
-32,16,52,1624262175.0,32.000000
-32,17,52,1624262175.0,32.000000
-32,18,52,1624262175.0,32.000000
-32,17,52,1624262175.0,32.000000
-32,17,52,1624262175.0,32.000000
-32,18,52,1624262175.0,32.000000
-32,17,52,1624262175.0,32.000000
-31,16,52,1624262175.0,32.000000
-32,17,52,1624262175.0,32.000000
-32,18,52,1624262175.0,32.000000
-32,16,52,1624262175.0,32.000000
-31,16,52,1624262175.0,32.000000
-31,17,52,1624262175.0,32.000000
-32,18,52,1624262175.0,32.000000
-32,17,52,1624262175.0,32.000000
-31,16,52,1624262175.0,32.000000
-31,17,52,1624262175.0,32.000000
-31,17,52,1624262175.0,32.000000
-31,17,52,1624262175.0,32.000000
-31,17,53,1624262175.0,32.000000
-31,17,52,1624262175.0,32.000000
-31,17,53,1624262175.0,32.000000
-31,17,53,1624262175.0,32.000000
-31,17,52,1624262175.0,32.000000
-31,17,52,1624262175.0,32.000000
-31,17,52,1624262175.0,32.000000
-31,17,52,1624262175.0,32.000000
-31,17,52,1624262175.0,32.000000
-31,16,53,1624262175.0,32.000000
-30,16,53,1624262175.0,32.000000
-32,18,52,1624262175.0,32.000000
-32,17,52,1624262175.0,32.000000
-32,16,52,1624262175.0,32.000000
-32,16,52,1624262175.0,32.000000
-33,18,51,1624262175.0,32.000000
-32,17,51,1624262175.0,32.000000
-32,16,52,1624262175.0,32.000000
-32,18,52,1624262175.0,32.000000
-31,17,53,1624262175.0,32.000000
-30,17,53,1624262175.0,32.000000
-31,18,52,1624262175.0,32.000000
-31,17,52,1624262175.0,32.000000
-31,17,53,1624262175.0,32.000000
-31,18,53,1624262175.0,32.000000
-30,16,53,1624262175.0,32.000000
-31,16,52,1624262175.0,32.000000
-31,17,53,1624262175.0,32.000000
-31,18,53,1624262175.0,32.000000
-31,17,53,1624262175.0,32.000000
-30,16,53,1624262175.0,32.000000
-30,17,53,1624262175.0,32.000000
-30,17,53,1624262175.0,32.000000
-31,17,53,1624262175.0,32.000000
-30,17,53,1624262175.0,32.000000
-29,16,54,1624262175.0,32.000000
-29,16,54,1624262175.0,32.000000
-30,16,53,1624262175.0,32.000000
-29,17,54,1624262175.0,32.000000
-29,16,53,1624262175.0,32.000000
-29,17,54,1624262175.0,32.000000
-30,17,53,1624262175.0,32.000000
-30,16,52,1624262175.0,32.000000
-30,19,52,1624262175.0,32.000000
-31,14,52,1624262175.0,32.000000
-32,17,52,1624262175.0,32.000000
-32,17,52,1624262175.0,32.000000
-32,16,52,1624262175.0,32.000000
-32,17,52,1624262175.0,32.000000
-31,17,52,1624262175.0,32.000000
-31,17,53,1624262175.0,32.000000
-32,17,52,1624262175.0,32.000000
-33,17,52,1624262175.0,32.000000
-32,16,52,1624262175.0,32.000000
-32,17,52,1624262175.0,32.000000
-32,17,52,1624262175.0,32.000000
-32,17,52,1624262175.0,32.000000
-32,17,52,1624262175.0,32.000000
-32,17,53,1624262175.0,32.000000
-31,17,52,1624262175.0,32.000000
-31,17,52,1624262175.0,32.000000
-31,17,52,1624262175.0,32.000000
-31,16,52,1624262175.0,32.000000
-31,16,53,1624262175.0,32.000000
-31,17,52,1624262175.0,32.000000
-32,17,53,1624262175.0,32.000000
-31,16,53,1624262175.0,32.000000
-32,16,52,1624262175.0,32.000000
-32,17,52,1624262175.0,32.000000
-31,16,52,1624262175.0,32.000000
-31,17,52,1624262175.0,32.000000
-32,17,52,1624262175.0,32.000000
-32,17,52,1624262175.0,32.000000
-31,17,52,1624262175.0,32.000000
-31,16,52,1624262175.0,32.000000
-31,16,52,1624262175.0,32.000000
-32,16,52,1624262175.0,32.000000
-32,16,52,1624262175.0,32.000000
-31,16,52,1624262175.0,32.000000
-32,16,52,1624262175.0,32.000000
-32,16,52,1624262175.0,32.000000
-32,16,52,1624262175.0,32.000000
-32,17,52,1624262175.0,32.000000
-32,17,52,1624262175.0,32.000000
-32,17,52,1624262175.0,32.000000
-31,16,52,1624262175.0,32.000000
-32,17,52,1624262175.0,32.000000
-31,17,53,1624262175.0,32.000000
-30,16,53,1624262175.0,32.000000
-31,16,52,1624262175.0,32.000000
-31,16,53,1624262175.0,32.000000
-30,15,53,1624262175.0,32.000000
-30,16,53,1624262175.0,32.000000
-31,16,53,1624262175.0,32.000000
-31,16,53,1624262175.0,32.000000
-30,16,53,1624262175.0,32.000000
-31,17,53,1624262175.0,32.000000
-31,17,53,1624262175.0,32.000000
-31,17,53,1624262175.0,32.000000
-31,17,53,1624262175.0,32.000000
-31,16,52,1624262175.0,32.000000
-32,17,52,1624262175.0,32.000000
-32,16,52,1624262175.0,32.000000
-32,17,52,1624262175.0,32.000000
-32,17,52,1624262175.0,32.000000
-31,17,52,1624262175.0,32.000000
-31,17,52,1624262175.0,32.000000
-32,17,52,1624262175.0,32.000000
-32,17,52,1624262175.0,32.000000
-31,16,53,1624262175.0,32.000000
-31,16,52,1624262175.0,32.000000
-31,16,52,1624262175.0,32.000000
-31,17,52,1624262175.0,32.000000
-31,16,52,1624262175.0,32.000000
-32,17,52,1624262175.0,32.000000
-31,16,52,1624262175.0,32.000000
-31,17,52,1624262175.0,32.000000
-31,16,52,1624262175.0,32.000000
-31,17,52,1624262175.0,32.000000
-31,17,52,1624262175.0,32.000000
-32,17,53,1624262175.0,32.000000
-32,16,52,1624262175.0,32.000000
-31,16,52,1624262175.0,32.000000
-32,16,52,1624262175.0,32.000000
-32,17,52,1624262175.0,32.000000
-32,17,52,1624262175.0,32.000000
-31,16,52,1624262175.0,32.000000
-31,16,53,1624262175.0,32.000000
-31,17,52,1624262175.0,32.000000
-31,17,53,1624262175.0,32.000000
-31,17,53,1624262175.0,32.000000
-31,16,52,1624262175.0,32.000000
