ACC_X,ACC_Y,ACC_Z,start_time_unix,sampling_rate
-25,-1,58,1624275804.0,32.000000
-25,-1,59,1624275804.0,32.000000
-25,-1,59,1624275804.0,32.000000
-25,-1,58,1624275804.0,32.000000
-25,-1,59,1624275804.0,32.000000
-25,-1,58,1624275804.0,32.000000
-25,-1,58,1624275804.0,32.000000
-25,-1,58,1624275804.0,32.000000
-25,-1,58,1624275804.0,32.000000
-25,-1,59,1624275804.0,32.000000
-25,-1,59,1624275804.0,32.000000
-25,-1,58,1624275804.0,32.000000
-25,-1,59,1624275804.0,32.000000
-25,-1,59,1624275804.0,32.000000
-25,-1,58,1624275804.0,32.000000
-25,-1,58,1624275804.0,32.000000
-25,-1,58,1624275804.0,32.000000
-25,-1,59,1624275804.0,32.000000
-25,-1,58,1624275804.0,32.000000
-25,-1,58,1624275804.0,32.000000
-25,-2,59,1624275804.0,32.000000
-25,-1,58,1624275804.0,32.000000
-25,-1,59,1624275804.0,32.000000
-25,-1,58,1624275804.0,32.000000
-25,-1,58,1624275804.0,32.000000
-25,-1,59,1624275804.0,32.000000
-26,-1,58,1624275804.0,32.000000
-25,-1,58,1624275804.0,32.000000
-25,-1,58,1624275804.0,32.000000
-25,-1,58,1624275804.0,32.000000
-25,-1,59,1624275804.0,32.000000
-25,-1,59,1624275804.0,32.000000
-25,-1,59,1624275804.0,32.000000
-25,-1,59,1624275804.0,32.000000
-25,-1,58,1624275804.0,32.000000
-25,-1,58,1624275804.0,32.000000
-25,-1,58,1624275804.0,32.000000
-25,-1,58,1624275804.0,32.000000
-25,-1,59,1624275804.0,32.000000
-25,-1,59,1624275804.0,32.000000
-25,-1,58,1624275804.0,32.000000
-25,-1,59,1624275804.0,32.000000
-25,-1,58,1624275804.0,32.000000
-25,-1,59,1624275804.0,32.000000
-25,-1,59,1624275804.0,32.000000
-24,-1,59,1624275804.0,32.000000
-24,-1,59,1624275804.0,32.000000
-25,-1,59,1624275804.0,32.000000
-25,-2,59,1624275804.0,32.000000
-25,-1,58,1624275804.0,32.000000
-25,-1,58,1624275804.0,32.000000
-25,-1,59,1624275804.0,32.000000
-25,-1,59,1624275804.0,32.000000
-25,-1,59,1624275804.0,32.000000
-25,-1,59,1624275804.0,32.000000
-24,-2,59,1624275804.0,32.000000
-24,-1,59,1624275804.0,32.000000
-25,-1,58,1624275804.0,32.000000
-25,-1,58,1624275804.0,32.000000
-25,-1,59,1624275804.0,32.000000
-25,-1,59,1624275804.0,32.000000
-25,-1,59,1624275804.0,32.000000
-25,-1,59,1624275804.0,32.000000
-24,-1,58,1624275804.0,32.000000
-25,-1,58,1624275804.0,32.000000
-25,-1,59,1624275804.0,32.000000
-24,-1,59,1624275804.0,32.000000
-24,-2,59,1624275804.0,32.000000
-25,-1,58,1624275804.0,32.000000
-24,-1,58,1624275804.0,32.000000
-25,-1,59,1624275804.0,32.000000
-25,-1,59,1624275804.0,32.000000
-25,-2,59,1624275804.0,32.000000
-24,-2,59,1624275804.0,32.000000
-23,-2,58,1624275804.0,32.000000
-24,-2,58,1624275804.0,32.000000
-25,-1,59,1624275804.0,32.000000
-26,-1,58,1624275804.0,32.000000
-24,-1,59,1624275804.0,32.000000
-24,-1,59,1624275804.0,32.000000
-25,-1,58,1624275804.0,32.000000
-26,-1,58,1624275804.0,32.000000
-25,-2,59,1624275804.0,32.000000
-24,-1,59,1624275804.0,32.000000
-25,0,59,1624275804.0,32.000000
-25,-1,58,1624275804.0,32.000000
-25,-2,59,1624275804.0,32.000000
-25,-2,59,1624275804.0,32.000000
-25,-1,58,1624275804.0,32.000000
-25,-1,59,1624275804.0,32.000000
-25,-1,59,1624275804.0,32.000000
-24,-1,59,1624275804.0,32.000000
-24,-1,59,1624275804.0,32.000000
-25,-1,59,1624275804.0,32.000000
-25,-2,58,1624275804.0,32.000000
-25,-1,59,1624275804.0,32.000000
-24,-1,59,1624275804.0,32.000000
-24,-1,59,1624275804.0,32.000000
-24,-1,59,1624275804.0,32.000000
-24,-1,59,1624275804.0,32.000000
-24,-1,59,1624275804.0,32.000000
-24,-1,59,1624275804.0,32.000000
-24,-1,58,1624275804.0,32.000000
-25,-1,59,1624275804.0,32.000000
-25,-1,59,1624275804.0,32.000000
-24,-2,59,1624275804.0,32.000000
-24,-1,58,1624275804.0,32.000000
-23,-1,59,1624275804.0,32.000000
-24,-2,59,1624275804.0,32.000000
-26,-1,59,1624275804.0,32.000000
-26,-1,59,1624275804.0,32.000000
-25,-1,58,1624275804.0,32.000000
-24,-1,58,1624275804.0,32.000000
-24,-1,59,1624275804.0,32.000000
-25,-2,58,1624275804.0,32.000000
-25,-2,59,1624275804.0,32.000000
-25,-2,59,1624275804.0,32.000000
-25,-1,59,1624275804.0,32.000000
-24,-1,58,1624275804.0,32.000000
-24,-1,59,1624275804.0,32.000000
-25,-2,59,1624275804.0,32.000000
-25,-1,59,1624275804.0,32.000000
-25,-1,59,1624275804.0,32.000000
-25,-1,59,1624275804.0,32.000000
-24,-1,59,1624275804.0,32.000000
-24,-1,59,1624275804.0,32.000000
-24,-2,59,1624275804.0,32.000000
-24,-2,59,1624275804.0,32.000000
-25,-1,59,1624275804.0,32.000000
-25,-1,59,1624275804.0,32.000000
-24,-1,59,1624275804.0,32.000000
-24,-1,59,1624275804.0,32.000000
-24,-1,59,1624275804.0,32.000000
-24,-1,58,1624275804.0,32.000000
-24,-1,59,1624275804.0,32.000000
-24,-1,59,1624275804.0,32.000000
-24,-1,58,1624275804.0,32.000000
-24,-1,59,1624275804.0,32.000000
-24,-1,59,1624275804.0,32.000000
-24,-1,59,1624275804.0,32.000000
-25,-1,59,1624275804.0,32.000000
-25,-2,59,1624275804.0,32.000000
-24,-1,59,1624275804.0,32.000000
-24,-1,59,1624275804.0,32.000000
-24,-1,59,1624275804.0,32.000000
-25,-2,59,1624275804.0,32.000000
-24,-2,59,1624275804.0,32.000000
-25,-1,59,1624275804.0,32.000000
-25,-1,59,1624275804.0,32.000000
-24,-1,59,1624275804.0,32.000000
-24,-1,59,1624275804.0,32.000000
-24,-1,59,1624275804.0,32.000000
-23,-2,59,1624275804.0,32.000000
-24,-2,58,1624275804.0,32.000000
-24,-2,59,1624275804.0,32.000000
-24,-1,59,1624275804.0,32.000000
-24,-1,59,1624275804.0,32.000000
-24,-1,59,1624275804.0,32.000000
-24,-1,59,1624275804.0,32.000000
-24,-2,59,1624275804.0,32.000000
-24,-1,59,1624275804.0,32.000000
-24,-1,59,1624275804.0,32.000000
-24,-1,59,1624275804.0,32.000000
-24,-1,59,1624275804.0,32.000000
-24,-1,59,1624275804.0,32.000000
-24,-2,59,1624275804.0,32.000000
-24,-2,59,1624275804.0,32.000000
-24,-2,59,1624275804.0,32.000000
-24,-2,59,1624275804.0,32.000000
-24,-1,58,1624275804.0,32.000000
-24,-1,59,1624275804.0,32.000000
-24,-1,59,1624275804.0,32.000000
-25,-1,59,1624275804.0,32.000000
-25,-1,59,1624275804.0,32.000000
-24,-1,59,1624275804.0,32.000000
-24,-1,59,1624275804.0,32.000000
-24,-1,59,1624275804.0,32.000000
-24,-1,59,1624275804.0,32.000000
-24,-1,59,1624275804.0,32.000000
-25,-1,58,1624275804.0,32.000000
-25,-1,59,1624275804.0,32.000000
-25,-1,59,1624275804.0,32.000000
-24,-1,59,1624275804.0,32.000000
-24,-1,59,1624275804.0,32.000000
-24,-2,59,1624275804.0,32.000000
-25,-1,59,1624275804.0,32.000000
-25,-1,59,1624275804.0,32.000000
-25,-1,59,1624275804.0,32.000000
-24,-1,59,1624275804.0,32.000000
-24,-1,59,1624275804.0,32.000000
-25,-2,59,1624275804.0,32.000000
-25,-1,59,1624275804.0,32.000000
-24,-1,59,1624275804.0,32.000000
-25,-1,59,1624275804.0,32.000000
-25,-1,59,1624275804.0,32.000000
-24,-1,59,1624275804.0,32.000000
-24,-1,59,1624275804.0,32.000000
-25,-1,59,1624275804.0,32.000000
-25,-1,58,1624275804.0,32.000000
-25,-2,59,1624275804.0,32.000000
-25,-1,58,1624275804.0,32.000000
-24,-1,59,1624275804.0,32.000000
-24,-1,59,1624275804.0,32.000000
-24,-1,59,1624275804.0,32.000000
-24,-1,59,1624275804.0,32.000000
-24,-1,59,1624275804.0,32.000000
-25,-1,59,1624275804.0,32.000000
-25,-1,59,1624275804.0,32.000000
-25,-1,59,1624275804.0,32.000000
-24,-1,59,1624275804.0,32.000000
-24,-1,59,1624275804.0,32.000000
-25,-1,59,1624275804.0,32.000000
-25,-1,59,1624275804.0,32.000000
-24,-1,59,1624275804.0,32.000000
-24,-1,59,1624275804.0,32.000000
-25,-1,59,1624275804.0,32.000000
-24,-1,59,1624275804.0,32.000000
-25,-1,59,1624275804.0,32.000000
-25,-1,59,1624275804.0,32.000000
-25,-1,58,1624275804.0,32.000000
-24,-1,59,1624275804.0,32.000000
-24,-1,59,1624275804.0,32.000000
-25,-1,58,1624275804.0,32.000000
-24,-1,59,1624275804.0,32.000000
-24,-1,59,1624275804.0,32.000000
-24,-1,59,1624275804.0,32.000000
-24,-1,59,1624275804.0,32.000000
-24,-1,59,1624275804.0,32.000000
-25,-2,59,1624275804.0,32.000000
-24,-1,59,1624275804.0,32.000000
-24,-1,59,1624275804.0,32.000000
-24,-1,59,1624275804.0,32.000000
-25,-2,58,1624275804.0,32.000000
-25,-1,59,1624275804.0,32.000000
-25,-1,59,1624275804.0,32.000000
-24,-1,59,1624275804.0,32.000000
-24,-2,60,1624275804.0,32.000000
-24,-2,59,1624275804.0,32.000000
-25,-1,58,1624275804.0,32.000000
-25,-1,59,1624275804.0,32.000000
-24,-1,59,1624275804.0,32.000000
-24,-1,59,1624275804.0,32.000000
-24,-1,59,1624275804.0,32.000000
-24,-1,59,1624275804.0,32.000000
-25,-2,59,1624275804.0,32.000000
-25,-2,59,1624275804.0,32.000000
-24,-2,59,1624275804.0,32.000000
-24,-1,59,1624275804.0,32.000000
-24,-1,59,1624275804.0,32.000000
-24,-1,59,1624275804.0,32.000000
-25,-1,59,1624275804.0,32.000000
-25,-2,59,1624275804.0,32.000000
-24,-1,59,1624275804.0,32.000000
-24,-1,59,1624275804.0,32.000000
-24,-1,59,1624275804.0,32.000000
-24,-1,59,1624275804.0,32.000000
-25,-1,59,1624275804.0,32.000000
-25,-1,59,1624275804.0,32.000000
-24,-2,59,1624275804.0,32.000000
-24,-1,58,1624275804.0,32.000000
-24,-1,59,1624275804.0,32.000000
-24,-1,59,1624275804.0,32.000000
-24,-1,59,1624275804.0,32.000000
-24,-1,59,1624275804.0,32.000000
-24,-1,59,1624275804.0,32.000000
-24,-1,59,1624275804.0,32.000000
-24,-1,59,1624275804.0,32.000000
-24,-1,59,1624275804.0,32.000000
-24,-1,59,1624275804.0,32.000000
-24,-1,59,1624275804.0,32.000000
-24,-1,59,1624275804.0,32.000000
-24,-1,59,1624275804.0,32.000000
-24,-1,59,1624275804.0,32.000000
-25,-1,59,1624275804.0,32.000000
-25,-1,59,1624275804.0,32.000000
-25,-1,59,1624275804.0,32.000000
-25,-1,58,1624275804.0,32.000000
-25,-1,59,1624275804.0,32.000000
-24,-1,59,1624275804.0,32.000000
-24,-1,59,1624275804.0,32.000000
-25,-1,58,1624275804.0,32.000000
-25,-1,59,1624275804.0,32.000000
-24,-2,59,1624275804.0,32.000000
-23,-1,59,1624275804.0,32.000000
-24,-1,59,1624275804.0,32.000000
-25,-1,58,1624275804.0,32.000000
-24,-2,59,1624275804.0,32.000000
-24,-1,59,1624275804.0,32.000000
-24,-1,59,1624275804.0,32.000000
-24,-1,59,1624275804.0,32.000000
-24,-1,59,1624275804.0,32.000000
-25,-1,59,1624275804.0,32.000000
-24,-1,59,1624275804.0,32.000000
-24,-1,59,1624275804.0,32.000000
-24,-1,59,1624275804.0,32.000000
-24,-1,59,1624275804.0,32.000000
-24,-1,59,1624275804.0,32.000000
-25,-1,59,1624275804.0,32.000000
-25,-2,59,1624275804.0,32.000000
-24,-2,59,1624275804.0,32.000000
-24,-1,59,1624275804.0,32.000000
-24,-1,59,1624275804.0,32.000000
-24,-1,59,1624275804.0,32.000000
-24,-1,59,1624275804.0,32.000000
-24,-1,59,1624275804.0,32.000000
-24,-1,58,1624275804.0,32.000000
-24,-1,59,1624275804.0,32.000000
-24,-1,59,1624275804.0,32.000000
-25,-1,59,1624275804.0,32.000000
-24,-1,59,1624275804.0,32.000000
-24,-1,59,1624275804.0,32.000000
-24,-1,59,1624275804.0,32.000000
-24,-1,59,1624275804.0,32.000000
-24,-1,59,1624275804.0,32.000000
-24,-1,58,1624275804.0,32.000000
-24,-1,59,1624275804.0,32.000000
-24,-1,59,1624275804.0,32.000000
-24,-1,59,1624275804.0,32.000000
-24,-1,59,1624275804.0,32.000000
-24,-1,59,1624275804.0,32.000000
-24,-1,59,1624275804.0,32.000000
-25,-1,59,1624275804.0,32.000000
-24,-1,59,1624275804.0,32.000000
-24,-1,59,1624275804.0,32.000000
-24,-1,59,1624275804.0,32.000000
-25,-1,59,1624275804.0,32.000000
-24,-1,59,1624275804.0,32.000000
-24,-1,59,1624275804.0,32.000000
-25,-1,59,1624275804.0,32.000000
-25,-1,59,1624275804.0,32.000000
-24,-1,59,1624275804.0,32.000000
-24,-1,59,1624275804.0,32.000000
-24,-1,58,1624275804.0,32.000000
-25,-1,59,1624275804.0,32.000000
-24,-2,59,1624275804.0,32.000000
-25,-1,59,1624275804.0,32.000000
-25,-1,59,1624275804.0,32.000000
-24,-1,59,1624275804.0,32.000000
-24,-1,59,1624275804.0,32.000000
-24,-1,59,1624275804.0,32.000000
-25,-1,59,1624275804.0,32.000000
-25,-1,59,1624275804.0,32.000000
-24,-1,59,1624275804.0,32.000000
-24,-1,59,1624275804.0,32.000000
-25,-1,59,1624275804.0,32.000000
-25,-1,59,1624275804.0,32.000000
-24,-1,59,1624275804.0,32.000000
-24,-2,58,1624275804.0,32.000000
-24,-1,59,1624275804.0,32.000000
-25,-1,59,1624275804.0,32.000000
-25,-1,59,1624275804.0,32.000000
-25,-1,59,1624275804.0,32.000000
-24,-1,59,1624275804.0,32.000000
-24,-1,58,1624275804.0,32.000000
-24,-1,59,1624275804.0,32.000000
-24,-2,59,1624275804.0,32.000000
-25,-2,59,1624275804.0,32.000000
-24,-1,59,1624275804.0,32.000000
-25,-1,59,1624275804.0,32.000000
-24,-1,59,1624275804.0,32.000000
-24,-1,59,1624275804.0,32.000000
-25,-2,59,1624275804.0,32.000000
-25,-1,59,1624275804.0,32.000000
-25,-1,59,1624275804.0,32.000000
-24,-1,59,1624275804.0,32.000000
-25,-1,59,1624275804.0,32.000000
-24,-1,59,1624275804.0,32.000000
-25,-1,59,1624275804.0,32.000000
-25,-1,59,1624275804.0,32.000000
-24,-1,59,1624275804.0,32.000000
-24,-1,59,1624275804.0,32.000000
-24,-1,59,1624275804.0,32.000000
-24,-1,59,1624275804.0,32.000000
-24,-1,59,1624275804.0,32.000000
-24,-1,59,1624275804.0,32.000000
-24,-1,59,1624275804.0,32.000000
-24,-1,59,1624275804.0,32.000000
-24,-1,59,1624275804.0,32.000000
-24,-1,59,1624275804.0,32.000000
-24,-1,58,1624275804.0,32.000000
-24,-1,59,1624275804.0,32.000000
-24,-1,59,1624275804.0,32.000000
-24,-1,59,1624275804.0,32.000000
-24,-1,59,1624275804.0,32.000000
-24,-1,59,1624275804.0,32.000000
-24,-1,59,1624275804.0,32.000000
-24,-1,59,1624275804.0,32.000000
-24,-1,59,1624275804.0,32.000000
-25,-1,59,1624275804.0,32.000000
-24,-1,59,1624275804.0,32.000000
-24,-1,59,1624275804.0,32.000000
-24,-1,59,1624275804.0,32.000000
-25,-1,59,1624275804.0,32.000000
-24,-2,59,1624275804.0,32.000000
-24,-1,59,1624275804.0,32.000000
-24,-1,59,1624275804.0,32.000000
-24,-1,59,1624275804.0,32.000000
-24,-1,59,1624275804.0,32.000000
-25,-1,59,1624275804.0,32.000000
-24,-1,60,1624275804.0,32.000000
-25,-1,59,1624275804.0,32.000000
-24,-1,59,1624275804.0,32.000000
-24,-2,58,1624275804.0,32.000000
-24,-1,60,1624275804.0,32.000000
-24,-2,59,1624275804.0,32.000000
-24,-1,59,1624275804.0,32.000000
-25,-1,59,1624275804.0,32.000000
-24,-2,58,1624275804.0,32.000000
-25,-2,59,1624275804.0,32.000000
-24,-1,59,1624275804.0,32.000000
-24,-1,58,1624275804.0,32.000000
-24,-1,60,1624275804.0,32.000000
-24,-1,59,1624275804.0,32.000000
-25,-2,58,1624275804.0,32.000000
-25,-2,59,1624275804.0,32.000000
-24,-1,59,1624275804.0,32.000000
-24,-1,59,1624275804.0,32.000000
-24,-1,59,1624275804.0,32.000000
-24,-1,59,1624275804.0,32.000000
-25,-1,59,1624275804.0,32.000000
-25,-1,59,1624275804.0,32.000000
-24,-1,59,1624275804.0,32.000000
-24,-1,59,1624275804.0,32.000000
-24,-1,59,1624275804.0,32.000000
-24,-1,59,1624275804.0,32.000000
-24,-1,59,1624275804.0,32.000000
-24,-2,59,1624275804.0,32.000000
-24,-1,59,1624275804.0,32.000000
-24,-1,59,1624275804.0,32.000000
-24,-1,59,1624275804.0,32.000000
-24,-1,59,1624275804.0,32.000000
-24,-1,59,1624275804.0,32.000000
-25,-1,58,1624275804.0,32.000000
-25,-1,59,1624275804.0,32.000000
-24,-1,59,1624275804.0,32.000000
-24,-1,59,1624275804.0,32.000000
-24,-1,59,1624275804.0,32.000000
-24,-1,59,1624275804.0,32.000000
-24,-1,59,1624275804.0,32.000000
-24,-1,59,1624275804.0,32.000000
-24,-1,59,1624275804.0,32.000000
-24,-1,59,1624275804.0,32.000000
-24,-1,59,1624275804.0,32.000000
-25,-1,59,1624275804.0,32.000000
-25,-1,59,1624275804.0,32.000000
-24,-1,59,1624275804.0,32.000000
-24,-1,59,1624275804.0,32.000000
-24,-1,59,1624275804.0,32.000000
-24,-1,59,1624275804.0,32.000000
-24,-1,59,1624275804.0,32.000000
-24,-1,59,1624275804.0,32.000000
-24,-1,59,1624275804.0,32.000000
-24,-1,59,1624275804.0,32.000000
-24,-1,59,1624275804.0,32.000000
-24,-1,59,1624275804.0,32.000000
-24,-1,59,1624275804.0,32.000000
-25,-1,59,1624275804.0,32.000000
-24,-1,58,1624275804.0,32.000000
-24,-1,59,1624275804.0,32.000000
-24,-1,58,1624275804.0,32.000000
-25,-1,58,1624275804.0,32.000000
-24,-1,59,1624275804.0,32.000000
-24,-1,59,1624275804.0,32.000000
-24,-2,59,1624275804.0,32.000000
-24,-1,59,1624275804.0,32.000000
-25,-1,58,1624275804.0,32.000000
-25,-1,59,1624275804.0,32.000000
-24,-1,59,1624275804.0,32.000000
-24,-1,59,1624275804.0,32.000000
-25,-1,59,1624275804.0,32.000000
-25,-1,59,1624275804.0,32.000000
-25,-2,59,1624275804.0,32.000000
-24,-1,59,1624275804.0,32.000000
-24,-1,59,1624275804.0,32.000000
-24,-1,59,1624275804.0,32.000000
-24,-1,59,1624275804.0,32.000000
-25,-1,59,1624275804.0,32.000000
-25,-1,59,1624275804.0,32.000000
-25,-1,59,1624275804.0,32.000000
-24,-1,59,1624275804.0,32.000000
-24,-1,59,1624275804.0,32.000000
-24,-1,59,1624275804.0,32.000000
-25,-1,59,1624275804.0,32.000000
-25,-1,59,1624275804.0,32.000000
-24,-1,59,1624275804.0,32.000000
-24,-1,59,1624275804.0,32.000000
-25,-1,58,1624275804.0,32.000000
-25,-1,59,1624275804.0,32.000000
-25,-1,59,1624275804.0,32.000000
-25,-1,58,1624275804.0,32.000000
-24,-1,59,1624275804.0,32.000000
-24,-1,59,1624275804.0,32.000000
-25,-1,59,1624275804.0,32.000000
-24,-1,59,1624275804.0,32.000000
-24,-1,59,1624275804.0,32.000000
-24,-1,59,1624275804.0,32.000000
-25,-1,59,1624275804.0,32.000000
-25,-1,59,1624275804.0,32.000000
-25,-1,59,1624275804.0,32.000000
-24,-1,59,1624275804.0,32.000000
-24,-1,59,1624275804.0,32.000000
-24,-1,59,1624275804.0,32.000000
-24,-1,59,1624275804.0,32.000000
-25,-1,59,1624275804.0,32.000000
-25,-1,59,1624275804.0,32.000000
-24,-1,59,1624275804.0,32.000000
-24,-1,59,1624275804.0,32.000000
-25,-1,58,1624275804.0,32.000000
-24,-1,59,1624275804.0,32.000000
-24,-1,59,1624275804.0,32.000000
-25,-1,59,1624275804.0,32.000000
-24,-1,59,1624275804.0,32.000000
-24,-1,59,1624275804.0,32.000000
-24,-1,59,1624275804.0,32.000000
-24,-1,59,1624275804.0,32.000000
-24,-1,59,1624275804.0,32.000000
-25,-1,59,1624275804.0,32.000000
-24,-2,59,1624275804.0,32.000000
-24,-1,59,1624275804.0,32.000000
-25,-1,59,1624275804.0,32.000000
-24,-1,59,1624275804.0,32.000000
-24,-1,59,1624275804.0,32.000000
-24,-1,59,1624275804.0,32.000000
-24,-2,59,1624275804.0,32.000000
-24,-1,59,1624275804.0,32.000000
-25,-1,58,1624275804.0,32.000000
-24,-1,59,1624275804.0,32.000000
-24,-1,59,1624275804.0,32.000000
-24,-1,59,1624275804.0,32.000000
-24,-1,59,1624275804.0,32.000000
-25,-1,59,1624275804.0,32.000000
-25,-2,59,1624275804.0,32.000000
-24,-1,59,1624275804.0,32.000000
-24,-1,59,1624275804.0,32.000000
-24,-1,59,1624275804.0,32.000000
-24,-1,59,1624275804.0,32.000000
-24,-1,59,1624275804.0,32.000000
-25,-1,59,1624275804.0,32.000000
-24,-1,59,1624275804.0,32.000000
-24,-1,59,1624275804.0,32.000000
-24,-1,59,1624275804.0,32.000000
-24,-1,59,1624275804.0,32.000000
-24,-1,59,1624275804.0,32.000000
-24,-1,59,1624275804.0,32.000000
-24,-1,59,1624275804.0,32.000000
-24,-1,59,1624275804.0,32.000000
-24,-1,59,1624275804.0,32.000000
-24,-1,59,1624275804.0,32.000000
-24,-1,59,1624275804.0,32.000000
-24,-1,59,1624275804.0,32.000000
-24,-1,59,1624275804.0,32.000000
-24,-1,59,1624275804.0,32.000000
-25,-1,59,1624275804.0,32.000000
-24,-1,59,1624275804.0,32.000000
-24,-1,59,1624275804.0,32.000000
-25,-1,58,1624275804.0,32.000000
-24,-1,59,1624275804.0,32.000000
-24,-1,59,1624275804.0,32.000000
-25,-1,59,1624275804.0,32.000000
-25,-1,59,1624275804.0,32.000000
-24,-1,59,1624275804.0,32.000000
-25,-1,59,1624275804.0,32.000000
-25,-1,59,1624275804.0,32.000000
-25,-1,59,1624275804.0,32.000000
-25,-1,59,1624275804.0,32.000000
-25,-1,59,1624275804.0,32.000000
-24,-1,59,1624275804.0,32.000000
-25,-1,59,1624275804.0,32.000000
-24,-1,59,1624275804.0,32.000000
-25,-1,59,1624275804.0,32.000000
-25,-1,59,1624275804.0,32.000000
-25,-1,59,1624275804.0,32.000000
-25,-1,59,1624275804.0,32.000000
-25,-1,59,1624275804.0,32.000000
-25,-1,59,1624275804.0,32.000000
-25,-1,58,1624275804.0,32.000000
-25,-1,59,1624275804.0,32.000000
-25,-1,59,1624275804.0,32.000000
-25,-1,58,1624275804.0,32.000000
-25,-1,59,1624275804.0,32.000000
-25,-1,59,1624275804.0,32.000000
-25,-2,59,1624275804.0,32.000000
-24,-1,59,1624275804.0,32.000000
-25,-1,59,1624275804.0,32.000000
-24,-1,59,1624275804.0,32.000000
-24,-2,59,1624275804.0,32.000000
-25,-1,59,1624275804.0,32.000000
-25,-1,58,1624275804.0,32.000000
-24,-2,59,1624275804.0,32.000000
-24,-1,59,1624275804.0,32.000000
-25,-1,58,1624275804.0,32.000000
-24,-1,59,1624275804.0,32.000000
-24,-1,59,1624275804.0,32.000000
-25,-1,58,1624275804.0,32.000000
-25,-2,59,1624275804.0,32.000000
-25,-1,59,1624275804.0,32.000000
-25,-1,59,1624275804.0,32.000000
-25,-1,59,1624275804.0,32.000000
-24,-1,59,1624275804.0,32.000000
-24,-1,59,1624275804.0,32.000000
-24,-1,59,1624275804.0,32.000000
-24,-2,58,1624275804.0,32.000000
-24,-1,59,1624275804.0,32.000000
-25,-1,59,1624275804.0,32.000000
-24,-1,59,1624275804.0,32.000000
-24,-1,59,1624275804.0,32.000000
-24,-1,58,1624275804.0,32.000000
-25,-1,58,1624275804.0,32.000000
-24,-1,59,1624275804.0,32.000000
-24,-1,59,1624275804.0,32.000000
-24,-1,59,1624275804.0,32.000000
-24,-1,59,1624275804.0,32.000000
-24,-1,59,1624275804.0,32.000000
-24,-1,59,1624275804.0,32.000000
-24,-2,59,1624275804.0,32.000000
-24,-1,59,1624275804.0,32.000000
-24,-1,59,1624275804.0,32.000000
-24,-1,59,1624275804.0,32.000000
-24,-1,59,1624275804.0,32.000000
-24,-1,59,1624275804.0,32.000000
-24,-1,59,1624275804.0,32.000000
-24,-1,59,1624275804.0,32.000000
-24,-1,59,1624275804.0,32.000000
-24,-1,59,1624275804.0,32.000000
-24,-1,59,1624275804.0,32.000000
-24,-1,59,1624275804.0,32.000000
-24,-1,59,1624275804.0,32.000000
-24,-1,59,1624275804.0,32.000000
-24,-1,59,1624275804.0,32.000000
-25,-1,59,1624275804.0,32.000000
-25,-1,59,1624275804.0,32.000000
-24,-1,59,1624275804.0,32.000000
-24,-1,59,1624275804.0,32.000000
-24,-1,59,1624275804.0,32.000000
-24,-1,59,1624275804.0,32.000000
-24,-1,59,1624275804.0,32.000000
-24,-1,59,1624275804.0,32.000000
-24,-1,59,1624275804.0,32.000000
-24,-1,59,1624275804.0,32.000000
-24,-1,58,1624275804.0,32.000000
-24,-1,59,1624275804.0,32.000000
-25,-1,59,1624275804.0,32.000000
-24,-1,59,1624275804.0,32.000000
-25,-2,59,1624275804.0,32.000000
-25,-1,59,1624275804.0,32.000000
-24,-1,59,1624275804.0,32.000000
-24,-1,59,1624275804.0,32.000000
-24,-2,59,1624275804.0,32.000000
-25,-1,58,1624275804.0,32.000000
-25,-1,58,1624275804.0,32.000000
-24,-1,59,1624275804.0,32.000000
-24,-1,59,1624275804.0,32.000000
-25,-1,58,1624275804.0,32.000000
-25,-1,59,1624275804.0,32.000000
-25,-2,59,1624275804.0,32.000000
-25,-1,59,1624275804.0,32.000000
-24,-1,59,1624275804.0,32.000000
-24,-1,59,1624275804.0,32.000000
-24,-1,59,1624275804.0,32.000000
-25,-1,59,1624275804.0,32.000000
-25,-1,59,1624275804.0,32.000000
-25,-1,59,1624275804.0,32.000000
-24,-1,59,1624275804.0,32.000000
-24,-1,59,1624275804.0,32.000000
-24,-1,59,1624275804.0,32.000000
-25,-1,59,1624275804.0,32.000000
-25,-1,59,1624275804.0,32.000000
-25,-1,59,1624275804.0,32.000000
-24,-1,59,1624275804.0,32.000000
-24,-1,59,1624275804.0,32.000000
-24,-1,59,1624275804.0,32.000000
-25,-1,59,1624275804.0,32.000000
-25,-1,59,1624275804.0,32.000000
-25,-1,58,1624275804.0,32.000000
-24,-1,59,1624275804.0,32.000000
-24,-1,59,1624275804.0,32.000000
-24,-1,59,1624275804.0,32.000000
-25,-1,59,1624275804.0,32.000000
-25,-1,59,1624275804.0,32.000000
-24,-1,59,1624275804.0,32.000000
-24,-1,59,1624275804.0,32.000000
-24,-1,59,1624275804.0,32.000000
-24,-1,59,1624275804.0,32.000000
-24,-1,59,1624275804.0,32.000000
-25,-1,58,1624275804.0,32.000000
-24,-1,59,1624275804.0,32.000000
-24,-1,59,1624275804.0,32.000000
-24,-1,59,1624275804.0,32.000000
-24,-1,59,1624275804.0,32.000000
-24,-1,59,1624275804.0,32.000000
-25,-1,59,1624275804.0,32.000000
-25,-1,59,1624275804.0,32.000000
-24,-1,59,1624275804.0,32.000000
-24,-1,59,1624275804.0,32.000000
-24,-1,59,1624275804.0,32.000000
-24,-1,59,1624275804.0,32.000000
-24,-1,59,1624275804.0,32.000000
-24,-1,59,1624275804.0,32.000000
-24,-1,59,1624275804.0,32.000000
-24,-1,59,1624275804.0,32.000000
-24,-1,59,1624275804.0,32.000000
-24,-1,59,1624275804.0,32.000000
-25,-1,59,1624275804.0,32.000000
-24,-1,59,1624275804.0,32.000000
-24,-1,59,1624275804.0,32.000000
-24,-1,58,1624275804.0,32.000000
-24,-1,59,1624275804.0,32.000000
-24,-1,59,1624275804.0,32.000000
-24,-1,59,1624275804.0,32.000000
-24,-2,59,1624275804.0,32.000000
-25,-1,59,1624275804.0,32.000000
-25,-1,58,1624275804.0,32.000000
-24,-1,59,1624275804.0,32.000000
-24,-1,59,1624275804.0,32.000000
-25,-1,59,1624275804.0,32.000000
-24,-1,59,1624275804.0,32.000000
-24,-1,59,1624275804.0,32.000000
-24,-2,59,1624275804.0,32.000000
-25,-2,59,1624275804.0,32.000000
-24,-1,59,1624275804.0,32.000000
-24,-1,59,1624275804.0,32.000000
-24,-1,59,1624275804.0,32.000000
-24,-1,59,1624275804.0,32.000000
-25,-1,59,1624275804.0,32.000000
-25,-1,59,1624275804.0,32.000000
-24,-1,58,1624275804.0,32.000000
-24,-1,59,1624275804.0,32.000000
-25,-1,59,1624275804.0,32.000000
-25,-1,59,1624275804.0,32.000000
-25,-1,59,1624275804.0,32.000000
-24,-1,59,1624275804.0,32.000000
-24,-1,59,1624275804.0,32.000000
-24,-1,59,1624275804.0,32.000000
-24,-1,59,1624275804.0,32.000000
-25,-1,59,1624275804.0,32.000000
-24,-1,59,1624275804.0,32.000000
-24,-1,59,1624275804.0,32.000000
-24,-1,59,1624275804.0,32.000000
-24,-1,59,1624275804.0,32.000000
-24,-1,59,1624275804.0,32.000000
-25,-1,58,1624275804.0,32.000000
-24,-1,59,1624275804.0,32.000000
-24,-1,59,1624275804.0,32.000000
-24,-1,59,1624275804.0,32.000000
-24,-1,59,1624275804.0,32.000000
-24,-1,59,1624275804.0,32.000000
-24,-1,59,1624275804.0,32.000000
-24,-1,59,1624275804.0,32.000000
-25,-1,59,1624275804.0,32.000000
-24,-1,59,1624275804.0,32.000000
-24,-1,59,1624275804.0,32.000000
-24,-1,59,1624275804.0,32.000000
-24,-1,59,1624275804.0,32.000000
-25,-1,59,1624275804.0,32.000000
-24,-1,59,1624275804.0,32.000000
-24,-1,59,1624275804.0,32.000000
-24,-1,59,1624275804.0,32.000000
-24,-1,59,1624275804.0,32.000000
-24,-1,59,1624275804.0,32.000000
-24,-2,59,1624275804.0,32.000000
-24,-1,59,1624275804.0,32.000000
-24,-1,59,1624275804.0,32.000000
-24,-1,59,1624275804.0,32.000000
-24,-1,59,1624275804.0,32.000000
-25,-1,59,1624275804.0,32.000000
-24,-1,59,1624275804.0,32.000000
-25,-1,59,1624275804.0,32.000000
-24,-1,59,1624275804.0,32.000000
-25,-1,59,1624275804.0,32.000000
-24,-1,59,1624275804.0,32.000000
-24,-1,59,1624275804.0,32.000000
-25,-1,59,1624275804.0,32.000000
-25,-1,59,1624275804.0,32.000000
-24,-1,59,1624275804.0,32.000000
-24,-1,59,1624275804.0,32.000000
-24,-1,58,1624275804.0,32.000000
-25,-1,59,1624275804.0,32.000000
-25,-2,58,1624275804.0,32.000000
-25,-1,59,1624275804.0,32.000000
-25,-1,59,1624275804.0,32.000000
-24,-1,59,1624275804.0,32.000000
-24,-1,59,1624275804.0,32.000000
-25,-1,59,1624275804.0,32.000000
-25,-2,58,1624275804.0,32.000000
-25,-1,59,1624275804.0,32.000000
-25,-1,59,1624275804.0,32.000000
-25,-1,59,1624275804.0,32.000000
-24,-1,59,1624275804.0,32.000000
-24,-1,59,1624275804.0,32.000000
-25,-1,59,1624275804.0,32.000000
-25,-1,59,1624275804.0,32.000000
-25,-1,59,1624275804.0,32.000000
-25,-1,59,1624275804.0,32.000000
-24,-1,59,1624275804.0,32.000000
-24,-1,59,1624275804.0,32.000000
-25,-1,59,1624275804.0,32.000000
-25,-1,59,1624275804.0,32.000000
-25,-1,59,1624275804.0,32.000000
-25,-1,59,1624275804.0,32.000000
-24,-1,59,1624275804.0,32.000000
-24,-1,59,1624275804.0,32.000000
-25,-1,59,1624275804.0,32.000000
-25,-1,58,1624275804.0,32.000000
-24,-1,59,1624275804.0,32.000000
-25,-1,59,1624275804.0,32.000000
-24,-1,59,1624275804.0,32.000000
-24,-1,59,1624275804.0,32.000000
-24,-1,59,1624275804.0,32.000000
-24,-1,59,1624275804.0,32.000000
-24,-1,59,1624275804.0,32.000000
-24,-1,59,1624275804.0,32.000000
-24,-1,59,1624275804.0,32.000000
-24,-1,59,1624275804.0,32.000000
-24,-1,59,1624275804.0,32.000000
-24,-1,59,1624275804.0,32.000000
-24,-1,59,1624275804.0,32.000000
-25,-1,59,1624275804.0,32.000000
-24,-1,59,1624275804.0,32.000000
-24,-1,59,1624275804.0,32.000000
-24,-1,59,1624275804.0,32.000000
-24,-1,59,1624275804.0,32.000000
-24,-1,59,1624275804.0,32.000000
-24,-1,59,1624275804.0,32.000000
-24,-1,59,1624275804.0,32.000000
-24,-1,59,1624275804.0,32.000000
-24,-1,58,1624275804.0,32.000000
-25,-1,59,1624275804.0,32.000000
-24,-1,58,1624275804.0,32.000000
-25,-1,59,1624275804.0,32.000000
-25,-2,59,1624275804.0,32.000000
-25,-1,58,1624275804.0,32.000000
-24,-1,59,1624275804.0,32.000000
-24,-1,59,1624275804.0,32.000000
-24,-1,59,1624275804.0,32.000000
-24,-1,59,1624275804.0,32.000000
-24,-2,59,1624275804.0,32.000000
-25,-2,58,1624275804.0,32.000000
-24,-1,59,1624275804.0,32.000000
-24,-1,59,1624275804.0,32.000000
-24,-1,59,1624275804.0,32.000000
-24,-1,59,1624275804.0,32.000000
-25,-1,59,1624275804.0,32.000000
-25,-1,59,1624275804.0,32.000000
-25,-1,59,1624275804.0,32.000000
-24,-1,59,1624275804.0,32.000000
-24,-1,59,1624275804.0,32.000000
-24,-1,59,1624275804.0,32.000000
-24,-1,59,1624275804.0,32.000000
-24,-1,59,1624275804.0,32.000000
-25,-1,59,1624275804.0,32.000000
-24,-1,59,1624275804.0,32.000000
-24,-1,59,1624275804.0,32.000000
-24,-1,59,1624275804.0,32.000000
-24,-1,59,1624275804.0,32.000000
-24,-1,59,1624275804.0,32.000000
-25,-1,59,1624275804.0,32.000000
-24,-1,59,1624275804.0,32.000000
-24,-1,59,1624275804.0,32.000000
-24,-1,59,1624275804.0,32.000000
-24,-1,59,1624275804.0,32.000000
-24,-1,59,1624275804.0,32.000000
-24,-1,59,1624275804.0,32.000000
-24,-1,59,1624275804.0,32.000000
-24,-1,59,1624275804.0,32.000000
-24,-1,59,1624275804.0,32.000000
-24,-1,59,1624275804.0,32.000000
-25,-1,59,1624275804.0,32.000000
-25,-1,59,1624275804.0,32.000000
-25,-1,59,1624275804.0,32.000000
-24,-1,59,1624275804.0,32.000000
-24,-1,59,1624275804.0,32.000000
-25,-1,59,1624275804.0,32.000000
-24,-1,59,1624275804.0,32.000000
-25,-1,59,1624275804.0,32.000000
-25,-1,59,1624275804.0,32.000000
-24,-1,59,1624275804.0,32.000000
-25,-1,59,1624275804.0,32.000000
-25,-1,59,1624275804.0,32.000000
-24,-1,59,1624275804.0,32.000000
-25,-1,59,1624275804.0,32.000000
-25,-1,59,1624275804.0,32.000000
-25,-1,59,1624275804.0,32.000000
-24,-1,59,1624275804.0,32.000000
-24,-1,59,1624275804.0,32.000000
-25,-1,58,1624275804.0,32.000000
-24,-1,59,1624275804.0,32.000000
-24,-1,59,1624275804.0,32.000000
-24,-1,59,1624275804.0,32.000000
-25,-1,59,1624275804.0,32.000000
-24,-1,58,1624275804.0,32.000000
-25,-1,59,1624275804.0,32.000000
-24,-1,59,1624275804.0,32.000000
-25,-1,59,1624275804.0,32.000000
-25,-1,58,1624275804.0,32.000000
-25,-1,58,1624275804.0,32.000000
-24,-1,59,1624275804.0,32.000000
-24,-1,59,1624275804.0,32.000000
-25,-1,59,1624275804.0,32.000000
-25,-2,59,1624275804.0,32.000000
-25,-1,59,1624275804.0,32.000000
-25,-1,58,1624275804.0,32.000000
-24,-1,59,1624275804.0,32.000000
-24,-1,59,1624275804.0,32.000000
-24,-1,59,1624275804.0,32.000000
-25,-1,59,1624275804.0,32.000000
-25,-1,59,1624275804.0,32.000000
-25,-2,59,1624275804.0,32.000000
-24,-1,59,1624275804.0,32.000000
-24,-1,59,1624275804.0,32.000000
-24,-1,59,1624275804.0,32.000000
-25,-1,59,1624275804.0,32.000000
-24,-1,59,1624275804.0,32.000000
-25,-1,59,1624275804.0,32.000000
-25,-1,59,1624275804.0,32.000000
-24,-1,59,1624275804.0,32.000000
-24,-1,59,1624275804.0,32.000000
-24,-1,59,1624275804.0,32.000000
-24,-1,59,1624275804.0,32.000000
-25,-1,59,1624275804.0,32.000000
-25,-1,59,1624275804.0,32.000000
-24,-1,59,1624275804.0,32.000000
-24,-1,59,1624275804.0,32.000000
-24,-1,59,1624275804.0,32.000000
-24,-1,59,1624275804.0,32.000000
-24,-1,59,1624275804.0,32.000000
-24,-1,59,1624275804.0,32.000000
-24,-1,59,1624275804.0,32.000000
-24,-1,59,1624275804.0,32.000000
-24,-1,59,1624275804.0,32.000000
-24,-1,59,1624275804.0,32.000000
-25,-1,59,1624275804.0,32.000000
-25,-1,59,1624275804.0,32.000000
-25,-1,59,1624275804.0,32.000000
-24,-1,59,1624275804.0,32.000000
-24,-1,59,1624275804.0,32.000000
-24,-1,59,1624275804.0,32.000000
-24,-1,59,1624275804.0,32.000000
-24,-2,59,1624275804.0,32.000000
-25,-1,59,1624275804.0,32.000000
-24,-1,59,1624275804.0,32.000000
-24,-1,59,1624275804.0,32.000000
-24,-1,59,1624275804.0,32.000000
-24,-1,59,1624275804.0,32.000000
-24,-1,58,1624275804.0,32.000000
-24,-1,59,1624275804.0,32.000000
-24,-1,59,1624275804.0,32.000000
-24,-1,59,1624275804.0,32.000000
-24,-1,59,1624275804.0,32.000000
-24,-1,59,1624275804.0,32.000000
-24,-1,59,1624275804.0,32.000000
-25,-1,59,1624275804.0,32.000000
-24,-1,59,1624275804.0,32.000000
-24,-1,59,1624275804.0,32.000000
-25,-1,59,1624275804.0,32.000000
-24,-1,58,1624275804.0,32.000000
-24,-1,59,1624275804.0,32.000000
-24,-1,59,1624275804.0,32.000000
-25,-1,59,1624275804.0,32.000000
-25,-1,59,1624275804.0,32.000000
-24,-1,59,1624275804.0,32.000000
-24,-1,58,1624275804.0,32.000000
-24,-1,58,1624275804.0,32.000000
-24,-1,59,1624275804.0,32.000000
-25,-2,59,1624275804.0,32.000000
-25,-1,59,1624275804.0,32.000000
-24,-1,59,1624275804.0,32.000000
-24,-1,59,1624275804.0,32.000000
-24,-1,59,1624275804.0,32.000000
-25,-1,59,1624275804.0,32.000000
-25,-1,59,1624275804.0,32.000000
-25,-1,59,1624275804.0,32.000000
-24,-1,59,1624275804.0,32.000000
-24,-1,59,1624275804.0,32.000000
-24,-1,59,1624275804.0,32.000000
-25,-1,59,1624275804.0,32.000000
-25,-1,59,1624275804.0,32.000000
-25,-1,59,1624275804.0,32.000000
-24,-1,59,1624275804.0,32.000000
-24,-1,59,1624275804.0,32.000000
-24,-1,59,1624275804.0,32.000000
-24,-1,58,1624275804.0,32.000000
-25,-1,59,1624275804.0,32.000000
-25,-1,59,1624275804.0,32.000000
-25,-1,59,1624275804.0,32.000000
-24,-1,59,1624275804.0,32.000000
-24,-1,59,1624275804.0,32.000000
-24,-1,59,1624275804.0,32.000000
-25,-1,59,1624275804.0,32.000000
-24,-1,59,1624275804.0,32.000000
-24,-1,59,1624275804.0,32.000000
-24,-1,59,1624275804.0,32.000000
-25,-1,59,1624275804.0,32.000000
-24,-1,59,1624275804.0,32.000000
-25,-1,59,1624275804.0,32.000000
-25,-1,59,1624275804.0,32.000000
-24,-1,59,1624275804.0,32.000000
-24,-1,59,1624275804.0,32.000000
-24,-1,59,1624275804.0,32.000000
-25,-1,59,1624275804.0,32.000000
-24,-1,59,1624275804.0,32.000000
-24,-1,59,1624275804.0,32.000000
-24,-1,59,1624275804.0,32.000000
-24,-1,59,1624275804.0,32.000000
-24,-1,59,1624275804.0,32.000000
-24,-1,59,1624275804.0,32.000000
-25,-1,59,1624275804.0,32.000000
-24,-1,59,1624275804.0,32.000000
-25,-1,59,1624275804.0,32.000000
-24,-1,59,1624275804.0,32.000000
-24,-1,59,1624275804.0,32.000000
-25,-1,58,1624275804.0,32.000000
-25,-1,59,1624275804.0,32.000000
-24,-2,59,1624275804.0,32.000000
-25,-1,58,1624275804.0,32.000000
-25,-1,59,1624275804.0,32.000000
-24,-1,59,1624275804.0,32.000000
-24,-1,59,1624275804.0,32.000000
-25,-1,59,1624275804.0,32.000000
-24,-1,59,1624275804.0,32.000000
-24,-1,59,1624275804.0,32.000000
-25,-1,58,1624275804.0,32.000000
-25,-1,58,1624275804.0,32.000000
-24,-1,59,1624275804.0,32.000000
-24,-1,59,1624275804.0,32.000000
-25,-1,59,1624275804.0,32.000000
-25,-1,59,1624275804.0,32.000000
-24,-1,59,1624275804.0,32.000000
-24,-1,59,1624275804.0,32.000000
-24,-1,59,1624275804.0,32.000000
-24,-1,59,1624275804.0,32.000000
-25,-1,59,1624275804.0,32.000000
-26,-1,59,1624275804.0,32.000000
-27,-1,59,1624275804.0,32.000000
-29,1,62,1624275804.0,32.000000
-35,2,65,1624275804.0,32.000000
-39,3,68,1624275804.0,32.000000
-38,0,69,1624275804.0,32.000000
-50,-5,67,1624275804.0,32.000000
-60,-9,57,1624275804.0,32.000000
-79,-16,45,1624275804.0,32.000000
-62,-13,56,1624275804.0,32.000000
-47,-26,47,1624275804.0,32.000000
-46,-31,32,1624275804.0,32.000000
-45,-31,25,1624275804.0,32.000000
-29,-30,23,1624275804.0,32.000000
-24,-32,19,1624275804.0,32.000000
-15,-33,27,1624275804.0,32.000000
3,-35,37,1624275804.0,32.000000
-9,-40,32,1624275804.0,32.000000
-7,-41,37,1624275804.0,32.000000
-6,-43,36,1624275804.0,32.000000
-20,-45,37,1624275804.0,32.000000
-33,-45,31,1624275804.0,32.000000
-32,-47,27,1624275804.0,32.000000
-19,-47,34,1624275804.0,32.000000
-18,-49,36,1624275804.0,32.000000
-19,-50,36,1624275804.0,32.000000
-17,-49,36,1624275804.0,32.000000
-12,-41,31,1624275804.0,32.000000
-3,-42,39,1624275804.0,32.000000
-7,-49,41,1624275804.0,32.000000
-13,-49,39,1624275804.0,32.000000
-22,-45,38,1624275804.0,32.000000
-16,-43,40,1624275804.0,32.000000
-6,-54,37,1624275804.0,32.000000
3,-55,26,1624275804.0,32.000000
3,-40,36,1624275804.0,32.000000
2,-39,36,1624275804.0,32.000000
5,-38,37,1624275804.0,32.000000
0,-34,35,1624275804.0,32.000000
-26,-28,36,1624275804.0,32.000000
-17,-28,44,1624275804.0,32.000000
-33,-25,39,1624275804.0,32.000000
-35,-14,50,1624275804.0,32.000000
-15,-4,78,1624275804.0,32.000000
-12,-8,86,1624275804.0,32.000000
-18,-4,87,1624275804.0,32.000000
-35,-3,83,1624275804.0,32.000000
-27,-4,77,1624275804.0,32.000000
-2,-5,62,1624275804.0,32.000000
3,-4,59,1624275804.0,32.000000
-8,-3,63,1624275804.0,32.000000
-15,1,69,1624275804.0,32.000000
-6,7,72,1624275804.0,32.000000
-4,10,74,1624275804.0,32.000000
-12,2,62,1624275804.0,32.000000
-10,-1,63,1624275804.0,32.000000
-15,1,62,1624275804.0,32.000000
-22,3,63,1624275804.0,32.000000
-20,-1,61,1624275804.0,32.000000
-19,0,60,1624275804.0,32.000000
-18,1,61,1624275804.0,32.000000
-18,1,61,1624275804.0,32.000000
-16,1,61,1624275804.0,32.000000
-15,1,61,1624275804.0,32.000000
-17,0,61,1624275804.0,32.000000
-20,0,60,1624275804.0,32.000000
-20,0,61,1624275804.0,32.000000
-21,0,60,1624275804.0,32.000000
-19,0,61,1624275804.0,32.000000
-18,0,61,1624275804.0,32.000000
-20,1,60,1624275804.0,32.000000
-20,1,60,1624275804.0,32.000000
-20,0,60,1624275804.0,32.000000
-20,0,60,1624275804.0,32.000000
-20,0,60,1624275804.0,32.000000
-20,0,60,1624275804.0,32.000000
-21,0,60,1624275804.0,32.000000
-21,0,60,1624275804.0,32.000000
-21,0,60,1624275804.0,32.000000
-20,0,60,1624275804.0,32.000000
-21,0,60,1624275804.0,32.000000
-21,0,60,1624275804.0,32.000000
-21,0,60,1624275804.0,32.000000
-22,0,60,1624275804.0,32.000000
-21,0,60,1624275804.0,32.000000
-21,0,60,1624275804.0,32.000000
-21,0,60,1624275804.0,32.000000
-22,0,60,1624275804.0,32.000000
-21,0,60,1624275804.0,32.000000
-22,0,60,1624275804.0,32.000000
-22,0,60,1624275804.0,32.000000
-22,0,59,1624275804.0,32.000000
-21,1,60,1624275804.0,32.000000
-22,0,60,1624275804.0,32.000000
-21,0,60,1624275804.0,32.000000
-22,0,60,1624275804.0,32.000000
-22,0,60,1624275804.0,32.000000
-22,0,60,1624275804.0,32.000000
-22,0,60,1624275804.0,32.000000
-22,0,60,1624275804.0,32.000000
-22,0,60,1624275804.0,32.000000
-23,0,60,1624275804.0,32.000000
-22,0,60,1624275804.0,32.000000
-22,0,60,1624275804.0,32.000000
-22,0,60,1624275804.0,32.000000
-22,0,60,1624275804.0,32.000000
-22,0,60,1624275804.0,32.000000
-22,0,60,1624275804.0,32.000000
-22,0,59,1624275804.0,32.000000
-23,0,60,1624275804.0,32.000000
-22,0,60,1624275804.0,32.000000
-22,0,60,1624275804.0,32.000000
-22,0,59,1624275804.0,32.000000
-22,0,60,1624275804.0,32.000000
-22,0,59,1624275804.0,32.000000
-23,0,59,1624275804.0,32.000000
-23,0,59,1624275804.0,32.000000
-22,0,60,1624275804.0,32.000000
-22,0,59,1624275804.0,32.000000
-22,0,60,1624275804.0,32.000000
-22,0,59,1624275804.0,32.000000
-22,0,60,1624275804.0,32.000000
-22,0,60,1624275804.0,32.000000
-23,0,59,1624275804.0,32.000000
-23,0,59,1624275804.0,32.000000
-23,1,59,1624275804.0,32.000000
-23,1,60,1624275804.0,32.000000
-23,0,60,1624275804.0,32.000000
-22,0,60,1624275804.0,32.000000
-23,0,59,1624275804.0,32.000000
-23,0,59,1624275804.0,32.000000
-22,0,60,1624275804.0,32.000000
-22,1,59,1624275804.0,32.000000
-23,0,59,1624275804.0,32.000000
-23,0,59,1624275804.0,32.000000
-23,0,59,1624275804.0,32.000000
-23,0,59,1624275804.0,32.000000
-23,0,59,1624275804.0,32.000000
-23,1,59,1624275804.0,32.000000
-23,0,59,1624275804.0,32.000000
-23,0,59,1624275804.0,32.000000
-23,0,59,1624275804.0,32.000000
-23,0,59,1624275804.0,32.000000
-23,0,59,1624275804.0,32.000000
-23,1,59,1624275804.0,32.000000
-23,0,59,1624275804.0,32.000000
-23,0,59,1624275804.0,32.000000
-23,0,59,1624275804.0,32.000000
-23,0,59,1624275804.0,32.000000
-23,0,59,1624275804.0,32.000000
-23,0,59,1624275804.0,32.000000
-23,0,60,1624275804.0,32.000000
-23,0,59,1624275804.0,32.000000
-23,0,60,1624275804.0,32.000000
-23,0,60,1624275804.0,32.000000
-23,0,59,1624275804.0,32.000000
-23,0,59,1624275804.0,32.000000
-23,0,59,1624275804.0,32.000000
-23,0,59,1624275804.0,32.000000
-23,0,59,1624275804.0,32.000000
-23,0,59,1624275804.0,32.000000
-23,0,59,1624275804.0,32.000000
-23,0,59,1624275804.0,32.000000
-23,0,59,1624275804.0,32.000000
-23,0,59,1624275804.0,32.000000
-23,0,59,1624275804.0,32.000000
-23,0,60,1624275804.0,32.000000
-23,0,59,1624275804.0,32.000000
-23,0,59,1624275804.0,32.000000
-23,0,59,1624275804.0,32.000000
-23,0,59,1624275804.0,32.000000
-23,0,59,1624275804.0,32.000000
-23,0,59,1624275804.0,32.000000
-23,1,59,1624275804.0,32.000000
-23,0,59,1624275804.0,32.000000
-24,0,59,1624275804.0,32.000000
-23,0,59,1624275804.0,32.000000
-23,0,60,1624275804.0,32.000000
-23,0,59,1624275804.0,32.000000
-23,0,59,1624275804.0,32.000000
-23,0,60,1624275804.0,32.000000
-23,0,59,1624275804.0,32.000000
-23,1,59,1624275804.0,32.000000
-23,0,59,1624275804.0,32.000000
-23,0,59,1624275804.0,32.000000
-24,0,60,1624275804.0,32.000000
-24,0,59,1624275804.0,32.000000
-23,0,59,1624275804.0,32.000000
-23,0,59,1624275804.0,32.000000
-23,1,59,1624275804.0,32.000000
-23,0,59,1624275804.0,32.000000
-23,0,60,1624275804.0,32.000000
-24,0,59,1624275804.0,32.000000
-23,0,59,1624275804.0,32.000000
-23,0,59,1624275804.0,32.000000
-23,1,59,1624275804.0,32.000000
-23,0,59,1624275804.0,32.000000
-24,0,59,1624275804.0,32.000000
-23,0,59,1624275804.0,32.000000
-23,0,59,1624275804.0,32.000000
-23,1,59,1624275804.0,32.000000
-23,0,59,1624275804.0,32.000000
-23,0,59,1624275804.0,32.000000
-23,0,59,1624275804.0,32.000000
-24,0,59,1624275804.0,32.000000
-23,0,59,1624275804.0,32.000000
-23,0,60,1624275804.0,32.000000
-23,0,59,1624275804.0,32.000000
-23,0,59,1624275804.0,32.000000
-23,0,59,1624275804.0,32.000000
-24,0,59,1624275804.0,32.000000
-23,0,59,1624275804.0,32.000000
-23,0,59,1624275804.0,32.000000
-23,0,59,1624275804.0,32.000000
-23,0,59,1624275804.0,32.000000
-23,0,59,1624275804.0,32.000000
-23,0,59,1624275804.0,32.000000
-23,0,59,1624275804.0,32.000000
-23,0,59,1624275804.0,32.000000
-23,0,59,1624275804.0,32.000000
-23,0,59,1624275804.0,32.000000
-23,0,59,1624275804.0,32.000000
-23,0,59,1624275804.0,32.000000
-23,0,59,1624275804.0,32.000000
-23,0,59,1624275804.0,32.000000
-23,0,59,1624275804.0,32.000000
-23,0,60,1624275804.0,32.000000
-24,0,59,1624275804.0,32.000000
-24,0,59,1624275804.0,32.000000
-23,0,59,1624275804.0,32.000000
-23,0,59,1624275804.0,32.000000
-23,0,59,1624275804.0,32.000000
-23,0,59,1624275804.0,32.000000
-23,0,59,1624275804.0,32.000000
-24,0,59,1624275804.0,32.000000
-23,0,59,1624275804.0,32.000000
-23,0,59,1624275804.0,32.000000
-23,0,59,1624275804.0,32.000000
-23,0,59,1624275804.0,32.000000
-23,0,59,1624275804.0,32.000000
-23,0,59,1624275804.0,32.000000
-24,0,59,1624275804.0,32.000000
-24,0,59,1624275804.0,32.000000
-23,0,59,1624275804.0,32.000000
-23,0,59,1624275804.0,32.000000
-23,1,59,1624275804.0,32.000000
-23,1,59,1624275804.0,32.000000
-24,0,59,1624275804.0,32.000000
-23,0,59,1624275804.0,32.000000
-23,0,59,1624275804.0,32.000000
-23,0,59,1624275804.0,32.000000
-22,1,59,1624275804.0,32.000000
-23,1,59,1624275804.0,32.000000
-24,0,59,1624275804.0,32.000000
-24,0,59,1624275804.0,32.000000
-24,0,59,1624275804.0,32.000000
-23,0,59,1624275804.0,32.000000
-23,1,59,1624275804.0,32.000000
-23,1,59,1624275804.0,32.000000
-23,0,60,1624275804.0,32.000000
-24,0,59,1624275804.0,32.000000
-24,0,59,1624275804.0,32.000000
-23,0,59,1624275804.0,32.000000
-23,0,59,1624275804.0,32.000000
-23,0,59,1624275804.0,32.000000
-23,0,59,1624275804.0,32.000000
-24,0,59,1624275804.0,32.000000
-23,0,59,1624275804.0,32.000000
-23,0,59,1624275804.0,32.000000
-23,0,59,1624275804.0,32.000000
-23,0,59,1624275804.0,32.000000
-23,0,59,1624275804.0,32.000000
-24,0,59,1624275804.0,32.000000
-23,0,59,1624275804.0,32.000000
-23,0,59,1624275804.0,32.000000
-23,0,59,1624275804.0,32.000000
-23,0,59,1624275804.0,32.000000
-23,0,59,1624275804.0,32.000000
-23,0,59,1624275804.0,32.000000
-24,0,59,1624275804.0,32.000000
-24,0,59,1624275804.0,32.000000
-23,0,59,1624275804.0,32.000000
-23,1,59,1624275804.0,32.000000
-23,1,59,1624275804.0,32.000000
-23,0,59,1624275804.0,32.000000
-23,0,59,1624275804.0,32.000000
-24,0,59,1624275804.0,32.000000
-23,0,59,1624275804.0,32.000000
-23,0,59,1624275804.0,32.000000
-24,1,59,1624275804.0,32.000000
-23,0,59,1624275804.0,32.000000
-23,0,59,1624275804.0,32.000000
-23,0,59,1624275804.0,32.000000
-23,0,59,1624275804.0,32.000000
-23,0,59,1624275804.0,32.000000
-23,0,59,1624275804.0,32.000000
-23,0,59,1624275804.0,32.000000
-24,0,59,1624275804.0,32.000000
-23,0,59,1624275804.0,32.000000
-23,1,59,1624275804.0,32.000000
-23,1,59,1624275804.0,32.000000
-23,0,59,1624275804.0,32.000000
-24,0,59,1624275804.0,32.000000
-24,0,59,1624275804.0,32.000000
-24,0,59,1624275804.0,32.000000
-23,0,59,1624275804.0,32.000000
-23,0,59,1624275804.0,32.000000
-24,0,59,1624275804.0,32.000000
-23,0,59,1624275804.0,32.000000
-23,0,60,1624275804.0,32.000000
-23,0,59,1624275804.0,32.000000
-23,1,59,1624275804.0,32.000000
-23,0,59,1624275804.0,32.000000
-24,0,59,1624275804.0,32.000000
-23,0,59,1624275804.0,32.000000
-23,1,59,1624275804.0,32.000000
-23,0,59,1624275804.0,32.000000
-23,0,59,1624275804.0,32.000000
-24,0,59,1624275804.0,32.000000
-24,0,59,1624275804.0,32.000000
-23,0,59,1624275804.0,32.000000
-23,1,59,1624275804.0,32.000000
-23,0,59,1624275804.0,32.000000
-23,0,59,1624275804.0,32.000000
-23,0,59,1624275804.0,32.000000
-23,0,59,1624275804.0,32.000000
-23,0,59,1624275804.0,32.000000
-23,1,60,1624275804.0,32.000000
-24,0,59,1624275804.0,32.000000
-24,0,59,1624275804.0,32.000000
-24,0,59,1624275804.0,32.000000
-23,0,59,1624275804.0,32.000000
-23,0,59,1624275804.0,32.000000
-23,0,59,1624275804.0,32.000000
-23,0,59,1624275804.0,32.000000
-23,0,59,1624275804.0,32.000000
-23,0,59,1624275804.0,32.000000
-23,0,59,1624275804.0,32.000000
-23,0,59,1624275804.0,32.000000
-23,0,59,1624275804.0,32.000000
-23,0,59,1624275804.0,32.000000
-23,0,59,1624275804.0,32.000000
-23,0,59,1624275804.0,32.000000
-23,0,59,1624275804.0,32.000000
-23,0,59,1624275804.0,32.000000
-23,0,59,1624275804.0,32.000000
-23,0,60,1624275804.0,32.000000
-23,0,59,1624275804.0,32.000000
-23,0,59,1624275804.0,32.000000
-23,0,59,1624275804.0,32.000000
-23,0,59,1624275804.0,32.000000
-23,1,59,1624275804.0,32.000000
-23,0,59,1624275804.0,32.000000
-23,0,59,1624275804.0,32.000000
-23,0,59,1624275804.0,32.000000
-23,0,59,1624275804.0,32.000000
-23,0,59,1624275804.0,32.000000
-23,0,59,1624275804.0,32.000000
-23,0,59,1624275804.0,32.000000
-23,0,59,1624275804.0,32.000000
-23,0,59,1624275804.0,32.000000
-23,0,59,1624275804.0,32.000000
-23,0,59,1624275804.0,32.000000
-23,0,59,1624275804.0,32.000000
-24,0,59,1624275804.0,32.000000
-24,0,59,1624275804.0,32.000000
-23,0,59,1624275804.0,32.000000
-23,0,59,1624275804.0,32.000000
-23,1,59,1624275804.0,32.000000
-23,0,59,1624275804.0,32.000000
-24,0,59,1624275804.0,32.000000
-24,0,59,1624275804.0,32.000000
-23,0,59,1624275804.0,32.000000
-23,1,59,1624275804.0,32.000000
-23,0,59,1624275804.0,32.000000
-23,0,59,1624275804.0,32.000000
-24,0,59,1624275804.0,32.000000
-24,0,60,1624275804.0,32.000000
-24,0,59,1624275804.0,32.000000
-23,0,59,1624275804.0,32.000000
-23,1,59,1624275804.0,32.000000
-23,1,59,1624275804.0,32.000000
-23,0,59,1624275804.0,32.000000
-24,0,59,1624275804.0,32.000000
-23,0,59,1624275804.0,32.000000
-23,0,59,1624275804.0,32.000000
-23,0,59,1624275804.0,32.000000
-24,0,59,1624275804.0,32.000000
-24,0,59,1624275804.0,32.000000
-24,0,59,1624275804.0,32.000000
-23,0,59,1624275804.0,32.000000
-24,0,59,1624275804.0,32.000000
-23,0,59,1624275804.0,32.000000
-23,0,59,1624275804.0,32.000000
-23,0,59,1624275804.0,32.000000
-24,0,59,1624275804.0,32.000000
-23,0,59,1624275804.0,32.000000
-23,0,59,1624275804.0,32.000000
-23,0,59,1624275804.0,32.000000
-23,0,59,1624275804.0,32.000000
-23,0,59,1624275804.0,32.000000
-24,0,59,1624275804.0,32.000000
-24,0,59,1624275804.0,32.000000
-23,0,59,1624275804.0,32.000000
-23,0,59,1624275804.0,32.000000
-23,0,59,1624275804.0,32.000000
-23,0,59,1624275804.0,32.000000
-24,0,59,1624275804.0,32.000000
-24,0,59,1624275804.0,32.000000
-23,0,59,1624275804.0,32.000000
-23,0,59,1624275804.0,32.000000
-23,0,59,1624275804.0,32.000000
-23,0,59,1624275804.0,32.000000
-23,0,59,1624275804.0,32.000000
-23,0,59,1624275804.0,32.000000
-24,0,59,1624275804.0,32.000000
-23,0,59,1624275804.0,32.000000
-23,0,59,1624275804.0,32.000000
-23,0,59,1624275804.0,32.000000
-23,0,59,1624275804.0,32.000000
-23,0,59,1624275804.0,32.000000
-23,0,59,1624275804.0,32.000000
-23,0,59,1624275804.0,32.000000
-23,0,59,1624275804.0,32.000000
-23,0,59,1624275804.0,32.000000
-24,0,59,1624275804.0,32.000000
-24,0,60,1624275804.0,32.000000
-23,0,59,1624275804.0,32.000000
-23,0,59,1624275804.0,32.000000
-23,0,59,1624275804.0,32.000000
-24,0,59,1624275804.0,32.000000
-23,0,59,1624275804.0,32.000000
-23,0,59,1624275804.0,32.000000
-23,0,59,1624275804.0,32.000000
-23,1,59,1624275804.0,32.000000
-23,0,59,1624275804.0,32.000000
-23,0,59,1624275804.0,32.000000
-24,0,59,1624275804.0,32.000000
-24,0,59,1624275804.0,32.000000
-23,0,59,1624275804.0,32.000000
-23,0,59,1624275804.0,32.000000
-23,0,60,1624275804.0,32.000000
-23,0,59,1624275804.0,32.000000
-23,0,59,1624275804.0,32.000000
-23,0,59,1624275804.0,32.000000
-23,0,59,1624275804.0,32.000000
-23,0,59,1624275804.0,32.000000
-23,0,59,1624275804.0,32.000000
-23,0,59,1624275804.0,32.000000
-23,0,59,1624275804.0,32.000000
-23,0,59,1624275804.0,32.000000
-23,0,60,1624275804.0,32.000000
-23,0,59,1624275804.0,32.000000
-23,0,59,1624275804.0,32.000000
-23,0,60,1624275804.0,32.000000
-23,0,59,1624275804.0,32.000000
-23,0,59,1624275804.0,32.000000
-23,0,59,1624275804.0,32.000000
-23,0,59,1624275804.0,32.000000
-23,0,59,1624275804.0,32.000000
-23,0,59,1624275804.0,32.000000
-23,0,59,1624275804.0,32.000000
-23,0,59,1624275804.0,32.000000
-23,0,60,1624275804.0,32.000000
-23,0,59,1624275804.0,32.000000
-23,0,59,1624275804.0,32.000000
-23,0,59,1624275804.0,32.000000
-23,0,59,1624275804.0,32.000000
-23,0,59,1624275804.0,32.000000
-23,0,59,1624275804.0,32.000000
-23,0,59,1624275804.0,32.000000
-23,0,59,1624275804.0,32.000000
-23,0,59,1624275804.0,32.000000
-23,0,59,1624275804.0,32.000000
-23,0,59,1624275804.0,32.000000
-23,0,59,1624275804.0,32.000000
-23,0,59,1624275804.0,32.000000
-23,0,59,1624275804.0,32.000000
-24,0,59,1624275804.0,32.000000
-23,0,59,1624275804.0,32.000000
-23,0,59,1624275804.0,32.000000
-23,0,59,1624275804.0,32.000000
-23,0,59,1624275804.0,32.000000
-23,0,60,1624275804.0,32.000000
-24,0,59,1624275804.0,32.000000
-23,0,59,1624275804.0,32.000000
-23,0,59,1624275804.0,32.000000
-23,0,59,1624275804.0,32.000000
-24,0,59,1624275804.0,32.000000
-23,0,59,1624275804.0,32.000000
-24,0,59,1624275804.0,32.000000
-24,0,59,1624275804.0,32.000000
-23,0,59,1624275804.0,32.000000
-23,0,59,1624275804.0,32.000000
-23,0,59,1624275804.0,32.000000
-23,0,59,1624275804.0,32.000000
-23,0,59,1624275804.0,32.000000
-23,0,59,1624275804.0,32.000000
-23,0,59,1624275804.0,32.000000
-23,0,59,1624275804.0,32.000000
-24,0,59,1624275804.0,32.000000
-23,0,59,1624275804.0,32.000000
-24,0,59,1624275804.0,32.000000
-24,0,59,1624275804.0,32.000000
-24,0,59,1624275804.0,32.000000
-23,0,59,1624275804.0,32.000000
-23,0,59,1624275804.0,32.000000
-24,0,59,1624275804.0,32.000000
-23,0,59,1624275804.0,32.000000
-23,0,59,1624275804.0,32.000000
-23,0,59,1624275804.0,32.000000
-23,0,59,1624275804.0,32.000000
-23,0,59,1624275804.0,32.000000
-23,0,59,1624275804.0,32.000000
-23,0,59,1624275804.0,32.000000
-23,0,59,1624275804.0,32.000000
-23,0,59,1624275804.0,32.000000
-23,0,59,1624275804.0,32.000000
-23,0,59,1624275804.0,32.000000
-23,0,59,1624275804.0,32.000000
-23,0,59,1624275804.0,32.000000
-23,0,59,1624275804.0,32.000000
-23,0,59,1624275804.0,32.000000
-23,0,59,1624275804.0,32.000000
-23,0,59,1624275804.0,32.000000
-24,0,59,1624275804.0,32.000000
-23,0,60,1624275804.0,32.000000
-23,0,59,1624275804.0,32.000000
-23,0,59,1624275804.0,32.000000
-23,0,59,1624275804.0,32.000000
-23,0,59,1624275804.0,32.000000
-23,0,60,1624275804.0,32.000000
-23,0,59,1624275804.0,32.000000
-23,0,59,1624275804.0,32.000000
-23,0,60,1624275804.0,32.000000
-23,0,60,1624275804.0,32.000000
-23,0,59,1624275804.0,32.000000
-23,0,59,1624275804.0,32.000000
-23,0,59,1624275804.0,32.000000
-23,0,59,1624275804.0,32.000000
-23,0,59,1624275804.0,32.000000
-23,0,60,1624275804.0,32.000000
-23,0,59,1624275804.0,32.000000
-23,0,59,1624275804.0,32.000000
-23,1,59,1624275804.0,32.000000
-23,0,59,1624275804.0,32.000000
-23,0,59,1624275804.0,32.000000
-22,0,60,1624275804.0,32.000000
-23,0,59,1624275804.0,32.000000
-23,0,59,1624275804.0,32.000000
-23,0,60,1624275804.0,32.000000
-23,0,60,1624275804.0,32.000000
-23,0,59,1624275804.0,32.000000
-23,0,59,1624275804.0,32.000000
-23,0,59,1624275804.0,32.000000
-23,0,60,1624275804.0,32.000000
-23,0,60,1624275804.0,32.000000
-23,0,59,1624275804.0,32.000000
-23,0,59,1624275804.0,32.000000
-23,0,59,1624275804.0,32.000000
-23,0,59,1624275804.0,32.000000
-23,0,59,1624275804.0,32.000000
-23,0,60,1624275804.0,32.000000
-23,0,59,1624275804.0,32.000000
-23,0,59,1624275804.0,32.000000
-23,0,59,1624275804.0,32.000000
-23,0,59,1624275804.0,32.000000
-23,0,59,1624275804.0,32.000000
-23,0,60,1624275804.0,32.000000
-23,1,59,1624275804.0,32.000000
-23,1,58,1624275804.0,32.000000
-23,0,59,1624275804.0,32.000000
-22,0,60,1624275804.0,32.000000
-22,0,60,1624275804.0,32.000000
-24,0,59,1624275804.0,32.000000
-24,0,60,1624275804.0,32.000000
-23,0,59,1624275804.0,32.000000
-23,0,59,1624275804.0,32.000000
-23,0,59,1624275804.0,32.000000
-23,0,59,1624275804.0,32.000000
-23,0,60,1624275804.0,32.000000
-23,0,59,1624275804.0,32.000000
-22,1,60,1624275804.0,32.000000
-23,1,59,1624275804.0,32.000000
-23,0,61,1624275804.0,32.000000
-23,1,60,1624275804.0,32.000000
-25,1,59,1624275804.0,32.000000
-24,-1,59,1624275804.0,32.000000
-26,4,64,1624275804.0,32.000000
-29,4,66,1624275804.0,32.000000
-27,4,66,1624275804.0,32.000000
-23,0,63,1624275804.0,32.000000
-32,3,64,1624275804.0,32.000000
-36,0,68,1624275804.0,32.000000
-39,-2,68,1624275804.0,32.000000
-38,-9,68,1624275804.0,32.000000
-35,-12,68,1624275804.0,32.000000
-30,-14,68,1624275804.0,32.000000
-29,-15,64,1624275804.0,32.000000
-21,-20,56,1624275804.0,32.000000
-21,-27,54,1624275804.0,32.000000
-11,-28,48,1624275804.0,32.000000
-1,-33,45,1624275804.0,32.000000
7,-38,40,1624275804.0,32.000000
12,-39,35,1624275804.0,32.000000
11,-44,29,1624275804.0,32.000000
13,-43,27,1624275804.0,32.000000
19,-46,29,1624275804.0,32.000000
23,-46,33,1624275804.0,32.000000
16,-48,30,1624275804.0,32.000000
12,-48,28,1624275804.0,32.000000
4,-48,35,1624275804.0,32.000000
9,-48,41,1624275804.0,32.000000
0,-48,39,1624275804.0,32.000000
-6,-50,37,1624275804.0,32.000000
-2,-51,38,1624275804.0,32.000000
1,-52,38,1624275804.0,32.000000
1,-51,37,1624275804.0,32.000000
1,-49,38,1624275804.0,32.000000
3,-50,39,1624275804.0,32.000000
1,-48,40,1624275804.0,32.000000
0,-50,38,1624275804.0,32.000000
4,-49,39,1624275804.0,32.000000
6,-49,38,1624275804.0,32.000000
7,-48,38,1624275804.0,32.000000
5,-48,35,1624275804.0,32.000000
6,-45,37,1624275804.0,32.000000
10,-45,36,1624275804.0,32.000000
13,-47,37,1624275804.0,32.000000
10,-48,39,1624275804.0,32.000000
0,-49,37,1624275804.0,32.000000
2,-50,37,1624275804.0,32.000000
3,-54,40,1624275804.0,32.000000
1,-51,39,1624275804.0,32.000000
1,-51,38,1624275804.0,32.000000
-4,-50,38,1624275804.0,32.000000
5,-46,35,1624275804.0,32.000000
2,-48,30,1624275804.0,32.000000
11,-50,31,1624275804.0,32.000000
17,-47,34,1624275804.0,32.000000
13,-40,34,1624275804.0,32.000000
10,-40,36,1624275804.0,32.000000
7,-40,34,1624275804.0,32.000000
-1,-38,34,1624275804.0,32.000000
-6,-35,35,1624275804.0,32.000000
-11,-34,35,1624275804.0,32.000000
-18,-35,32,1624275804.0,32.000000
-41,-21,44,1624275804.0,32.000000
-34,-21,55,1624275804.0,32.000000
-11,-15,61,1624275804.0,32.000000
-6,3,72,1624275804.0,32.000000
10,-8,82,1624275804.0,32.000000
1,-6,88,1624275804.0,32.000000
-28,-1,92,1624275804.0,32.000000
-26,-2,76,1624275804.0,32.000000
4,2,67,1624275804.0,32.000000
9,-5,65,1624275804.0,32.000000
-6,-6,64,1624275804.0,32.000000
-7,-3,66,1624275804.0,32.000000
-6,0,66,1624275804.0,32.000000
-5,0,65,1624275804.0,32.000000
-6,-1,63,1624275804.0,32.000000
-7,-2,62,1624275804.0,32.000000
-8,-1,61,1624275804.0,32.000000
-11,1,62,1624275804.0,32.000000
-16,6,65,1624275804.0,32.000000
-25,5,64,1624275804.0,32.000000
-23,2,63,1624275804.0,32.000000
-17,-1,62,1624275804.0,32.000000
-16,-1,63,1624275804.0,32.000000
-19,1,61,1624275804.0,32.000000
-18,2,61,1624275804.0,32.000000
-21,3,60,1624275804.0,32.000000
-21,3,60,1624275804.0,32.000000
-20,2,61,1624275804.0,32.000000
-21,2,61,1624275804.0,32.000000
-21,1,61,1624275804.0,32.000000
-22,0,60,1624275804.0,32.000000
-25,0,58,1624275804.0,32.000000
-25,1,58,1624275804.0,32.000000
-24,3,58,1624275804.0,32.000000
-24,2,60,1624275804.0,32.000000
-25,0,60,1624275804.0,32.000000
-24,-1,58,1624275804.0,32.000000
-24,-3,56,1624275804.0,32.000000
-25,0,59,1624275804.0,32.000000
-28,2,59,1624275804.0,32.000000
-28,2,57,1624275804.0,32.000000
-27,1,58,1624275804.0,32.000000
-26,0,58,1624275804.0,32.000000
-25,0,57,1624275804.0,32.000000
-26,1,58,1624275804.0,32.000000
-26,1,59,1624275804.0,32.000000
-28,1,58,1624275804.0,32.000000
-27,0,57,1624275804.0,32.000000
-26,0,57,1624275804.0,32.000000
-26,1,58,1624275804.0,32.000000
-28,1,58,1624275804.0,32.000000
-28,1,57,1624275804.0,32.000000
-27,1,58,1624275804.0,32.000000
-27,1,58,1624275804.0,32.000000
-27,0,58,1624275804.0,32.000000
-27,1,58,1624275804.0,32.000000
-27,1,58,1624275804.0,32.000000
-27,1,58,1624275804.0,32.000000
-27,0,57,1624275804.0,32.000000
-27,1,57,1624275804.0,32.000000
-27,1,57,1624275804.0,32.000000
-29,1,57,1624275804.0,32.000000
-29,1,57,1624275804.0,32.000000
-28,0,58,1624275804.0,32.000000
-27,1,57,1624275804.0,32.000000
-27,1,57,1624275804.0,32.000000
-30,1,57,1624275804.0,32.000000
-31,1,57,1624275804.0,32.000000
-31,1,56,1624275804.0,32.000000
-30,1,56,1624275804.0,32.000000
-30,1,56,1624275804.0,32.000000
-30,1,56,1624275804.0,32.000000
-30,1,56,1624275804.0,32.000000
-30,1,57,1624275804.0,32.000000
-30,1,57,1624275804.0,32.000000
-30,1,56,1624275804.0,32.000000
-31,1,56,1624275804.0,32.000000
-31,1,56,1624275804.0,32.000000
-31,2,56,1624275804.0,32.000000
-31,1,56,1624275804.0,32.000000
-32,1,56,1624275804.0,32.000000
-31,3,56,1624275804.0,32.000000
-32,1,55,1624275804.0,32.000000
-31,1,56,1624275804.0,32.000000
-31,1,56,1624275804.0,32.000000
-31,2,55,1624275804.0,32.000000
-32,2,54,1624275804.0,32.000000
-34,2,55,1624275804.0,32.000000
-35,3,56,1624275804.0,32.000000
-35,3,55,1624275804.0,32.000000
-35,2,55,1624275804.0,32.000000
-34,2,53,1624275804.0,32.000000
-33,1,52,1624275804.0,32.000000
-32,2,54,1624275804.0,32.000000
-31,2,55,1624275804.0,32.000000
-33,0,56,1624275804.0,32.000000
-33,1,56,1624275804.0,32.000000
-35,2,55,1624275804.0,32.000000
-38,2,53,1624275804.0,32.000000
-38,2,53,1624275804.0,32.000000
-34,2,53,1624275804.0,32.000000
-34,2,53,1624275804.0,32.000000
-33,1,55,1624275804.0,32.000000
-34,2,56,1624275804.0,32.000000
-33,1,54,1624275804.0,32.000000
-32,1,54,1624275804.0,32.000000
-30,1,55,1624275804.0,32.000000
-30,1,56,1624275804.0,32.000000
-32,0,55,1624275804.0,32.000000
-33,0,55,1624275804.0,32.000000
-35,0,54,1624275804.0,32.000000
-35,1,55,1624275804.0,32.000000
-34,1,55,1624275804.0,32.000000
-34,1,54,1624275804.0,32.000000
-33,1,55,1624275804.0,32.000000
-32,1,55,1624275804.0,32.000000
-33,1,56,1624275804.0,32.000000
-33,0,55,1624275804.0,32.000000
-33,1,55,1624275804.0,32.000000
-33,1,55,1624275804.0,32.000000
-31,1,54,1624275804.0,32.000000
-32,1,55,1624275804.0,32.000000
-32,1,56,1624275804.0,32.000000
-31,0,56,1624275804.0,32.000000
-30,0,56,1624275804.0,32.000000
-29,0,57,1624275804.0,32.000000
-29,1,57,1624275804.0,32.000000
-30,1,56,1624275804.0,32.000000
-31,1,56,1624275804.0,32.000000
-31,1,56,1624275804.0,32.000000
-31,0,56,1624275804.0,32.000000
-32,0,56,1624275804.0,32.000000
-31,0,55,1624275804.0,32.000000
-31,0,55,1624275804.0,32.000000
-30,0,56,1624275804.0,32.000000
-31,0,56,1624275804.0,32.000000
-31,0,56,1624275804.0,32.000000
-31,0,56,1624275804.0,32.000000
-30,0,56,1624275804.0,32.000000
-31,0,56,1624275804.0,32.000000
-30,0,56,1624275804.0,32.000000
-31,0,56,1624275804.0,32.000000
-31,0,56,1624275804.0,32.000000
-31,0,56,1624275804.0,32.000000
-31,0,56,1624275804.0,32.000000
-30,0,56,1624275804.0,32.000000
-30,0,56,1624275804.0,32.000000
-30,0,56,1624275804.0,32.000000
-30,1,56,1624275804.0,32.000000
-30,0,56,1624275804.0,32.000000
-31,0,56,1624275804.0,32.000000
-31,0,56,1624275804.0,32.000000
-30,0,56,1624275804.0,32.000000
-31,0,55,1624275804.0,32.000000
-31,0,56,1624275804.0,32.000000
-31,0,56,1624275804.0,32.000000
-31,0,56,1624275804.0,32.000000
-31,0,56,1624275804.0,32.000000
-31,0,56,1624275804.0,32.000000
-31,0,56,1624275804.0,32.000000
-31,0,56,1624275804.0,32.000000
-31,0,56,1624275804.0,32.000000
-31,0,56,1624275804.0,32.000000
-31,0,56,1624275804.0,32.000000
-30,0,56,1624275804.0,32.000000
-30,0,56,1624275804.0,32.000000
-30,0,56,1624275804.0,32.000000
-31,0,56,1624275804.0,32.000000
-30,0,56,1624275804.0,32.000000
-31,1,56,1624275804.0,32.000000
-31,0,56,1624275804.0,32.000000
-32,0,55,1624275804.0,32.000000
-32,0,56,1624275804.0,32.000000
-31,0,56,1624275804.0,32.000000
-31,0,56,1624275804.0,32.000000
-30,0,56,1624275804.0,32.000000
-30,0,56,1624275804.0,32.000000
-31,0,56,1624275804.0,32.000000
-31,0,56,1624275804.0,32.000000
-32,0,56,1624275804.0,32.000000
-31,0,56,1624275804.0,32.000000
-31,0,56,1624275804.0,32.000000
-31,1,56,1624275804.0,32.000000
-31,0,56,1624275804.0,32.000000
-31,0,56,1624275804.0,32.000000
-31,0,56,1624275804.0,32.000000
-31,0,56,1624275804.0,32.000000
-31,0,56,1624275804.0,32.000000
-31,0,56,1624275804.0,32.000000
-30,0,56,1624275804.0,32.000000
-30,0,56,1624275804.0,32.000000
-30,0,56,1624275804.0,32.000000
-30,0,56,1624275804.0,32.000000
-31,0,56,1624275804.0,32.000000
-31,0,56,1624275804.0,32.000000
-31,1,56,1624275804.0,32.000000
-31,1,56,1624275804.0,32.000000
-31,0,56,1624275804.0,32.000000
-31,0,56,1624275804.0,32.000000
-30,0,56,1624275804.0,32.000000
-30,0,56,1624275804.0,32.000000
-30,0,56,1624275804.0,32.000000
-30,0,56,1624275804.0,32.000000
-30,0,56,1624275804.0,32.000000
-31,0,56,1624275804.0,32.000000
-31,0,56,1624275804.0,32.000000
-31,0,56,1624275804.0,32.000000
-31,0,56,1624275804.0,32.000000
-31,0,56,1624275804.0,32.000000
-30,0,56,1624275804.0,32.000000
-30,0,57,1624275804.0,32.000000
-30,0,56,1624275804.0,32.000000
-30,0,56,1624275804.0,32.000000
-31,0,56,1624275804.0,32.000000
-31,0,56,1624275804.0,32.000000
-30,0,56,1624275804.0,32.000000
-30,0,56,1624275804.0,32.000000
-31,0,56,1624275804.0,32.000000
-31,0,56,1624275804.0,32.000000
-31,0,56,1624275804.0,32.000000
-30,0,56,1624275804.0,32.000000
-30,0,56,1624275804.0,32.000000
-30,0,56,1624275804.0,32.000000
-31,0,56,1624275804.0,32.000000
-31,0,56,1624275804.0,32.000000
-31,0,56,1624275804.0,32.000000
-31,0,56,1624275804.0,32.000000
-31,0,56,1624275804.0,32.000000
-30,0,56,1624275804.0,32.000000
-31,0,56,1624275804.0,32.000000
-31,0,56,1624275804.0,32.000000
-30,0,56,1624275804.0,32.000000
-30,0,56,1624275804.0,32.000000
-30,0,56,1624275804.0,32.000000
-31,0,56,1624275804.0,32.000000
-32,0,56,1624275804.0,32.000000
-32,0,56,1624275804.0,32.000000
-32,0,56,1624275804.0,32.000000
-31,0,56,1624275804.0,32.000000
-30,0,56,1624275804.0,32.000000
-30,0,56,1624275804.0,32.000000
-30,0,57,1624275804.0,32.000000
-30,0,56,1624275804.0,32.000000
-31,0,56,1624275804.0,32.000000
-31,0,56,1624275804.0,32.000000
-31,0,56,1624275804.0,32.000000
-31,0,56,1624275804.0,32.000000
-31,0,56,1624275804.0,32.000000
-30,0,56,1624275804.0,32.000000
-31,0,56,1624275804.0,32.000000
-31,1,56,1624275804.0,32.000000
-31,0,56,1624275804.0,32.000000
-30,0,56,1624275804.0,32.000000
-30,0,56,1624275804.0,32.000000
-30,0,56,1624275804.0,32.000000
-30,0,56,1624275804.0,32.000000
-30,0,56,1624275804.0,32.000000
-31,0,56,1624275804.0,32.000000
-31,0,56,1624275804.0,32.000000
-31,0,56,1624275804.0,32.000000
-31,0,56,1624275804.0,32.000000
-31,0,56,1624275804.0,32.000000
-30,0,56,1624275804.0,32.000000
-30,0,56,1624275804.0,32.000000
-30,0,56,1624275804.0,32.000000
-31,0,56,1624275804.0,32.000000
-31,0,56,1624275804.0,32.000000
-31,0,56,1624275804.0,32.000000
-31,0,56,1624275804.0,32.000000
-31,0,56,1624275804.0,32.000000
-31,0,56,1624275804.0,32.000000
-31,0,56,1624275804.0,32.000000
-31,0,56,1624275804.0,32.000000
-31,0,56,1624275804.0,32.000000
-31,0,56,1624275804.0,32.000000
-31,0,56,1624275804.0,32.000000
-31,0,56,1624275804.0,32.000000
-31,0,56,1624275804.0,32.000000
-31,0,56,1624275804.0,32.000000
-31,0,56,1624275804.0,32.000000
-31,0,56,1624275804.0,32.000000
-30,0,56,1624275804.0,32.000000
-30,0,56,1624275804.0,32.000000
-31,0,56,1624275804.0,32.000000
-31,0,56,1624275804.0,32.000000
-31,0,56,1624275804.0,32.000000
-31,0,56,1624275804.0,32.000000
-31,0,56,1624275804.0,32.000000
-30,0,56,1624275804.0,32.000000
-31,0,56,1624275804.0,32.000000
-31,0,56,1624275804.0,32.000000
-31,0,56,1624275804.0,32.000000
-31,1,56,1624275804.0,32.000000
-31,0,56,1624275804.0,32.000000
-31,0,56,1624275804.0,32.000000
-30,0,56,1624275804.0,32.000000
-30,0,56,1624275804.0,32.000000
-31,1,56,1624275804.0,32.000000
-31,0,56,1624275804.0,32.000000
-31,0,56,1624275804.0,32.000000
-31,0,56,1624275804.0,32.000000
-31,1,56,1624275804.0,32.000000
-31,0,55,1624275804.0,32.000000
-31,-1,56,1624275804.0,32.000000
-30,0,56,1624275804.0,32.000000
-30,0,56,1624275804.0,32.000000
-31,0,56,1624275804.0,32.000000
-31,0,55,1624275804.0,32.000000
-30,0,56,1624275804.0,32.000000
-30,0,56,1624275804.0,32.000000
-31,0,55,1624275804.0,32.000000
-31,0,56,1624275804.0,32.000000
-31,0,56,1624275804.0,32.000000
-31,0,56,1624275804.0,32.000000
-31,0,56,1624275804.0,32.000000
-31,0,56,1624275804.0,32.000000
-30,0,56,1624275804.0,32.000000
-30,0,56,1624275804.0,32.000000
-31,0,56,1624275804.0,32.000000
-31,-1,56,1624275804.0,32.000000
-32,1,56,1624275804.0,32.000000
-31,1,55,1624275804.0,32.000000
-32,0,56,1624275804.0,32.000000
-32,0,57,1624275804.0,32.000000
-30,0,55,1624275804.0,32.000000
-30,0,56,1624275804.0,32.000000
-31,0,56,1624275804.0,32.000000
-32,0,56,1624275804.0,32.000000
-31,0,56,1624275804.0,32.000000
-30,0,56,1624275804.0,32.000000
-30,0,56,1624275804.0,32.000000
-31,0,56,1624275804.0,32.000000
-32,0,56,1624275804.0,32.000000
-32,0,56,1624275804.0,32.000000
-31,0,56,1624275804.0,32.000000
-30,0,56,1624275804.0,32.000000
-30,0,56,1624275804.0,32.000000
-31,0,56,1624275804.0,32.000000
-31,0,56,1624275804.0,32.000000
-31,0,56,1624275804.0,32.000000
-31,0,56,1624275804.0,32.000000
-31,0,56,1624275804.0,32.000000
-31,0,56,1624275804.0,32.000000
-31,0,56,1624275804.0,32.000000
-31,0,56,1624275804.0,32.000000
-31,0,56,1624275804.0,32.000000
-31,0,56,1624275804.0,32.000000
-30,0,56,1624275804.0,32.000000
-31,0,56,1624275804.0,32.000000
-31,0,56,1624275804.0,32.000000
-31,0,56,1624275804.0,32.000000
-31,0,56,1624275804.0,32.000000
-31,0,56,1624275804.0,32.000000
-30,0,56,1624275804.0,32.000000
-30,0,56,1624275804.0,32.000000
-30,0,56,1624275804.0,32.000000
-31,0,56,1624275804.0,32.000000
-31,0,56,1624275804.0,32.000000
-31,0,56,1624275804.0,32.000000
-31,0,56,1624275804.0,32.000000
-31,0,56,1624275804.0,32.000000
-31,0,56,1624275804.0,32.000000
-31,0,56,1624275804.0,32.000000
-31,0,56,1624275804.0,32.000000
-30,0,56,1624275804.0,32.000000
-30,0,56,1624275804.0,32.000000
-31,0,56,1624275804.0,32.000000
-31,0,56,1624275804.0,32.000000
-31,0,56,1624275804.0,32.000000
-30,0,56,1624275804.0,32.000000
-30,0,56,1624275804.0,32.000000
-31,0,56,1624275804.0,32.000000
-31,0,56,1624275804.0,32.000000
-31,0,56,1624275804.0,32.000000
-31,0,56,1624275804.0,32.000000
-30,0,56,1624275804.0,32.000000
-30,0,56,1624275804.0,32.000000
-30,0,56,1624275804.0,32.000000
-31,0,57,1624275804.0,32.000000
-31,0,56,1624275804.0,32.000000
-31,1,56,1624275804.0,32.000000
-31,0,56,1624275804.0,32.000000
-31,0,56,1624275804.0,32.000000
-30,0,56,1624275804.0,32.000000
-30,0,56,1624275804.0,32.000000
-30,0,56,1624275804.0,32.000000
-30,0,56,1624275804.0,32.000000
-31,0,56,1624275804.0,32.000000
-31,0,56,1624275804.0,32.000000
-30,0,56,1624275804.0,32.000000
-30,0,56,1624275804.0,32.000000
-31,0,56,1624275804.0,32.000000
-31,0,56,1624275804.0,32.000000
-30,0,56,1624275804.0,32.000000
-30,0,56,1624275804.0,32.000000
-30,0,56,1624275804.0,32.000000
-30,0,56,1624275804.0,32.000000
-31,0,56,1624275804.0,32.000000
-31,0,56,1624275804.0,32.000000
-31,0,56,1624275804.0,32.000000
-31,0,56,1624275804.0,32.000000
-31,0,56,1624275804.0,32.000000
-31,0,56,1624275804.0,32.000000
-31,0,56,1624275804.0,32.000000
-31,0,56,1624275804.0,32.000000
-30,0,56,1624275804.0,32.000000
-31,0,56,1624275804.0,32.000000
-31,0,56,1624275804.0,32.000000
-32,0,56,1624275804.0,32.000000
-31,0,56,1624275804.0,32.000000
-31,0,56,1624275804.0,32.000000
-30,0,56,1624275804.0,32.000000
-30,0,56,1624275804.0,32.000000
-31,0,56,1624275804.0,32.000000
-31,0,56,1624275804.0,32.000000
-31,0,56,1624275804.0,32.000000
-31,0,56,1624275804.0,32.000000
-30,0,56,1624275804.0,32.000000
-30,0,57,1624275804.0,32.000000
-30,0,56,1624275804.0,32.000000
-31,0,56,1624275804.0,32.000000
-31,0,56,1624275804.0,32.000000
-31,0,55,1624275804.0,32.000000
-31,0,56,1624275804.0,32.000000
-31,0,56,1624275804.0,32.000000
-31,0,56,1624275804.0,32.000000
-31,0,56,1624275804.0,32.000000
-31,0,56,1624275804.0,32.000000
-31,0,55,1624275804.0,32.000000
-31,0,56,1624275804.0,32.000000
-31,0,56,1624275804.0,32.000000
-31,0,56,1624275804.0,32.000000
-31,0,56,1624275804.0,32.000000
-30,0,56,1624275804.0,32.000000
-31,0,56,1624275804.0,32.000000
-31,0,56,1624275804.0,32.000000
-31,0,56,1624275804.0,32.000000
-31,0,56,1624275804.0,32.000000
-31,0,56,1624275804.0,32.000000
-31,0,56,1624275804.0,32.000000
-31,-1,56,1624275804.0,32.000000
-31,0,56,1624275804.0,32.000000
-31,0,55,1624275804.0,32.000000
-31,0,56,1624275804.0,32.000000
-32,0,56,1624275804.0,32.000000
-30,-1,55,1624275804.0,32.000000
-30,0,55,1624275804.0,32.000000
-30,0,57,1624275804.0,32.000000
-31,0,56,1624275804.0,32.000000
-32,0,56,1624275804.0,32.000000
-31,0,56,1624275804.0,32.000000
-32,0,55,1624275804.0,32.000000
-32,0,55,1624275804.0,32.000000
-31,0,56,1624275804.0,32.000000
-30,0,56,1624275804.0,32.000000
-30,0,56,1624275804.0,32.000000
-30,0,56,1624275804.0,32.000000
-32,0,56,1624275804.0,32.000000
-32,0,56,1624275804.0,32.000000
-31,0,56,1624275804.0,32.000000
-31,1,56,1624275804.0,32.000000
-31,0,56,1624275804.0,32.000000
-31,0,56,1624275804.0,32.000000
-31,0,56,1624275804.0,32.000000
-31,0,56,1624275804.0,32.000000
-31,0,56,1624275804.0,32.000000
-30,0,56,1624275804.0,32.000000
-31,0,56,1624275804.0,32.000000
-31,0,56,1624275804.0,32.000000
-31,0,56,1624275804.0,32.000000
-30,0,56,1624275804.0,32.000000
-31,0,56,1624275804.0,32.000000
-31,0,56,1624275804.0,32.000000
-31,0,56,1624275804.0,32.000000
-31,0,56,1624275804.0,32.000000
-31,0,56,1624275804.0,32.000000
-30,0,56,1624275804.0,32.000000
-31,0,56,1624275804.0,32.000000
-30,0,56,1624275804.0,32.000000
-31,0,56,1624275804.0,32.000000
-31,0,56,1624275804.0,32.000000
-31,0,56,1624275804.0,32.000000
-31,0,56,1624275804.0,32.000000
-30,0,56,1624275804.0,32.000000
-30,0,56,1624275804.0,32.000000
-31,0,56,1624275804.0,32.000000
-31,0,56,1624275804.0,32.000000
-31,0,56,1624275804.0,32.000000
-31,0,56,1624275804.0,32.000000
-30,0,56,1624275804.0,32.000000
-31,0,56,1624275804.0,32.000000
-30,0,56,1624275804.0,32.000000
-31,0,56,1624275804.0,32.000000
-31,0,56,1624275804.0,32.000000
-31,0,56,1624275804.0,32.000000
-30,0,56,1624275804.0,32.000000
-30,0,56,1624275804.0,32.000000
-31,0,56,1624275804.0,32.000000
-31,0,56,1624275804.0,32.000000
-30,0,56,1624275804.0,32.000000
-31,0,56,1624275804.0,32.000000
-31,0,56,1624275804.0,32.000000
-30,0,56,1624275804.0,32.000000
-32,0,57,1624275804.0,32.000000
-31,0,56,1624275804.0,32.000000
-31,1,56,1624275804.0,32.000000
-31,1,56,1624275804.0,32.000000
-32,0,56,1624275804.0,32.000000
-32,0,56,1624275804.0,32.000000
-30,0,56,1624275804.0,32.000000
-30,0,56,1624275804.0,32.000000
-31,0,56,1624275804.0,32.000000
-31,0,55,1624275804.0,32.000000
-32,0,56,1624275804.0,32.000000
-30,0,56,1624275804.0,32.000000
-30,0,56,1624275804.0,32.000000
-31,0,56,1624275804.0,32.000000
-32,-1,55,1624275804.0,32.000000
-31,0,56,1624275804.0,32.000000
-31,0,56,1624275804.0,32.000000
-30,0,56,1624275804.0,32.000000
-30,0,56,1624275804.0,32.000000
-31,0,56,1624275804.0,32.000000
-31,0,56,1624275804.0,32.000000
-31,0,56,1624275804.0,32.000000
-31,0,56,1624275804.0,32.000000
-31,0,56,1624275804.0,32.000000
-31,0,56,1624275804.0,32.000000
-31,0,56,1624275804.0,32.000000
-31,0,56,1624275804.0,32.000000
-31,0,56,1624275804.0,32.000000
-31,0,56,1624275804.0,32.000000
-31,0,56,1624275804.0,32.000000
-31,0,56,1624275804.0,32.000000
-31,0,56,1624275804.0,32.000000
-31,0,56,1624275804.0,32.000000
-31,0,56,1624275804.0,32.000000
-31,0,56,1624275804.0,32.000000
-31,0,56,1624275804.0,32.000000
-31,0,56,1624275804.0,32.000000
-31,0,56,1624275804.0,32.000000
-31,0,56,1624275804.0,32.000000
-31,0,56,1624275804.0,32.000000
-31,0,56,1624275804.0,32.000000
-31,0,56,1624275804.0,32.000000
-31,0,56,1624275804.0,32.000000
-31,0,56,1624275804.0,32.000000
-31,0,56,1624275804.0,32.000000
-31,0,56,1624275804.0,32.000000
-31,0,56,1624275804.0,32.000000
-31,0,56,1624275804.0,32.000000
-31,0,56,1624275804.0,32.000000
-31,0,56,1624275804.0,32.000000
-31,0,56,1624275804.0,32.000000
-31,0,56,1624275804.0,32.000000
-31,0,56,1624275804.0,32.000000
-31,0,56,1624275804.0,32.000000
-31,0,56,1624275804.0,32.000000
-31,0,56,1624275804.0,32.000000
-31,0,56,1624275804.0,32.000000
-31,0,56,1624275804.0,32.000000
-31,0,56,1624275804.0,32.000000
-31,0,56,1624275804.0,32.000000
-31,0,56,1624275804.0,32.000000
-31,0,56,1624275804.0,32.000000
-31,0,56,1624275804.0,32.000000
-30,0,55,1624275804.0,32.000000
-31,0,56,1624275804.0,32.000000
-31,0,56,1624275804.0,32.000000
-32,1,56,1624275804.0,32.000000
-31,0,56,1624275804.0,32.000000
-30,0,56,1624275804.0,32.000000
-31,0,56,1624275804.0,32.000000
-31,0,56,1624275804.0,32.000000
-30,0,56,1624275804.0,32.000000
-31,0,56,1624275804.0,32.000000
-31,0,56,1624275804.0,32.000000
-31,0,56,1624275804.0,32.000000
-30,0,56,1624275804.0,32.000000
-31,0,56,1624275804.0,32.000000
-31,0,56,1624275804.0,32.000000
-31,0,56,1624275804.0,32.000000
-30,0,56,1624275804.0,32.000000
-30,0,56,1624275804.0,32.000000
-31,0,56,1624275804.0,32.000000
-31,0,56,1624275804.0,32.000000
-32,0,56,1624275804.0,32.000000
-31,0,56,1624275804.0,32.000000
-30,0,56,1624275804.0,32.000000
-30,0,56,1624275804.0,32.000000
-31,0,56,1624275804.0,32.000000
-31,0,56,1624275804.0,32.000000
-31,0,56,1624275804.0,32.000000
-31,0,56,1624275804.0,32.000000
-31,0,56,1624275804.0,32.000000
-30,0,56,1624275804.0,32.000000
-30,0,56,1624275804.0,32.000000
-31,-1,56,1624275804.0,32.000000
-31,0,56,1624275804.0,32.000000
-31,0,56,1624275804.0,32.000000
-31,0,56,1624275804.0,32.000000
-31,0,56,1624275804.0,32.000000
-30,0,56,1624275804.0,32.000000
-30,0,56,1624275804.0,32.000000
-31,0,56,1624275804.0,32.000000
-31,0,56,1624275804.0,32.000000
-31,0,56,1624275804.0,32.000000
-31,0,56,1624275804.0,32.000000
-32,0,55,1624275804.0,32.000000
-31,0,56,1624275804.0,32.000000
-31,0,56,1624275804.0,32.000000
-30,0,56,1624275804.0,32.000000
-31,0,56,1624275804.0,32.000000
-31,0,56,1624275804.0,32.000000
-31,0,56,1624275804.0,32.000000
-31,0,56,1624275804.0,32.000000
-31,0,56,1624275804.0,32.000000
-31,0,56,1624275804.0,32.000000
-31,0,56,1624275804.0,32.000000
-31,0,56,1624275804.0,32.000000
-31,0,56,1624275804.0,32.000000
-31,0,56,1624275804.0,32.000000
-31,0,56,1624275804.0,32.000000
-30,0,56,1624275804.0,32.000000
-31,0,56,1624275804.0,32.000000
-31,0,56,1624275804.0,32.000000
-31,0,56,1624275804.0,32.000000
-31,0,56,1624275804.0,32.000000
-31,0,56,1624275804.0,32.000000
-31,0,55,1624275804.0,32.000000
-31,0,56,1624275804.0,32.000000
-31,0,56,1624275804.0,32.000000
-31,0,56,1624275804.0,32.000000
-31,0,56,1624275804.0,32.000000
-31,0,55,1624275804.0,32.000000
-32,0,56,1624275804.0,32.000000
-31,1,56,1624275804.0,32.000000
-31,1,55,1624275804.0,32.000000
-32,0,57,1624275804.0,32.000000
-31,-1,56,1624275804.0,32.000000
-29,0,56,1624275804.0,32.000000
-29,1,56,1624275804.0,32.000000
-32,0,56,1624275804.0,32.000000
-32,-1,56,1624275804.0,32.000000
-31,0,56,1624275804.0,32.000000
-32,1,56,1624275804.0,32.000000
-31,1,56,1624275804.0,32.000000
-31,0,56,1624275804.0,32.000000
-30,0,57,1624275804.0,32.000000
-31,0,56,1624275804.0,32.000000
-31,-1,56,1624275804.0,32.000000
-31,0,56,1624275804.0,32.000000
-31,0,56,1624275804.0,32.000000
-31,0,55,1624275804.0,32.000000
-31,0,55,1624275804.0,32.000000
-31,0,56,1624275804.0,32.000000
-31,-1,56,1624275804.0,32.000000
-31,0,56,1624275804.0,32.000000
-31,0,56,1624275804.0,32.000000
-31,1,55,1624275804.0,32.000000
-31,0,55,1624275804.0,32.000000
-31,0,56,1624275804.0,32.000000
-30,-1,56,1624275804.0,32.000000
-30,-1,56,1624275804.0,32.000000
-30,0,56,1624275804.0,32.000000
-31,0,56,1624275804.0,32.000000
-32,0,56,1624275804.0,32.000000
-31,0,56,1624275804.0,32.000000
-32,0,56,1624275804.0,32.000000
-31,0,56,1624275804.0,32.000000
-30,0,56,1624275804.0,32.000000
-30,0,56,1624275804.0,32.000000
-30,0,56,1624275804.0,32.000000
-31,0,56,1624275804.0,32.000000
-32,0,56,1624275804.0,32.000000
-32,0,55,1624275804.0,32.000000
-30,0,56,1624275804.0,32.000000
-30,0,56,1624275804.0,32.000000
-31,0,56,1624275804.0,32.000000
-31,0,56,1624275804.0,32.000000
-31,0,56,1624275804.0,32.000000
-31,0,56,1624275804.0,32.000000
-31,0,56,1624275804.0,32.000000
-31,0,56,1624275804.0,32.000000
-30,0,56,1624275804.0,32.000000
-30,0,56,1624275804.0,32.000000
-31,0,56,1624275804.0,32.000000
-31,0,56,1624275804.0,32.000000
-31,0,56,1624275804.0,32.000000
-31,0,56,1624275804.0,32.000000
-31,0,56,1624275804.0,32.000000
-30,0,56,1624275804.0,32.000000
-31,0,56,1624275804.0,32.000000
-31,0,56,1624275804.0,32.000000
-31,0,56,1624275804.0,32.000000
-30,0,56,1624275804.0,32.000000
-30,0,56,1624275804.0,32.000000
-30,0,56,1624275804.0,32.000000
-31,0,56,1624275804.0,32.000000
-31,0,57,1624275804.0,32.000000
-30,0,56,1624275804.0,32.000000
-31,1,56,1624275804.0,32.000000
-31,0,56,1624275804.0,32.000000
-31,0,56,1624275804.0,32.000000
-30,0,56,1624275804.0,32.000000
-29,0,56,1624275804.0,32.000000
-30,0,56,1624275804.0,32.000000
-32,0,56,1624275804.0,32.000000
-32,-1,56,1624275804.0,32.000000
-30,0,56,1624275804.0,32.000000
-30,0,56,1624275804.0,32.000000
-31,0,56,1624275804.0,32.000000
-32,0,56,1624275804.0,32.000000
-31,0,56,1624275804.0,32.000000
-31,0,56,1624275804.0,32.000000
-30,0,56,1624275804.0,32.000000
-30,0,56,1624275804.0,32.000000
-31,0,56,1624275804.0,32.000000
-31,0,56,1624275804.0,32.000000
-31,0,56,1624275804.0,32.000000
-31,0,56,1624275804.0,32.000000
-31,0,56,1624275804.0,32.000000
-31,0,56,1624275804.0,32.000000
-31,0,56,1624275804.0,32.000000
-31,0,56,1624275804.0,32.000000
-31,0,56,1624275804.0,32.000000
-31,0,56,1624275804.0,32.000000
-31,0,56,1624275804.0,32.000000
-31,0,56,1624275804.0,32.000000
-30,0,56,1624275804.0,32.000000
-31,0,56,1624275804.0,32.000000
-31,0,56,1624275804.0,32.000000
-31,0,56,1624275804.0,32.000000
-31,0,56,1624275804.0,32.000000
-30,0,56,1624275804.0,32.000000
-31,0,56,1624275804.0,32.000000
-31,0,56,1624275804.0,32.000000
-31,0,56,1624275804.0,32.000000
-31,0,56,1624275804.0,32.000000
-31,0,56,1624275804.0,32.000000
-30,0,56,1624275804.0,32.000000
-31,0,56,1624275804.0,32.000000
-31,0,56,1624275804.0,32.000000
-31,0,56,1624275804.0,32.000000
-31,0,56,1624275804.0,32.000000
-31,0,56,1624275804.0,32.000000
-31,0,56,1624275804.0,32.000000
-31,0,56,1624275804.0,32.000000
-31,0,56,1624275804.0,32.000000
-31,0,56,1624275804.0,32.000000
-31,0,56,1624275804.0,32.000000
-30,0,56,1624275804.0,32.000000
-31,0,56,1624275804.0,32.000000
-31,0,56,1624275804.0,32.000000
-31,0,56,1624275804.0,32.000000
-30,0,56,1624275804.0,32.000000
-30,0,56,1624275804.0,32.000000
-31,0,56,1624275804.0,32.000000
-31,-1,55,1624275804.0,32.000000
-30,0,57,1624275804.0,32.000000
-30,0,56,1624275804.0,32.000000
-31,-1,55,1624275804.0,32.000000
-30,0,56,1624275804.0,32.000000
-30,0,56,1624275804.0,32.000000
-31,0,56,1624275804.0,32.000000
-30,0,56,1624275804.0,32.000000
-30,0,56,1624275804.0,32.000000
-31,0,56,1624275804.0,32.000000
-31,0,56,1624275804.0,32.000000
-31,0,56,1624275804.0,32.000000
-31,0,56,1624275804.0,32.000000
-31,0,56,1624275804.0,32.000000
-31,0,56,1624275804.0,32.000000
-30,0,56,1624275804.0,32.000000
-31,0,56,1624275804.0,32.000000
-31,0,56,1624275804.0,32.000000
-31,0,56,1624275804.0,32.000000
-31,0,56,1624275804.0,32.000000
-31,0,56,1624275804.0,32.000000
-31,0,55,1624275804.0,32.000000
-30,0,56,1624275804.0,32.000000
-30,0,56,1624275804.0,32.000000
-30,0,56,1624275804.0,32.000000
-31,0,56,1624275804.0,32.000000
-31,0,56,1624275804.0,32.000000
-32,0,55,1624275804.0,32.000000
-31,0,56,1624275804.0,32.000000
-30,0,56,1624275804.0,32.000000
-30,0,56,1624275804.0,32.000000
-31,0,56,1624275804.0,32.000000
-31,0,56,1624275804.0,32.000000
-31,0,56,1624275804.0,32.000000
-31,0,56,1624275804.0,32.000000
-31,0,56,1624275804.0,32.000000
-31,0,56,1624275804.0,32.000000
-30,0,56,1624275804.0,32.000000
-31,0,56,1624275804.0,32.000000
-31,0,56,1624275804.0,32.000000
-31,0,56,1624275804.0,32.000000
-31,0,56,1624275804.0,32.000000
-31,0,56,1624275804.0,32.000000
-31,0,56,1624275804.0,32.000000
-31,0,56,1624275804.0,32.000000
-31,0,56,1624275804.0,32.000000
-31,0,56,1624275804.0,32.000000
-31,0,56,1624275804.0,32.000000
-31,0,56,1624275804.0,32.000000
-30,0,55,1624275804.0,32.000000
-31,0,56,1624275804.0,32.000000
-31,0,56,1624275804.0,32.000000
-31,0,56,1624275804.0,32.000000
-31,0,56,1624275804.0,32.000000
-31,0,56,1624275804.0,32.000000
-31,0,56,1624275804.0,32.000000
-31,0,56,1624275804.0,32.000000
-31,0,56,1624275804.0,32.000000
-31,0,56,1624275804.0,32.000000
-30,0,56,1624275804.0,32.000000
-30,0,56,1624275804.0,32.000000
-31,0,56,1624275804.0,32.000000
-31,0,57,1624275804.0,32.000000
-31,0,56,1624275804.0,32.000000
-31,0,56,1624275804.0,32.000000
-31,0,56,1624275804.0,32.000000
-31,0,56,1624275804.0,32.000000
-31,0,56,1624275804.0,32.000000
-31,0,56,1624275804.0,32.000000
-31,0,56,1624275804.0,32.000000
-31,0,56,1624275804.0,32.000000
-31,0,56,1624275804.0,32.000000
-31,0,56,1624275804.0,32.000000
-30,0,56,1624275804.0,32.000000
-30,0,56,1624275804.0,32.000000
-31,0,56,1624275804.0,32.000000
-32,0,56,1624275804.0,32.000000
-31,0,56,1624275804.0,32.000000
-31,0,56,1624275804.0,32.000000
-30,0,56,1624275804.0,32.000000
-31,0,56,1624275804.0,32.000000
-30,0,56,1624275804.0,32.000000
-31,0,56,1624275804.0,32.000000
-31,0,56,1624275804.0,32.000000
-31,0,56,1624275804.0,32.000000
-31,0,56,1624275804.0,32.000000
-30,0,56,1624275804.0,32.000000
-30,0,56,1624275804.0,32.000000
-31,0,56,1624275804.0,32.000000
-30,0,56,1624275804.0,32.000000
-30,0,56,1624275804.0,32.000000
-31,0,56,1624275804.0,32.000000
-31,0,56,1624275804.0,32.000000
-31,0,56,1624275804.0,32.000000
-31,0,56,1624275804.0,32.000000
-30,0,56,1624275804.0,32.000000
-31,0,56,1624275804.0,32.000000
-31,0,56,1624275804.0,32.000000
-31,0,56,1624275804.0,32.000000
-31,0,56,1624275804.0,32.000000
-31,0,56,1624275804.0,32.000000
-30,0,56,1624275804.0,32.000000
-31,0,56,1624275804.0,32.000000
-30,0,56,1624275804.0,32.000000
-31,0,56,1624275804.0,32.000000
-31,0,56,1624275804.0,32.000000
-31,0,56,1624275804.0,32.000000
-30,0,56,1624275804.0,32.000000
-30,0,56,1624275804.0,32.000000
-31,0,56,1624275804.0,32.000000
-31,0,56,1624275804.0,32.000000
-31,0,56,1624275804.0,32.000000
-31,0,56,1624275804.0,32.000000
-30,0,56,1624275804.0,32.000000
-30,0,56,1624275804.0,32.000000
-31,0,56,1624275804.0,32.000000
-31,0,56,1624275804.0,32.000000
-31,0,56,1624275804.0,32.000000
-30,0,56,1624275804.0,32.000000
-30,0,56,1624275804.0,32.000000
-31,0,56,1624275804.0,32.000000
-30,0,56,1624275804.0,32.000000
-30,0,56,1624275804.0,32.000000
-31,0,56,1624275804.0,32.000000
-30,0,56,1624275804.0,32.000000
-31,0,56,1624275804.0,32.000000
-31,0,56,1624275804.0,32.000000
-30,0,56,1624275804.0,32.000000
-31,0,56,1624275804.0,32.000000
-31,0,56,1624275804.0,32.000000
-31,0,56,1624275804.0,32.000000
-30,0,57,1624275804.0,32.000000
-30,0,56,1624275804.0,32.000000
-30,0,56,1624275804.0,32.000000
-31,0,56,1624275804.0,32.000000
-31,0,56,1624275804.0,32.000000
-31,0,56,1624275804.0,32.000000
-30,0,56,1624275804.0,32.000000
-30,0,56,1624275804.0,32.000000
-31,0,56,1624275804.0,32.000000
-31,0,56,1624275804.0,32.000000
-31,0,56,1624275804.0,32.000000
-30,0,56,1624275804.0,32.000000
-30,0,56,1624275804.0,32.000000
-30,0,56,1624275804.0,32.000000
-31,0,56,1624275804.0,32.000000
-31,0,56,1624275804.0,32.000000
-31,0,56,1624275804.0,32.000000
-31,0,56,1624275804.0,32.000000
-31,0,56,1624275804.0,32.000000
-31,0,56,1624275804.0,32.000000
-30,0,56,1624275804.0,32.000000
-30,0,56,1624275804.0,32.000000
-30,0,56,1624275804.0,32.000000
-31,0,56,1624275804.0,32.000000
-31,0,56,1624275804.0,32.000000
-31,0,56,1624275804.0,32.000000
-30,0,56,1624275804.0,32.000000
-31,0,56,1624275804.0,32.000000
-31,0,56,1624275804.0,32.000000
-31,0,56,1624275804.0,32.000000
-31,0,56,1624275804.0,32.000000
-31,0,56,1624275804.0,32.000000
-31,0,56,1624275804.0,32.000000
-31,0,56,1624275804.0,32.000000
-31,0,56,1624275804.0,32.000000
-31,0,56,1624275804.0,32.000000
-31,0,56,1624275804.0,32.000000
-31,0,56,1624275804.0,32.000000
-31,0,56,1624275804.0,32.000000
-31,0,56,1624275804.0,32.000000
-31,0,56,1624275804.0,32.000000
-31,0,56,1624275804.0,32.000000
-31,0,56,1624275804.0,32.000000
-31,0,56,1624275804.0,32.000000
-31,0,56,1624275804.0,32.000000
-31,0,56,1624275804.0,32.000000
-31,0,56,1624275804.0,32.000000
-30,0,56,1624275804.0,32.000000
-31,0,56,1624275804.0,32.000000
-31,0,56,1624275804.0,32.000000
-31,0,56,1624275804.0,32.000000
-31,0,56,1624275804.0,32.000000
-31,0,56,1624275804.0,32.000000
-31,0,56,1624275804.0,32.000000
-31,0,56,1624275804.0,32.000000
-31,0,56,1624275804.0,32.000000
-31,0,56,1624275804.0,32.000000
-31,0,56,1624275804.0,32.000000
-31,0,56,1624275804.0,32.000000
-31,0,56,1624275804.0,32.000000
-30,0,56,1624275804.0,32.000000
-30,0,56,1624275804.0,32.000000
-31,0,56,1624275804.0,32.000000
-31,0,56,1624275804.0,32.000000
-31,0,56,1624275804.0,32.000000
-31,0,56,1624275804.0,32.000000
-31,0,56,1624275804.0,32.000000
-31,0,56,1624275804.0,32.000000
-31,0,56,1624275804.0,32.000000
-31,0,56,1624275804.0,32.000000
-30,0,56,1624275804.0,32.000000
-30,0,56,1624275804.0,32.000000
-31,0,56,1624275804.0,32.000000
-31,0,56,1624275804.0,32.000000
-31,0,56,1624275804.0,32.000000
-31,0,56,1624275804.0,32.000000
-31,0,56,1624275804.0,32.000000
-30,0,56,1624275804.0,32.000000
-31,0,56,1624275804.0,32.000000
-30,0,56,1624275804.0,32.000000
-31,0,56,1624275804.0,32.000000
-31,0,56,1624275804.0,32.000000
-31,0,56,1624275804.0,32.000000
-31,0,56,1624275804.0,32.000000
-31,0,56,1624275804.0,32.000000
-31,0,56,1624275804.0,32.000000
-31,0,56,1624275804.0,32.000000
-31,0,56,1624275804.0,32.000000
-31,0,56,1624275804.0,32.000000
-31,0,56,1624275804.0,32.000000
-31,0,56,1624275804.0,32.000000
-30,0,56,1624275804.0,32.000000
-31,0,56,1624275804.0,32.000000
-31,0,56,1624275804.0,32.000000
-31,0,56,1624275804.0,32.000000
-31,0,56,1624275804.0,32.000000
-30,0,56,1624275804.0,32.000000
-31,0,56,1624275804.0,32.000000
-31,0,56,1624275804.0,32.000000
-30,0,56,1624275804.0,32.000000
-31,0,56,1624275804.0,32.000000
-31,0,56,1624275804.0,32.000000
-30,0,56,1624275804.0,32.000000
-30,0,56,1624275804.0,32.000000
-30,0,56,1624275804.0,32.000000
-31,0,56,1624275804.0,32.000000
-31,0,56,1624275804.0,32.000000
-30,0,56,1624275804.0,32.000000
-30,0,56,1624275804.0,32.000000
-31,0,56,1624275804.0,32.000000
-31,0,56,1624275804.0,32.000000
-30,0,56,1624275804.0,32.000000
-31,0,56,1624275804.0,32.000000
-31,0,56,1624275804.0,32.000000
-31,0,56,1624275804.0,32.000000
-31,0,56,1624275804.0,32.000000
-31,0,56,1624275804.0,32.000000
-30,0,56,1624275804.0,32.000000
-31,0,56,1624275804.0,32.000000
-31,0,56,1624275804.0,32.000000
-31,0,56,1624275804.0,32.000000
-30,0,56,1624275804.0,32.000000
-31,0,56,1624275804.0,32.000000
-31,0,56,1624275804.0,32.000000
-30,0,56,1624275804.0,32.000000
-30,0,56,1624275804.0,32.000000
-31,0,56,1624275804.0,32.000000
-31,0,56,1624275804.0,32.000000
-31,0,56,1624275804.0,32.000000
-31,0,56,1624275804.0,32.000000
-31,0,56,1624275804.0,32.000000
-31,0,56,1624275804.0,32.000000
-31,0,56,1624275804.0,32.000000
-31,0,56,1624275804.0,32.000000
-31,0,56,1624275804.0,32.000000
-31,0,56,1624275804.0,32.000000
-31,0,56,1624275804.0,32.000000
-31,0,56,1624275804.0,32.000000
-31,0,56,1624275804.0,32.000000
-31,0,56,1624275804.0,32.000000
-31,0,56,1624275804.0,32.000000
-31,0,56,1624275804.0,32.000000
-31,0,56,1624275804.0,32.000000
-30,0,56,1624275804.0,32.000000
-30,0,56,1624275804.0,32.000000
-31,0,56,1624275804.0,32.000000
-31,0,56,1624275804.0,32.000000
-31,0,56,1624275804.0,32.000000
-31,0,56,1624275804.0,32.000000
-31,0,56,1624275804.0,32.000000
-30,0,56,1624275804.0,32.000000
-30,0,56,1624275804.0,32.000000
-31,0,56,1624275804.0,32.000000
-31,0,56,1624275804.0,32.000000
-31,0,56,1624275804.0,32.000000
-31,0,56,1624275804.0,32.000000
-30,0,56,1624275804.0,32.000000
-31,0,56,1624275804.0,32.000000
-31,0,56,1624275804.0,32.000000
-31,0,56,1624275804.0,32.000000
-30,0,56,1624275804.0,32.000000
-31,0,56,1624275804.0,32.000000
-31,0,56,1624275804.0,32.000000
-31,0,56,1624275804.0,32.000000
-31,0,56,1624275804.0,32.000000
-31,0,56,1624275804.0,32.000000
-30,0,56,1624275804.0,32.000000
-30,0,56,1624275804.0,32.000000
-31,0,56,1624275804.0,32.000000
-30,0,56,1624275804.0,32.000000
-30,0,56,1624275804.0,32.000000
-30,0,56,1624275804.0,32.000000
-31,0,56,1624275804.0,32.000000
-31,0,56,1624275804.0,32.000000
-31,0,56,1624275804.0,32.000000
-30,0,56,1624275804.0,32.000000
-31,0,56,1624275804.0,32.000000
-30,0,56,1624275804.0,32.000000
-31,0,56,1624275804.0,32.000000
-31,0,56,1624275804.0,32.000000
-31,0,56,1624275804.0,32.000000
-30,0,56,1624275804.0,32.000000
-31,0,56,1624275804.0,32.000000
-31,0,56,1624275804.0,32.000000
-31,0,56,1624275804.0,32.000000
-31,0,56,1624275804.0,32.000000
-31,0,56,1624275804.0,32.000000
-31,0,56,1624275804.0,32.000000
-30,0,56,1624275804.0,32.000000
-31,0,56,1624275804.0,32.000000
-31,0,56,1624275804.0,32.000000
-31,0,56,1624275804.0,32.000000
-31,0,56,1624275804.0,32.000000
-31,0,56,1624275804.0,32.000000
-30,0,56,1624275804.0,32.000000
-31,0,56,1624275804.0,32.000000
-31,0,56,1624275804.0,32.000000
-31,0,56,1624275804.0,32.000000
-30,0,56,1624275804.0,32.000000
-30,0,56,1624275804.0,32.000000
-30,0,56,1624275804.0,32.000000
-31,0,56,1624275804.0,32.000000
-31,0,56,1624275804.0,32.000000
-31,0,56,1624275804.0,32.000000
-31,0,56,1624275804.0,32.000000
-30,0,56,1624275804.0,32.000000
-30,0,56,1624275804.0,32.000000
-31,0,56,1624275804.0,32.000000
-31,0,56,1624275804.0,32.000000
-31,0,56,1624275804.0,32.000000
-31,0,56,1624275804.0,32.000000
-31,0,56,1624275804.0,32.000000
-30,0,56,1624275804.0,32.000000
-31,0,56,1624275804.0,32.000000
-31,0,56,1624275804.0,32.000000
-31,0,56,1624275804.0,32.000000
-31,0,55,1624275804.0,32.000000
-31,0,56,1624275804.0,32.000000
-30,0,56,1624275804.0,32.000000
-31,0,56,1624275804.0,32.000000
-31,0,56,1624275804.0,32.000000
-31,0,56,1624275804.0,32.000000
-31,1,56,1624275804.0,32.000000
-31,0,56,1624275804.0,32.000000
-31,0,56,1624275804.0,32.000000
-31,0,56,1624275804.0,32.000000
-31,0,56,1624275804.0,32.000000
-31,0,56,1624275804.0,32.000000
-31,0,56,1624275804.0,32.000000
-31,0,56,1624275804.0,32.000000
-31,0,56,1624275804.0,32.000000
-31,0,56,1624275804.0,32.000000
-31,0,56,1624275804.0,32.000000
-31,0,56,1624275804.0,32.000000
-31,0,56,1624275804.0,32.000000
-31,0,56,1624275804.0,32.000000
-31,0,56,1624275804.0,32.000000
-31,0,56,1624275804.0,32.000000
-31,0,56,1624275804.0,32.000000
-31,0,56,1624275804.0,32.000000
-31,0,56,1624275804.0,32.000000
-30,0,56,1624275804.0,32.000000
-31,0,56,1624275804.0,32.000000
-31,0,56,1624275804.0,32.000000
-31,0,56,1624275804.0,32.000000
-31,0,56,1624275804.0,32.000000
-31,0,55,1624275804.0,32.000000
-31,0,56,1624275804.0,32.000000
-31,0,56,1624275804.0,32.000000
-31,0,56,1624275804.0,32.000000
-31,0,56,1624275804.0,32.000000
-31,0,56,1624275804.0,32.000000
-31,0,56,1624275804.0,32.000000
-30,0,56,1624275804.0,32.000000
-30,0,56,1624275804.0,32.000000
-31,0,56,1624275804.0,32.000000
-31,0,56,1624275804.0,32.000000
-31,0,56,1624275804.0,32.000000
-32,1,56,1624275804.0,32.000000
-31,0,56,1624275804.0,32.000000
-30,0,56,1624275804.0,32.000000
-30,-1,56,1624275804.0,32.000000
-30,0,56,1624275804.0,32.000000
-31,0,56,1624275804.0,32.000000
-31,0,56,1624275804.0,32.000000
-31,0,56,1624275804.0,32.000000
-31,0,56,1624275804.0,32.000000
-31,0,56,1624275804.0,32.000000
-31,0,56,1624275804.0,32.000000
-30,0,56,1624275804.0,32.000000
-31,0,56,1624275804.0,32.000000
-31,0,56,1624275804.0,32.000000
-31,0,56,1624275804.0,32.000000
-31,0,56,1624275804.0,32.000000
-30,0,56,1624275804.0,32.000000
-30,0,56,1624275804.0,32.000000
-30,0,56,1624275804.0,32.000000
-30,0,56,1624275804.0,32.000000
-31,0,56,1624275804.0,32.000000
-31,0,56,1624275804.0,32.000000
-31,0,56,1624275804.0,32.000000
-31,0,56,1624275804.0,32.000000
-30,0,56,1624275804.0,32.000000
-30,0,56,1624275804.0,32.000000
-31,0,56,1624275804.0,32.000000
-31,0,56,1624275804.0,32.000000
-31,0,56,1624275804.0,32.000000
-31,0,56,1624275804.0,32.000000
-31,0,56,1624275804.0,32.000000
-30,0,56,1624275804.0,32.000000
-31,0,56,1624275804.0,32.000000
-31,0,56,1624275804.0,32.000000
-30,0,56,1624275804.0,32.000000
-30,0,56,1624275804.0,32.000000
-31,0,56,1624275804.0,32.000000
-31,0,56,1624275804.0,32.000000
-30,0,56,1624275804.0,32.000000
-31,0,56,1624275804.0,32.000000
-31,0,56,1624275804.0,32.000000
-31,1,56,1624275804.0,32.000000
-31,0,56,1624275804.0,32.000000
-31,0,56,1624275804.0,32.000000
-30,0,57,1624275804.0,32.000000
-31,0,56,1624275804.0,32.000000
-31,0,56,1624275804.0,32.000000
-30,0,56,1624275804.0,32.000000
-30,0,56,1624275804.0,32.000000
-31,0,56,1624275804.0,32.000000
-31,0,56,1624275804.0,32.000000
-31,0,56,1624275804.0,32.000000
-31,0,56,1624275804.0,32.000000
-30,0,56,1624275804.0,32.000000
-30,0,56,1624275804.0,32.000000
-30,0,56,1624275804.0,32.000000
-31,-1,56,1624275804.0,32.000000
-31,0,56,1624275804.0,32.000000
-31,0,56,1624275804.0,32.000000
-31,0,56,1624275804.0,32.000000
-31,0,56,1624275804.0,32.000000
-30,0,56,1624275804.0,32.000000
-30,0,56,1624275804.0,32.000000
-30,0,56,1624275804.0,32.000000
-30,0,56,1624275804.0,32.000000
-30,0,56,1624275804.0,32.000000
-31,0,56,1624275804.0,32.000000
-31,0,56,1624275804.0,32.000000
-31,0,56,1624275804.0,32.000000
-31,0,56,1624275804.0,32.000000
-30,0,56,1624275804.0,32.000000
-31,0,56,1624275804.0,32.000000
-30,0,56,1624275804.0,32.000000
-30,0,57,1624275804.0,32.000000
-31,0,56,1624275804.0,32.000000
-31,0,56,1624275804.0,32.000000
-30,0,56,1624275804.0,32.000000
-31,0,56,1624275804.0,32.000000
-31,0,56,1624275804.0,32.000000
-31,0,56,1624275804.0,32.000000
-30,0,56,1624275804.0,32.000000
-30,0,56,1624275804.0,32.000000
-31,0,56,1624275804.0,32.000000
-31,0,56,1624275804.0,32.000000
-30,0,56,1624275804.0,32.000000
-30,0,56,1624275804.0,32.000000
-31,0,56,1624275804.0,32.000000
-31,0,56,1624275804.0,32.000000
-31,0,56,1624275804.0,32.000000
-31,0,56,1624275804.0,32.000000
-31,0,56,1624275804.0,32.000000
-31,0,56,1624275804.0,32.000000
-31,0,56,1624275804.0,32.000000
-31,0,56,1624275804.0,32.000000
-31,0,56,1624275804.0,32.000000
-31,0,56,1624275804.0,32.000000
-31,0,56,1624275804.0,32.000000
-31,0,56,1624275804.0,32.000000
-31,0,56,1624275804.0,32.000000
-31,0,56,1624275804.0,32.000000
-31,0,56,1624275804.0,32.000000
-31,0,56,1624275804.0,32.000000
-31,0,56,1624275804.0,32.000000
-31,0,56,1624275804.0,32.000000
-31,0,56,1624275804.0,32.000000
-31,0,56,1624275804.0,32.000000
-31,0,56,1624275804.0,32.000000
-31,0,56,1624275804.0,32.000000
-31,0,56,1624275804.0,32.000000
-31,1,56,1624275804.0,32.000000
-30,0,56,1624275804.0,32.000000
-31,0,56,1624275804.0,32.000000
-31,-1,56,1624275804.0,32.000000
-31,0,56,1624275804.0,32.000000
-30,0,56,1624275804.0,32.000000
-31,0,56,1624275804.0,32.000000
-30,0,55,1624275804.0,32.000000
-30,0,57,1624275804.0,32.000000
-31,0,56,1624275804.0,32.000000
-31,0,56,1624275804.0,32.000000
-31,0,56,1624275804.0,32.000000
-31,0,56,1624275804.0,32.000000
-30,0,56,1624275804.0,32.000000
-30,0,56,1624275804.0,32.000000
-31,0,56,1624275804.0,32.000000
-31,0,56,1624275804.0,32.000000
-31,0,56,1624275804.0,32.000000
-30,0,56,1624275804.0,32.000000
-31,0,56,1624275804.0,32.000000
-31,0,56,1624275804.0,32.000000
-31,0,56,1624275804.0,32.000000
-31,0,56,1624275804.0,32.000000
-31,0,56,1624275804.0,32.000000
-31,0,56,1624275804.0,32.000000
-30,0,56,1624275804.0,32.000000
-31,0,56,1624275804.0,32.000000
-31,0,56,1624275804.0,32.000000
-31,0,56,1624275804.0,32.000000
-31,0,56,1624275804.0,32.000000
-31,0,56,1624275804.0,32.000000
-31,0,56,1624275804.0,32.000000
-30,0,56,1624275804.0,32.000000
-31,0,56,1624275804.0,32.000000
-31,0,56,1624275804.0,32.000000
-30,0,56,1624275804.0,32.000000
-30,0,56,1624275804.0,32.000000
-30,0,56,1624275804.0,32.000000
-30,0,56,1624275804.0,32.000000
-31,0,56,1624275804.0,32.000000
-31,0,56,1624275804.0,32.000000
-31,0,56,1624275804.0,32.000000
-30,0,56,1624275804.0,32.000000
-30,0,56,1624275804.0,32.000000
-30,0,56,1624275804.0,32.000000
-31,0,56,1624275804.0,32.000000
-31,0,56,1624275804.0,32.000000
-31,0,56,1624275804.0,32.000000
-31,0,56,1624275804.0,32.000000
-31,0,56,1624275804.0,32.000000
-31,0,56,1624275804.0,32.000000
-31,0,56,1624275804.0,32.000000
-30,0,56,1624275804.0,32.000000
-31,0,56,1624275804.0,32.000000
-31,0,56,1624275804.0,32.000000
-31,0,56,1624275804.0,32.000000
-31,0,55,1624275804.0,32.000000
-30,0,56,1624275804.0,32.000000
-30,0,56,1624275804.0,32.000000
-30,0,56,1624275804.0,32.000000
-31,0,56,1624275804.0,32.000000
-31,0,56,1624275804.0,32.000000
-31,0,56,1624275804.0,32.000000
-31,0,56,1624275804.0,32.000000
-31,0,57,1624275804.0,32.000000
-31,0,56,1624275804.0,32.000000
-31,0,56,1624275804.0,32.000000
-30,0,56,1624275804.0,32.000000
-30,0,56,1624275804.0,32.000000
-31,0,56,1624275804.0,32.000000
-31,0,56,1624275804.0,32.000000
-31,0,56,1624275804.0,32.000000
-31,0,56,1624275804.0,32.000000
-30,0,56,1624275804.0,32.000000
-30,0,56,1624275804.0,32.000000
-31,0,56,1624275804.0,32.000000
-31,0,56,1624275804.0,32.000000
-31,0,56,1624275804.0,32.000000
-30,0,56,1624275804.0,32.000000
-30,0,56,1624275804.0,32.000000
-30,0,56,1624275804.0,32.000000
-31,0,56,1624275804.0,32.000000
-31,0,56,1624275804.0,32.000000
-31,0,56,1624275804.0,32.000000
-31,0,56,1624275804.0,32.000000
-30,0,56,1624275804.0,32.000000
-30,0,56,1624275804.0,32.000000
-31,0,56,1624275804.0,32.000000
-31,0,56,1624275804.0,32.000000
-31,0,56,1624275804.0,32.000000
-31,0,56,1624275804.0,32.000000
-31,0,56,1624275804.0,32.000000
-31,0,56,1624275804.0,32.000000
-31,0,56,1624275804.0,32.000000
-31,0,56,1624275804.0,32.000000
-31,0,56,1624275804.0,32.000000
-31,0,56,1624275804.0,32.000000
-31,0,56,1624275804.0,32.000000
-31,0,56,1624275804.0,32.000000
-31,0,56,1624275804.0,32.000000
-31,0,56,1624275804.0,32.000000
-31,0,56,1624275804.0,32.000000
-31,0,56,1624275804.0,32.000000
-31,0,56,1624275804.0,32.000000
-31,0,56,1624275804.0,32.000000
-31,0,56,1624275804.0,32.000000
-31,0,56,1624275804.0,32.000000
-31,0,56,1624275804.0,32.000000
-31,0,56,1624275804.0,32.000000
-31,0,56,1624275804.0,32.000000
-31,0,56,1624275804.0,32.000000
-31,0,56,1624275804.0,32.000000
-31,0,56,1624275804.0,32.000000
-31,0,56,1624275804.0,32.000000
-31,0,56,1624275804.0,32.000000
-31,0,56,1624275804.0,32.000000
-31,0,56,1624275804.0,32.000000
-31,0,56,1624275804.0,32.000000
-31,0,56,1624275804.0,32.000000
-31,0,56,1624275804.0,32.000000
-31,0,56,1624275804.0,32.000000
-31,0,56,1624275804.0,32.000000
-31,0,56,1624275804.0,32.000000
-31,0,56,1624275804.0,32.000000
-31,0,56,1624275804.0,32.000000
-31,0,56,1624275804.0,32.000000
-31,0,56,1624275804.0,32.000000
-31,0,56,1624275804.0,32.000000
-30,0,56,1624275804.0,32.000000
-31,0,56,1624275804.0,32.000000
-31,0,56,1624275804.0,32.000000
-31,0,56,1624275804.0,32.000000
-31,0,56,1624275804.0,32.000000
-30,0,56,1624275804.0,32.000000
-31,0,56,1624275804.0,32.000000
-30,0,56,1624275804.0,32.000000
-31,-1,56,1624275804.0,32.000000
-31,0,56,1624275804.0,32.000000
-31,0,56,1624275804.0,32.000000
-30,0,56,1624275804.0,32.000000
-30,0,57,1624275804.0,32.000000
-31,0,56,1624275804.0,32.000000
-31,0,56,1624275804.0,32.000000
-31,0,56,1624275804.0,32.000000
-31,0,56,1624275804.0,32.000000
-30,0,56,1624275804.0,32.000000
-31,0,56,1624275804.0,32.000000
-31,0,56,1624275804.0,32.000000
-31,0,56,1624275804.0,32.000000
-30,0,56,1624275804.0,32.000000
-30,0,56,1624275804.0,32.000000
-31,0,56,1624275804.0,32.000000
-31,0,56,1624275804.0,32.000000
-31,0,56,1624275804.0,32.000000
-31,0,56,1624275804.0,32.000000
-31,0,56,1624275804.0,32.000000
-30,0,56,1624275804.0,32.000000
-31,0,56,1624275804.0,32.000000
-31,0,56,1624275804.0,32.000000
-31,0,56,1624275804.0,32.000000
-30,0,56,1624275804.0,32.000000
-31,0,56,1624275804.0,32.000000
-30,0,56,1624275804.0,32.000000
-30,0,56,1624275804.0,32.000000
-31,0,56,1624275804.0,32.000000
-31,0,56,1624275804.0,32.000000
-31,0,56,1624275804.0,32.000000
-31,0,56,1624275804.0,32.000000
-30,0,56,1624275804.0,32.000000
-30,0,56,1624275804.0,32.000000
-31,0,56,1624275804.0,32.000000
-31,0,56,1624275804.0,32.000000
-31,0,56,1624275804.0,32.000000
-31,0,56,1624275804.0,32.000000
-31,0,56,1624275804.0,32.000000
-30,0,56,1624275804.0,32.000000
-31,0,56,1624275804.0,32.000000
-31,0,56,1624275804.0,32.000000
-31,0,56,1624275804.0,32.000000
-31,0,56,1624275804.0,32.000000
-31,0,56,1624275804.0,32.000000
-31,0,56,1624275804.0,32.000000
-31,0,56,1624275804.0,32.000000
-31,0,56,1624275804.0,32.000000
-31,0,56,1624275804.0,32.000000
-30,0,56,1624275804.0,32.000000
-31,0,56,1624275804.0,32.000000
-31,0,56,1624275804.0,32.000000
-31,0,56,1624275804.0,32.000000
-31,0,56,1624275804.0,32.000000
-31,0,56,1624275804.0,32.000000
-31,0,56,1624275804.0,32.000000
-31,0,56,1624275804.0,32.000000
-31,0,56,1624275804.0,32.000000
-31,0,56,1624275804.0,32.000000
-31,0,56,1624275804.0,32.000000
-31,0,56,1624275804.0,32.000000
-31,0,56,1624275804.0,32.000000
-31,0,56,1624275804.0,32.000000
-31,0,56,1624275804.0,32.000000
-31,0,56,1624275804.0,32.000000
-31,0,56,1624275804.0,32.000000
-31,0,56,1624275804.0,32.000000
-31,0,55,1624275804.0,32.000000
-31,0,56,1624275804.0,32.000000
-31,0,56,1624275804.0,32.000000
-30,0,56,1624275804.0,32.000000
-30,0,56,1624275804.0,32.000000
-31,0,56,1624275804.0,32.000000
-31,0,56,1624275804.0,32.000000
-31,0,56,1624275804.0,32.000000
-31,0,56,1624275804.0,32.000000
-30,0,56,1624275804.0,32.000000
-30,0,56,1624275804.0,32.000000
-31,0,56,1624275804.0,32.000000
-31,0,56,1624275804.0,32.000000
-31,0,56,1624275804.0,32.000000
-31,0,56,1624275804.0,32.000000
-31,0,56,1624275804.0,32.000000
-31,0,56,1624275804.0,32.000000
-30,0,56,1624275804.0,32.000000
-31,0,56,1624275804.0,32.000000
-31,0,56,1624275804.0,32.000000
-31,0,56,1624275804.0,32.000000
-31,0,56,1624275804.0,32.000000
-30,0,56,1624275804.0,32.000000
-30,0,56,1624275804.0,32.000000
-31,0,56,1624275804.0,32.000000
-31,0,56,1624275804.0,32.000000
-31,0,56,1624275804.0,32.000000
-30,0,56,1624275804.0,32.000000
-30,0,56,1624275804.0,32.000000
-31,0,56,1624275804.0,32.000000
-30,0,56,1624275804.0,32.000000
-31,0,56,1624275804.0,32.000000
-30,0,56,1624275804.0,32.000000
-30,0,56,1624275804.0,32.000000
-30,0,56,1624275804.0,32.000000
-31,0,56,1624275804.0,32.000000
-31,0,56,1624275804.0,32.000000
-31,0,56,1624275804.0,32.000000
-31,0,56,1624275804.0,32.000000
-30,0,56,1624275804.0,32.000000
-31,0,57,1624275804.0,32.000000
-31,0,56,1624275804.0,32.000000
-31,0,56,1624275804.0,32.000000
-31,0,56,1624275804.0,32.000000
-30,0,56,1624275804.0,32.000000
-31,0,56,1624275804.0,32.000000
-31,0,56,1624275804.0,32.000000
-30,0,56,1624275804.0,32.000000
-31,0,56,1624275804.0,32.000000
-30,0,56,1624275804.0,32.000000
-30,0,56,1624275804.0,32.000000
-30,0,56,1624275804.0,32.000000
-30,0,56,1624275804.0,32.000000
-31,0,56,1624275804.0,32.000000
-31,0,56,1624275804.0,32.000000
-30,0,56,1624275804.0,32.000000
-31,0,56,1624275804.0,32.000000
-31,0,56,1624275804.0,32.000000
-31,0,56,1624275804.0,32.000000
-30,0,56,1624275804.0,32.000000
-30,0,56,1624275804.0,32.000000
-31,0,56,1624275804.0,32.000000
-31,0,56,1624275804.0,32.000000
-30,0,56,1624275804.0,32.000000
-31,0,56,1624275804.0,32.000000
-31,0,56,1624275804.0,32.000000
-31,0,56,1624275804.0,32.000000
-31,0,56,1624275804.0,32.000000
-31,0,56,1624275804.0,32.000000
-31,0,56,1624275804.0,32.000000
-31,0,56,1624275804.0,32.000000
-31,0,56,1624275804.0,32.000000
-31,0,56,1624275804.0,32.000000
-31,0,56,1624275804.0,32.000000
-31,0,56,1624275804.0,32.000000
-31,0,56,1624275804.0,32.000000
-31,0,56,1624275804.0,32.000000
-31,0,56,1624275804.0,32.000000
-31,0,56,1624275804.0,32.000000
-31,0,56,1624275804.0,32.000000
-31,0,56,1624275804.0,32.000000
-31,0,56,1624275804.0,32.000000
-31,0,56,1624275804.0,32.000000
-31,0,56,1624275804.0,32.000000
-31,0,56,1624275804.0,32.000000
-31,0,56,1624275804.0,32.000000
-31,0,56,1624275804.0,32.000000
-31,0,56,1624275804.0,32.000000
-31,0,56,1624275804.0,32.000000
-31,0,56,1624275804.0,32.000000
-31,0,56,1624275804.0,32.000000
-31,0,56,1624275804.0,32.000000
-31,0,56,1624275804.0,32.000000
-31,0,56,1624275804.0,32.000000
-31,0,56,1624275804.0,32.000000
-31,0,56,1624275804.0,32.000000
-31,0,56,1624275804.0,32.000000
-31,0,56,1624275804.0,32.000000
-31,0,56,1624275804.0,32.000000
-31,0,56,1624275804.0,32.000000
-31,0,56,1624275804.0,32.000000
-31,0,56,1624275804.0,32.000000
-31,0,56,1624275804.0,32.000000
-31,0,56,1624275804.0,32.000000
-31,0,56,1624275804.0,32.000000
-31,0,56,1624275804.0,32.000000
-31,0,56,1624275804.0,32.000000
-31,0,56,1624275804.0,32.000000
-31,0,56,1624275804.0,32.000000
-31,0,56,1624275804.0,32.000000
-31,0,56,1624275804.0,32.000000
-31,0,56,1624275804.0,32.000000
-31,0,56,1624275804.0,32.000000
-31,0,56,1624275804.0,32.000000
-31,0,56,1624275804.0,32.000000
-30,0,56,1624275804.0,32.000000
-31,0,56,1624275804.0,32.000000
-31,0,56,1624275804.0,32.000000
-31,0,56,1624275804.0,32.000000
-31,0,56,1624275804.0,32.000000
-31,0,56,1624275804.0,32.000000
-31,0,56,1624275804.0,32.000000
-31,0,56,1624275804.0,32.000000
-31,0,56,1624275804.0,32.000000
-31,0,56,1624275804.0,32.000000
-31,0,57,1624275804.0,32.000000
-31,0,55,1624275804.0,32.000000
-31,0,56,1624275804.0,32.000000
-30,0,56,1624275804.0,32.000000
-30,0,56,1624275804.0,32.000000
-31,0,56,1624275804.0,32.000000
-31,0,56,1624275804.0,32.000000
-31,0,56,1624275804.0,32.000000
-31,0,56,1624275804.0,32.000000
-30,0,56,1624275804.0,32.000000
-30,0,56,1624275804.0,32.000000
-31,0,56,1624275804.0,32.000000
-31,0,56,1624275804.0,32.000000
-30,0,56,1624275804.0,32.000000
-31,0,56,1624275804.0,32.000000
-31,0,56,1624275804.0,32.000000
-31,0,56,1624275804.0,32.000000
-31,0,56,1624275804.0,32.000000
-31,0,56,1624275804.0,32.000000
-31,0,56,1624275804.0,32.000000
-30,0,56,1624275804.0,32.000000
-30,0,56,1624275804.0,32.000000
-31,0,56,1624275804.0,32.000000
-31,0,56,1624275804.0,32.000000
-30,0,56,1624275804.0,32.000000
-31,0,56,1624275804.0,32.000000
-31,0,56,1624275804.0,32.000000
-30,0,56,1624275804.0,32.000000
-31,0,56,1624275804.0,32.000000
-30,0,56,1624275804.0,32.000000
-31,0,56,1624275804.0,32.000000
-31,0,56,1624275804.0,32.000000
-31,0,56,1624275804.0,32.000000
-30,0,56,1624275804.0,32.000000
-30,0,56,1624275804.0,32.000000
-31,0,56,1624275804.0,32.000000
-31,0,56,1624275804.0,32.000000
-31,0,56,1624275804.0,32.000000
-31,0,56,1624275804.0,32.000000
-31,0,56,1624275804.0,32.000000
-30,0,56,1624275804.0,32.000000
-30,0,56,1624275804.0,32.000000
-31,0,56,1624275804.0,32.000000
-31,0,56,1624275804.0,32.000000
-31,0,56,1624275804.0,32.000000
-31,0,56,1624275804.0,32.000000
-31,0,56,1624275804.0,32.000000
-31,0,56,1624275804.0,32.000000
-30,0,56,1624275804.0,32.000000
-31,0,56,1624275804.0,32.000000
-31,0,56,1624275804.0,32.000000
-31,0,56,1624275804.0,32.000000
-30,0,56,1624275804.0,32.000000
-30,0,56,1624275804.0,32.000000
-31,0,56,1624275804.0,32.000000
-31,0,56,1624275804.0,32.000000
-31,1,56,1624275804.0,32.000000
-31,0,56,1624275804.0,32.000000
-30,0,56,1624275804.0,32.000000
-31,0,56,1624275804.0,32.000000
-31,0,56,1624275804.0,32.000000
-31,0,56,1624275804.0,32.000000
-30,0,56,1624275804.0,32.000000
-31,0,56,1624275804.0,32.000000
-31,0,56,1624275804.0,32.000000
-31,0,56,1624275804.0,32.000000
-31,0,56,1624275804.0,32.000000
-31,0,56,1624275804.0,32.000000
-30,0,56,1624275804.0,32.000000
-30,0,56,1624275804.0,32.000000
-31,0,56,1624275804.0,32.000000
-31,0,56,1624275804.0,32.000000
-31,0,56,1624275804.0,32.000000
-31,0,56,1624275804.0,32.000000
-30,0,56,1624275804.0,32.000000
-31,0,56,1624275804.0,32.000000
-31,0,56,1624275804.0,32.000000
-31,0,56,1624275804.0,32.000000
-31,0,56,1624275804.0,32.000000
-31,0,56,1624275804.0,32.000000
-30,0,56,1624275804.0,32.000000
-31,0,56,1624275804.0,32.000000
-31,0,56,1624275804.0,32.000000
-31,0,56,1624275804.0,32.000000
-31,0,56,1624275804.0,32.000000
-31,0,56,1624275804.0,32.000000
-30,0,56,1624275804.0,32.000000
-31,0,56,1624275804.0,32.000000
-31,0,56,1624275804.0,32.000000
-31,0,56,1624275804.0,32.000000
-31,0,56,1624275804.0,32.000000
-30,0,56,1624275804.0,32.000000
-31,0,56,1624275804.0,32.000000
-31,0,56,1624275804.0,32.000000
-30,0,56,1624275804.0,32.000000
-30,0,56,1624275804.0,32.000000
-31,0,56,1624275804.0,32.000000
-31,0,56,1624275804.0,32.000000
-30,0,56,1624275804.0,32.000000
-31,0,56,1624275804.0,32.000000
-30,0,56,1624275804.0,32.000000
-31,0,56,1624275804.0,32.000000
-31,0,56,1624275804.0,32.000000
-31,0,56,1624275804.0,32.000000
-31,0,56,1624275804.0,32.000000
-30,0,56,1624275804.0,32.000000
-30,0,56,1624275804.0,32.000000
-31,0,56,1624275804.0,32.000000
-31,0,56,1624275804.0,32.000000
-31,0,56,1624275804.0,32.000000
-31,0,56,1624275804.0,32.000000
-30,0,56,1624275804.0,32.000000
-30,0,56,1624275804.0,32.000000
-30,0,56,1624275804.0,32.000000
-31,0,56,1624275804.0,32.000000
-31,0,56,1624275804.0,32.000000
-31,0,56,1624275804.0,32.000000
-31,0,56,1624275804.0,32.000000
-30,0,56,1624275804.0,32.000000
-31,0,56,1624275804.0,32.000000
-31,0,56,1624275804.0,32.000000
-31,0,56,1624275804.0,32.000000
-31,0,56,1624275804.0,32.000000
-31,0,56,1624275804.0,32.000000
-31,0,56,1624275804.0,32.000000
-30,0,56,1624275804.0,32.000000
-30,0,56,1624275804.0,32.000000
-31,0,56,1624275804.0,32.000000
-31,0,56,1624275804.0,32.000000
-31,0,56,1624275804.0,32.000000
-30,0,56,1624275804.0,32.000000
-30,0,56,1624275804.0,32.000000
-31,0,56,1624275804.0,32.000000
-30,0,56,1624275804.0,32.000000
-30,0,56,1624275804.0,32.000000
-31,0,56,1624275804.0,32.000000
-31,0,56,1624275804.0,32.000000
-31,0,56,1624275804.0,32.000000
-31,0,56,1624275804.0,32.000000
-31,0,56,1624275804.0,32.000000
-31,0,56,1624275804.0,32.000000
-30,0,56,1624275804.0,32.000000
-30,0,56,1624275804.0,32.000000
-31,0,56,1624275804.0,32.000000
-31,0,56,1624275804.0,32.000000
-31,0,56,1624275804.0,32.000000
-31,0,56,1624275804.0,32.000000
-31,0,56,1624275804.0,32.000000
-31,0,56,1624275804.0,32.000000
-31,0,56,1624275804.0,32.000000
-31,0,56,1624275804.0,32.000000
-31,0,56,1624275804.0,32.000000
-31,0,56,1624275804.0,32.000000
-31,0,56,1624275804.0,32.000000
-31,0,56,1624275804.0,32.000000
-31,0,56,1624275804.0,32.000000
-31,0,56,1624275804.0,32.000000
-30,0,56,1624275804.0,32.000000
-31,0,56,1624275804.0,32.000000
-31,0,56,1624275804.0,32.000000
-31,0,56,1624275804.0,32.000000
-30,-1,56,1624275804.0,32.000000
-30,0,56,1624275804.0,32.000000
-31,0,56,1624275804.0,32.000000
-33,0,55,1624275804.0,32.000000
-31,0,56,1624275804.0,32.000000
-30,0,56,1624275804.0,32.000000
-30,1,55,1624275804.0,32.000000
-31,0,56,1624275804.0,32.000000
-33,0,56,1624275804.0,32.000000
-33,-1,56,1624275804.0,32.000000
-34,-1,55,1624275804.0,32.000000
-32,1,61,1624275804.0,32.000000
-46,6,59,1624275804.0,32.000000
-40,4,61,1624275804.0,32.000000
-38,-1,63,1624275804.0,32.000000
-44,-5,58,1624275804.0,32.000000
-48,-5,58,1624275804.0,32.000000
-45,-13,56,1624275804.0,32.000000
-45,-14,52,1624275804.0,32.000000
-35,-22,51,1624275804.0,32.000000
-33,-20,53,1624275804.0,32.000000
-38,-25,50,1624275804.0,32.000000
-40,-29,47,1624275804.0,32.000000
-44,-32,39,1624275804.0,32.000000
-54,-36,33,1624275804.0,32.000000
-48,-34,34,1624275804.0,32.000000
-39,-37,33,1624275804.0,32.000000
-28,-37,31,1624275804.0,32.000000
-27,-38,29,1624275804.0,32.000000
-16,-35,35,1624275804.0,32.000000
-10,-45,31,1624275804.0,32.000000
0,-36,30,1624275804.0,32.000000
-2,-42,30,1624275804.0,32.000000
-2,-37,41,1624275804.0,32.000000
-6,-36,40,1624275804.0,32.000000
-22,-47,33,1624275804.0,32.000000
-28,-50,29,1624275804.0,32.000000
-29,-54,28,1624275804.0,32.000000
-24,-55,26,1624275804.0,32.000000
-19,-53,23,1624275804.0,32.000000
-17,-57,30,1624275804.0,32.000000
-16,-56,36,1624275804.0,32.000000
-24,-46,29,1624275804.0,32.000000
-30,-49,23,1624275804.0,32.000000
-31,-56,24,1624275804.0,32.000000
-29,-53,27,1624275804.0,32.000000
-27,-54,26,1624275804.0,32.000000
-22,-51,27,1624275804.0,32.000000
-21,-51,34,1624275804.0,32.000000
-19,-52,35,1624275804.0,32.000000
-23,-51,29,1624275804.0,32.000000
-18,-51,29,1624275804.0,32.000000
-15,-50,32,1624275804.0,32.000000
-16,-52,32,1624275804.0,32.000000
-16,-53,28,1624275804.0,32.000000
-21,-54,27,1624275804.0,32.000000
-21,-54,33,1624275804.0,32.000000
-8,-51,43,1624275804.0,32.000000
-27,-48,27,1624275804.0,32.000000
-31,-48,24,1624275804.0,32.000000
-24,-51,27,1624275804.0,32.000000
-23,-51,28,1624275804.0,32.000000
-26,-52,25,1624275804.0,32.000000
-23,-51,25,1624275804.0,32.000000
-22,-49,27,1624275804.0,32.000000
-14,-49,29,1624275804.0,32.000000
-9,-43,29,1624275804.0,32.000000
-15,-37,27,1624275804.0,32.000000
-21,-33,26,1624275804.0,32.000000
-29,-17,32,1624275804.0,32.000000
-32,-15,33,1624275804.0,32.000000
-29,-20,32,1624275804.0,32.000000
-29,-9,45,1624275804.0,32.000000
0,-20,79,1624275804.0,32.000000
0,-19,75,1624275804.0,32.000000
-25,-4,75,1624275804.0,32.000000
-25,-10,76,1624275804.0,32.000000
-12,-13,75,1624275804.0,32.000000
-10,-14,71,1624275804.0,32.000000
-23,-13,74,1624275804.0,32.000000
-30,-6,70,1624275804.0,32.000000
-22,-4,64,1624275804.0,32.000000
-20,-2,60,1624275804.0,32.000000
-7,-5,68,1624275804.0,32.000000
-11,-5,66,1624275804.0,32.000000
-5,-4,66,1624275804.0,32.000000
-6,-2,65,1624275804.0,32.000000
-10,4,62,1624275804.0,32.000000
-10,5,63,1624275804.0,32.000000
-14,3,57,1624275804.0,32.000000
-13,1,56,1624275804.0,32.000000
-20,0,59,1624275804.0,32.000000
-24,1,60,1624275804.0,32.000000
-28,1,61,1624275804.0,32.000000
-25,5,67,1624275804.0,32.000000
-26,8,64,1624275804.0,32.000000
-24,4,61,1624275804.0,32.000000
-23,4,59,1624275804.0,32.000000
-21,4,61,1624275804.0,32.000000
-20,3,60,1624275804.0,32.000000
-21,4,58,1624275804.0,32.000000
-23,4,57,1624275804.0,32.000000
-29,3,56,1624275804.0,32.000000
-30,3,57,1624275804.0,32.000000
-30,2,57,1624275804.0,32.000000
-29,2,56,1624275804.0,32.000000
-28,3,57,1624275804.0,32.000000
-28,3,57,1624275804.0,32.000000
-28,3,58,1624275804.0,32.000000
-28,3,57,1624275804.0,32.000000
-28,4,57,1624275804.0,32.000000
-29,4,58,1624275804.0,32.000000
-27,4,60,1624275804.0,32.000000
-28,4,59,1624275804.0,32.000000
-27,1,53,1624275804.0,32.000000
-28,-1,53,1624275804.0,32.000000
-30,1,57,1624275804.0,32.000000
-31,3,57,1624275804.0,32.000000
-32,2,57,1624275804.0,32.000000
-30,2,58,1624275804.0,32.000000
-30,2,58,1624275804.0,32.000000
-28,2,55,1624275804.0,32.000000
-28,2,55,1624275804.0,32.000000
-30,3,57,1624275804.0,32.000000
-31,3,57,1624275804.0,32.000000
-31,1,57,1624275804.0,32.000000
-30,1,56,1624275804.0,32.000000
-29,2,56,1624275804.0,32.000000
-29,2,56,1624275804.0,32.000000
-30,2,56,1624275804.0,32.000000
-30,2,56,1624275804.0,32.000000
-30,2,57,1624275804.0,32.000000
-30,2,57,1624275804.0,32.000000
-30,2,57,1624275804.0,32.000000
-29,2,57,1624275804.0,32.000000
-29,2,56,1624275804.0,32.000000
-29,2,57,1624275804.0,32.000000
-30,2,57,1624275804.0,32.000000
-29,2,56,1624275804.0,32.000000
-29,2,57,1624275804.0,32.000000
-29,2,57,1624275804.0,32.000000
-29,2,57,1624275804.0,32.000000
-29,2,56,1624275804.0,32.000000
-29,1,56,1624275804.0,32.000000
-29,2,56,1624275804.0,32.000000
-30,1,56,1624275804.0,32.000000
-30,2,57,1624275804.0,32.000000
-30,1,57,1624275804.0,32.000000
-30,2,56,1624275804.0,32.000000
-29,2,57,1624275804.0,32.000000
-30,2,57,1624275804.0,32.000000
-30,2,57,1624275804.0,32.000000
-30,2,57,1624275804.0,32.000000
-30,2,56,1624275804.0,32.000000
-30,2,56,1624275804.0,32.000000
-30,2,56,1624275804.0,32.000000
-30,2,56,1624275804.0,32.000000
-30,2,56,1624275804.0,32.000000
-30,2,56,1624275804.0,32.000000
-30,2,56,1624275804.0,32.000000
-30,2,56,1624275804.0,32.000000
-30,2,56,1624275804.0,32.000000
-30,2,56,1624275804.0,32.000000
-30,2,56,1624275804.0,32.000000
-30,2,56,1624275804.0,32.000000
-30,2,56,1624275804.0,32.000000
-30,2,57,1624275804.0,32.000000
-30,2,57,1624275804.0,32.000000
-30,2,56,1624275804.0,32.000000
-30,2,56,1624275804.0,32.000000
-29,2,56,1624275804.0,32.000000
-30,2,56,1624275804.0,32.000000
-30,2,56,1624275804.0,32.000000
-30,1,57,1624275804.0,32.000000
-30,2,56,1624275804.0,32.000000
-30,2,57,1624275804.0,32.000000
-30,2,56,1624275804.0,32.000000
-30,2,56,1624275804.0,32.000000
-30,2,56,1624275804.0,32.000000
-30,2,56,1624275804.0,32.000000
-30,2,56,1624275804.0,32.000000
-30,2,56,1624275804.0,32.000000
-30,2,56,1624275804.0,32.000000
-30,2,56,1624275804.0,32.000000
-30,2,56,1624275804.0,32.000000
-30,2,56,1624275804.0,32.000000
-30,2,57,1624275804.0,32.000000
-29,2,56,1624275804.0,32.000000
-30,2,56,1624275804.0,32.000000
-30,2,56,1624275804.0,32.000000
-31,1,56,1624275804.0,32.000000
-30,2,56,1624275804.0,32.000000
-29,2,56,1624275804.0,32.000000
-30,2,56,1624275804.0,32.000000
-30,2,56,1624275804.0,32.000000
-30,2,56,1624275804.0,32.000000
-30,1,57,1624275804.0,32.000000
-30,2,56,1624275804.0,32.000000
-30,2,56,1624275804.0,32.000000
-30,2,56,1624275804.0,32.000000
-30,2,56,1624275804.0,32.000000
-30,2,57,1624275804.0,32.000000
-30,2,56,1624275804.0,32.000000
-30,2,56,1624275804.0,32.000000
-30,2,56,1624275804.0,32.000000
-30,2,56,1624275804.0,32.000000
-30,2,57,1624275804.0,32.000000
-30,1,56,1624275804.0,32.000000
-29,2,56,1624275804.0,32.000000
-29,3,57,1624275804.0,32.000000
-32,7,61,1624275804.0,32.000000
-38,8,61,1624275804.0,32.000000
-57,12,77,1624275804.0,32.000000
-60,10,81,1624275804.0,32.000000
-64,-2,69,1624275804.0,32.000000
-66,-3,65,1624275804.0,32.000000
-42,-17,59,1624275804.0,32.000000
-33,-17,56,1624275804.0,32.000000
-36,-27,46,1624275804.0,32.000000
-26,-25,42,1624275804.0,32.000000
-7,-33,30,1624275804.0,32.000000
0,-35,26,1624275804.0,32.000000
10,-32,25,1624275804.0,32.000000
13,-35,21,1624275804.0,32.000000
17,-36,20,1624275804.0,32.000000
22,-34,21,1624275804.0,32.000000
24,-34,19,1624275804.0,32.000000
24,-37,21,1624275804.0,32.000000
17,-37,28,1624275804.0,32.000000
12,-34,38,1624275804.0,32.000000
11,-35,44,1624275804.0,32.000000
-6,-30,42,1624275804.0,32.000000
-11,-30,42,1624275804.0,32.000000
-17,-24,49,1624275804.0,32.000000
-21,-19,50,1624275804.0,32.000000
-35,-17,66,1624275804.0,32.000000
-42,-5,77,1624275804.0,32.000000
-16,-9,63,1624275804.0,32.000000
-8,-5,63,1624275804.0,32.000000
-18,2,77,1624275804.0,32.000000
-18,-1,77,1624275804.0,32.000000
-16,-3,67,1624275804.0,32.000000
-23,1,68,1624275804.0,32.000000
-16,1,72,1624275804.0,32.000000
-12,0,76,1624275804.0,32.000000
-8,-2,66,1624275804.0,32.000000
-5,-3,58,1624275804.0,32.000000
-12,3,63,1624275804.0,32.000000
-14,5,68,1624275804.0,32.000000
-9,6,67,1624275804.0,32.000000
-8,6,68,1624275804.0,32.000000
-16,3,63,1624275804.0,32.000000
-13,3,63,1624275804.0,32.000000
-12,4,62,1624275804.0,32.000000
-17,5,62,1624275804.0,32.000000
-18,4,61,1624275804.0,32.000000
-17,5,62,1624275804.0,32.000000
-17,4,62,1624275804.0,32.000000
-20,3,59,1624275804.0,32.000000
-22,3,59,1624275804.0,32.000000
-20,5,61,1624275804.0,32.000000
-20,5,61,1624275804.0,32.000000
-21,5,62,1624275804.0,32.000000
-22,4,61,1624275804.0,32.000000
-21,3,61,1624275804.0,32.000000
-22,3,60,1624275804.0,32.000000
-26,2,55,1624275804.0,32.000000
-28,3,54,1624275804.0,32.000000
-28,4,56,1624275804.0,32.000000
-29,5,58,1624275804.0,32.000000
-27,4,60,1624275804.0,32.000000
-27,3,60,1624275804.0,32.000000
-26,2,59,1624275804.0,32.000000
-26,2,57,1624275804.0,32.000000
-27,3,56,1624275804.0,32.000000
-28,4,56,1624275804.0,32.000000
-30,4,55,1624275804.0,32.000000
-30,3,58,1624275804.0,32.000000
-30,3,58,1624275804.0,32.000000
-28,3,58,1624275804.0,32.000000
-28,3,58,1624275804.0,32.000000
-28,3,57,1624275804.0,32.000000
-28,3,56,1624275804.0,32.000000
-28,3,56,1624275804.0,32.000000
