ACC_X,ACC_Y,ACC_Z,start_time_unix,sampling_rate
-24,7,59,1624275807.0,32.000000
-25,6,60,1624275807.0,32.000000
-25,6,60,1624275807.0,32.000000
-25,6,59,1624275807.0,32.000000
-23,7,59,1624275807.0,32.000000
-23,7,60,1624275807.0,32.000000
-23,6,60,1624275807.0,32.000000
-23,6,60,1624275807.0,32.000000
-22,6,60,1624275807.0,32.000000
-22,6,60,1624275807.0,32.000000
-22,6,60,1624275807.0,32.000000
-24,6,60,1624275807.0,32.000000
-23,6,61,1624275807.0,32.000000
-22,7,60,1624275807.0,32.000000
-23,8,60,1624275807.0,32.000000
-24,8,60,1624275807.0,32.000000
-22,7,60,1624275807.0,32.000000
-22,7,60,1624275807.0,32.000000
-21,8,61,1624275807.0,32.000000
-22,9,59,1624275807.0,32.000000
-24,9,58,1624275807.0,32.000000
-25,8,57,1624275807.0,32.000000
-27,6,59,1624275807.0,32.000000
-26,6,58,1624275807.0,32.000000
-24,6,60,1624275807.0,32.000000
-24,7,60,1624275807.0,32.000000
-23,7,60,1624275807.0,32.000000
-24,8,60,1624275807.0,32.000000
-24,8,59,1624275807.0,32.000000
-23,7,59,1624275807.0,32.000000
-23,7,60,1624275807.0,32.000000
-23,7,59,1624275807.0,32.000000
-23,7,60,1624275807.0,32.000000
-23,7,60,1624275807.0,32.000000
-23,7,59,1624275807.0,32.000000
-22,6,60,1624275807.0,32.000000
-22,6,60,1624275807.0,32.000000
-22,6,61,1624275807.0,32.000000
-23,6,60,1624275807.0,32.000000
-22,7,60,1624275807.0,32.000000
-22,7,60,1624275807.0,32.000000
-22,7,60,1624275807.0,32.000000
-22,7,61,1624275807.0,32.000000
-22,7,60,1624275807.0,32.000000
-22,6,60,1624275807.0,32.000000
-22,6,61,1624275807.0,32.000000
-22,6,60,1624275807.0,32.000000
-22,6,60,1624275807.0,32.000000
-21,7,60,1624275807.0,32.000000
-21,7,60,1624275807.0,32.000000
-21,7,60,1624275807.0,32.000000
-22,8,60,1624275807.0,32.000000
-22,7,60,1624275807.0,32.000000
-21,6,60,1624275807.0,32.000000
-21,6,61,1624275807.0,32.000000
-23,6,60,1624275807.0,32.000000
-22,7,60,1624275807.0,32.000000
-22,7,61,1624275807.0,32.000000
-22,6,60,1624275807.0,32.000000
-23,7,60,1624275807.0,32.000000
-22,6,60,1624275807.0,32.000000
-22,6,60,1624275807.0,32.000000
-22,7,61,1624275807.0,32.000000
-23,7,60,1624275807.0,32.000000
-21,7,60,1624275807.0,32.000000
-22,7,60,1624275807.0,32.000000
-23,7,60,1624275807.0,32.000000
-22,7,60,1624275807.0,32.000000
-22,7,60,1624275807.0,32.000000
-23,6,60,1624275807.0,32.000000
-23,7,60,1624275807.0,32.000000
-23,6,60,1624275807.0,32.000000
-22,6,60,1624275807.0,32.000000
-22,7,60,1624275807.0,32.000000
-23,7,59,1624275807.0,32.000000
-23,7,60,1624275807.0,32.000000
-22,7,60,1624275807.0,32.000000
-23,6,63,1624275807.0,32.000000
-25,5,64,1624275807.0,32.000000
-23,7,59,1624275807.0,32.000000
-19,8,57,1624275807.0,32.000000
-20,7,59,1624275807.0,32.000000
-21,7,58,1624275807.0,32.000000
-22,6,56,1624275807.0,32.000000
-23,7,59,1624275807.0,32.000000
-23,7,63,1624275807.0,32.000000
-23,7,61,1624275807.0,32.000000
-25,7,60,1624275807.0,32.000000
-26,7,60,1624275807.0,32.000000
-24,7,61,1624275807.0,32.000000
-22,7,60,1624275807.0,32.000000
-22,6,60,1624275807.0,32.000000
-23,6,60,1624275807.0,32.000000
-23,6,60,1624275807.0,32.000000
-24,7,59,1624275807.0,32.000000
-24,7,60,1624275807.0,32.000000
-24,7,60,1624275807.0,32.000000
-23,7,59,1624275807.0,32.000000
-23,7,60,1624275807.0,32.000000
-22,7,60,1624275807.0,32.000000
-23,6,60,1624275807.0,32.000000
-24,6,60,1624275807.0,32.000000
-22,6,60,1624275807.0,32.000000
-22,6,60,1624275807.0,32.000000
-24,6,60,1624275807.0,32.000000
-23,7,59,1624275807.0,32.000000
-23,7,60,1624275807.0,32.000000
-23,6,60,1624275807.0,32.000000
-24,6,59,1624275807.0,32.000000
-22,7,60,1624275807.0,32.000000
-23,6,60,1624275807.0,32.000000
-23,6,60,1624275807.0,32.000000
-23,6,60,1624275807.0,32.000000
-22,7,60,1624275807.0,32.000000
-23,7,60,1624275807.0,32.000000
-23,7,60,1624275807.0,32.000000
-23,7,59,1624275807.0,32.000000
-23,6,60,1624275807.0,32.000000
-23,6,60,1624275807.0,32.000000
-24,6,60,1624275807.0,32.000000
-22,7,60,1624275807.0,32.000000
-23,6,60,1624275807.0,32.000000
-23,6,60,1624275807.0,32.000000
-23,7,60,1624275807.0,32.000000
-23,7,60,1624275807.0,32.000000
-23,6,60,1624275807.0,32.000000
-23,6,60,1624275807.0,32.000000
-24,6,60,1624275807.0,32.000000
-23,7,59,1624275807.0,32.000000
-22,7,59,1624275807.0,32.000000
-22,7,61,1624275807.0,32.000000
-22,6,60,1624275807.0,32.000000
-24,6,60,1624275807.0,32.000000
-23,7,60,1624275807.0,32.000000
-23,6,59,1624275807.0,32.000000
-23,7,60,1624275807.0,32.000000
-22,7,59,1624275807.0,32.000000
-22,6,61,1624275807.0,32.000000
-23,6,59,1624275807.0,32.000000
-23,6,60,1624275807.0,32.000000
-22,7,59,1624275807.0,32.000000
-22,7,60,1624275807.0,32.000000
-30,5,69,1624275807.0,32.000000
-22,8,60,1624275807.0,32.000000
-14,8,56,1624275807.0,32.000000
-16,6,57,1624275807.0,32.000000
-15,5,59,1624275807.0,32.000000
-22,8,56,1624275807.0,32.000000
-22,7,63,1624275807.0,32.000000
-20,8,63,1624275807.0,32.000000
-25,8,60,1624275807.0,32.000000
-26,8,59,1624275807.0,32.000000
-26,8,59,1624275807.0,32.000000
-23,7,61,1624275807.0,32.000000
-22,7,61,1624275807.0,32.000000
-22,7,60,1624275807.0,32.000000
-22,6,60,1624275807.0,32.000000
-23,7,60,1624275807.0,32.000000
-23,7,60,1624275807.0,32.000000
-23,7,60,1624275807.0,32.000000
-22,7,60,1624275807.0,32.000000
-22,7,60,1624275807.0,32.000000
-22,7,60,1624275807.0,32.000000
-22,7,60,1624275807.0,32.000000
-24,7,59,1624275807.0,32.000000
-23,7,60,1624275807.0,32.000000
-23,7,60,1624275807.0,32.000000
-24,7,60,1624275807.0,32.000000
-22,7,60,1624275807.0,32.000000
-23,7,59,1624275807.0,32.000000
-23,7,60,1624275807.0,32.000000
-23,7,60,1624275807.0,32.000000
-23,7,60,1624275807.0,32.000000
-23,7,60,1624275807.0,32.000000
-23,7,60,1624275807.0,32.000000
-23,7,60,1624275807.0,32.000000
-23,7,60,1624275807.0,32.000000
-23,7,60,1624275807.0,32.000000
-23,7,60,1624275807.0,32.000000
-23,7,60,1624275807.0,32.000000
-23,7,60,1624275807.0,32.000000
-23,7,60,1624275807.0,32.000000
-23,7,60,1624275807.0,32.000000
-23,7,60,1624275807.0,32.000000
-23,7,60,1624275807.0,32.000000
-24,7,61,1624275807.0,32.000000
-24,7,62,1624275807.0,32.000000
-22,8,58,1624275807.0,32.000000
-24,6,58,1624275807.0,32.000000
-22,7,58,1624275807.0,32.000000
-21,7,62,1624275807.0,32.000000
-20,7,58,1624275807.0,32.000000
-22,7,58,1624275807.0,32.000000
-24,7,59,1624275807.0,32.000000
-22,8,62,1624275807.0,32.000000
-22,7,62,1624275807.0,32.000000
-24,6,60,1624275807.0,32.000000
-25,6,59,1624275807.0,32.000000
-23,6,59,1624275807.0,32.000000
-23,7,59,1624275807.0,32.000000
-24,7,59,1624275807.0,32.000000
-22,7,60,1624275807.0,32.000000
-23,7,60,1624275807.0,32.000000
-23,7,60,1624275807.0,32.000000
-24,7,60,1624275807.0,32.000000
-23,7,60,1624275807.0,32.000000
-23,7,60,1624275807.0,32.000000
-23,7,59,1624275807.0,32.000000
-23,7,59,1624275807.0,32.000000
-23,7,60,1624275807.0,32.000000
-23,7,60,1624275807.0,32.000000
-24,7,60,1624275807.0,32.000000
-23,7,60,1624275807.0,32.000000
-24,7,59,1624275807.0,32.000000
-23,8,60,1624275807.0,32.000000
-23,7,60,1624275807.0,32.000000
-24,7,59,1624275807.0,32.000000
-24,7,59,1624275807.0,32.000000
-24,6,60,1624275807.0,32.000000
-23,7,60,1624275807.0,32.000000
-23,7,60,1624275807.0,32.000000
-23,7,60,1624275807.0,32.000000
-23,7,60,1624275807.0,32.000000
-23,7,60,1624275807.0,32.000000
-23,7,59,1624275807.0,32.000000
-23,7,60,1624275807.0,32.000000
-24,7,60,1624275807.0,32.000000
-24,7,60,1624275807.0,32.000000
-23,6,59,1624275807.0,32.000000
-23,7,59,1624275807.0,32.000000
-23,7,59,1624275807.0,32.000000
-23,7,60,1624275807.0,32.000000
-24,7,59,1624275807.0,32.000000
-23,7,59,1624275807.0,32.000000
-24,7,60,1624275807.0,32.000000
-23,7,60,1624275807.0,32.000000
-24,7,60,1624275807.0,32.000000
-23,7,60,1624275807.0,32.000000
-24,7,60,1624275807.0,32.000000
-24,7,59,1624275807.0,32.000000
-23,7,60,1624275807.0,32.000000
-23,7,60,1624275807.0,32.000000
-24,7,60,1624275807.0,32.000000
-23,7,60,1624275807.0,32.000000
-24,6,61,1624275807.0,32.000000
-22,7,59,1624275807.0,32.000000
-23,6,60,1624275807.0,32.000000
-23,7,59,1624275807.0,32.000000
-23,7,58,1624275807.0,32.000000
-22,7,61,1624275807.0,32.000000
-22,6,61,1624275807.0,32.000000
-23,7,59,1624275807.0,32.000000
-26,7,59,1624275807.0,32.000000
-23,7,60,1624275807.0,32.000000
-23,7,61,1624275807.0,32.000000
-23,6,61,1624275807.0,32.000000
-23,6,60,1624275807.0,32.000000
-23,6,60,1624275807.0,32.000000
-22,7,60,1624275807.0,32.000000
-23,7,60,1624275807.0,32.000000
-24,7,60,1624275807.0,32.000000
-23,7,59,1624275807.0,32.000000
-23,6,59,1624275807.0,32.000000
-23,7,60,1624275807.0,32.000000
-23,7,60,1624275807.0,32.000000
-23,7,60,1624275807.0,32.000000
-23,7,60,1624275807.0,32.000000
-23,7,60,1624275807.0,32.000000
-23,7,59,1624275807.0,32.000000
-23,6,60,1624275807.0,32.000000
-23,7,60,1624275807.0,32.000000
-23,7,60,1624275807.0,32.000000
-23,7,60,1624275807.0,32.000000
-23,7,60,1624275807.0,32.000000
-23,7,60,1624275807.0,32.000000
-23,7,60,1624275807.0,32.000000
-23,7,60,1624275807.0,32.000000
-23,7,60,1624275807.0,32.000000
-24,7,59,1624275807.0,32.000000
-23,7,60,1624275807.0,32.000000
-23,6,60,1624275807.0,32.000000
-23,7,60,1624275807.0,32.000000
-24,7,59,1624275807.0,32.000000
-23,7,59,1624275807.0,32.000000
-23,7,60,1624275807.0,32.000000
-23,7,60,1624275807.0,32.000000
-23,7,60,1624275807.0,32.000000
-23,7,60,1624275807.0,32.000000
-23,7,60,1624275807.0,32.000000
-24,7,59,1624275807.0,32.000000
-23,6,60,1624275807.0,32.000000
-23,7,60,1624275807.0,32.000000
-24,7,60,1624275807.0,32.000000
-23,7,60,1624275807.0,32.000000
-23,7,59,1624275807.0,32.000000
-23,7,60,1624275807.0,32.000000
-23,7,60,1624275807.0,32.000000
-23,7,60,1624275807.0,32.000000
-23,7,60,1624275807.0,32.000000
-23,7,60,1624275807.0,32.000000
-24,7,60,1624275807.0,32.000000
-23,7,61,1624275807.0,32.000000
-23,7,60,1624275807.0,32.000000
-23,7,59,1624275807.0,32.000000
-23,7,60,1624275807.0,32.000000
-23,7,59,1624275807.0,32.000000
-24,6,61,1624275807.0,32.000000
-24,7,59,1624275807.0,32.000000
-23,7,58,1624275807.0,32.000000
-24,7,61,1624275807.0,32.000000
-30,5,64,1624275807.0,32.000000
-21,7,61,1624275807.0,32.000000
-23,7,61,1624275807.0,32.000000
-26,7,51,1624275807.0,32.000000
-28,6,53,1624275807.0,32.000000
-28,6,56,1624275807.0,32.000000
-23,8,55,1624275807.0,32.000000
-25,6,64,1624275807.0,32.000000
-26,6,65,1624275807.0,32.000000
-23,8,59,1624275807.0,32.000000
-25,6,60,1624275807.0,32.000000
-24,6,61,1624275807.0,32.000000
-24,7,59,1624275807.0,32.000000
-24,6,60,1624275807.0,32.000000
-22,7,60,1624275807.0,32.000000
-23,7,60,1624275807.0,32.000000
-23,7,60,1624275807.0,32.000000
-24,7,60,1624275807.0,32.000000
-23,7,60,1624275807.0,32.000000
-24,7,60,1624275807.0,32.000000
-23,7,60,1624275807.0,32.000000
-24,7,60,1624275807.0,32.000000
-23,7,60,1624275807.0,32.000000
-23,7,59,1624275807.0,32.000000
-24,7,60,1624275807.0,32.000000
-23,7,60,1624275807.0,32.000000
-24,7,60,1624275807.0,32.000000
-23,7,59,1624275807.0,32.000000
-23,7,60,1624275807.0,32.000000
-23,7,60,1624275807.0,32.000000
-24,7,59,1624275807.0,32.000000
-24,7,59,1624275807.0,32.000000
-24,7,59,1624275807.0,32.000000
-23,7,60,1624275807.0,32.000000
-24,7,59,1624275807.0,32.000000
-23,7,59,1624275807.0,32.000000
-24,6,60,1624275807.0,32.000000
-23,7,60,1624275807.0,32.000000
-23,7,60,1624275807.0,32.000000
-23,7,60,1624275807.0,32.000000
-23,7,60,1624275807.0,32.000000
-23,7,60,1624275807.0,32.000000
-23,7,60,1624275807.0,32.000000
-23,7,59,1624275807.0,32.000000
-24,7,59,1624275807.0,32.000000
-24,7,59,1624275807.0,32.000000
-23,7,60,1624275807.0,32.000000
-23,7,60,1624275807.0,32.000000
-23,7,60,1624275807.0,32.000000
-24,7,60,1624275807.0,32.000000
-24,7,59,1624275807.0,32.000000
-24,7,60,1624275807.0,32.000000
-23,7,59,1624275807.0,32.000000
-23,7,60,1624275807.0,32.000000
-23,7,60,1624275807.0,32.000000
-24,7,60,1624275807.0,32.000000
-24,7,60,1624275807.0,32.000000
-24,6,59,1624275807.0,32.000000
-23,7,59,1624275807.0,32.000000
-26,7,63,1624275807.0,32.000000
-26,7,65,1624275807.0,32.000000
-19,9,58,1624275807.0,32.000000
-24,6,57,1624275807.0,32.000000
-25,5,57,1624275807.0,32.000000
-20,7,58,1624275807.0,32.000000
-22,6,61,1624275807.0,32.000000
-24,7,61,1624275807.0,32.000000
-25,8,60,1624275807.0,32.000000
-27,8,58,1624275807.0,32.000000
-25,7,60,1624275807.0,32.000000
-24,7,60,1624275807.0,32.000000
-24,6,60,1624275807.0,32.000000
-23,6,60,1624275807.0,32.000000
-23,6,60,1624275807.0,32.000000
-24,7,60,1624275807.0,32.000000
-25,7,59,1624275807.0,32.000000
-25,7,59,1624275807.0,32.000000
-24,7,60,1624275807.0,32.000000
-24,7,60,1624275807.0,32.000000
-24,6,59,1624275807.0,32.000000
-24,6,59,1624275807.0,32.000000
-24,7,59,1624275807.0,32.000000
-24,8,60,1624275807.0,32.000000
-25,7,59,1624275807.0,32.000000
-24,6,59,1624275807.0,32.000000
-24,7,60,1624275807.0,32.000000
-24,7,59,1624275807.0,32.000000
-24,7,59,1624275807.0,32.000000
-25,7,59,1624275807.0,32.000000
-25,7,59,1624275807.0,32.000000
-24,6,59,1624275807.0,32.000000
-24,6,59,1624275807.0,32.000000
-24,7,60,1624275807.0,32.000000
-24,7,59,1624275807.0,32.000000
-24,7,59,1624275807.0,32.000000
-24,7,59,1624275807.0,32.000000
-24,7,60,1624275807.0,32.000000
-24,7,59,1624275807.0,32.000000
-24,7,59,1624275807.0,32.000000
-24,7,59,1624275807.0,32.000000
-24,7,60,1624275807.0,32.000000
-25,7,59,1624275807.0,32.000000
-24,7,60,1624275807.0,32.000000
-24,7,59,1624275807.0,32.000000
-24,7,59,1624275807.0,32.000000
-24,7,60,1624275807.0,32.000000
-24,7,59,1624275807.0,32.000000
-24,7,59,1624275807.0,32.000000
-24,7,59,1624275807.0,32.000000
-24,7,59,1624275807.0,32.000000
-24,7,59,1624275807.0,32.000000
-24,7,60,1624275807.0,32.000000
-24,7,60,1624275807.0,32.000000
-24,7,59,1624275807.0,32.000000
-24,7,60,1624275807.0,32.000000
-24,7,59,1624275807.0,32.000000
-24,7,59,1624275807.0,32.000000
-24,7,60,1624275807.0,32.000000
-27,7,61,1624275807.0,32.000000
-27,7,62,1624275807.0,32.000000
-22,8,60,1624275807.0,32.000000
-22,8,57,1624275807.0,32.000000
-24,6,57,1624275807.0,32.000000
-22,6,58,1624275807.0,32.000000
-21,6,58,1624275807.0,32.000000
-21,6,61,1624275807.0,32.000000
-24,7,61,1624275807.0,32.000000
-27,8,60,1624275807.0,32.000000
-28,8,60,1624275807.0,32.000000
-26,8,60,1624275807.0,32.000000
-24,7,59,1624275807.0,32.000000
-24,6,60,1624275807.0,32.000000
-24,6,59,1624275807.0,32.000000
-24,7,59,1624275807.0,32.000000
-25,7,59,1624275807.0,32.000000
-25,7,59,1624275807.0,32.000000
-25,7,59,1624275807.0,32.000000
-24,7,59,1624275807.0,32.000000
-24,7,59,1624275807.0,32.000000
-24,7,59,1624275807.0,32.000000
-25,7,59,1624275807.0,32.000000
-25,7,59,1624275807.0,32.000000
-25,7,59,1624275807.0,32.000000
-24,7,59,1624275807.0,32.000000
-25,7,59,1624275807.0,32.000000
-24,7,59,1624275807.0,32.000000
-24,7,59,1624275807.0,32.000000
-24,7,59,1624275807.0,32.000000
-25,7,59,1624275807.0,32.000000
-24,7,60,1624275807.0,32.000000
-24,7,59,1624275807.0,32.000000
-24,7,59,1624275807.0,32.000000
-25,7,59,1624275807.0,32.000000
-25,7,59,1624275807.0,32.000000
-24,7,59,1624275807.0,32.000000
-25,7,59,1624275807.0,32.000000
-24,7,60,1624275807.0,32.000000
-24,7,59,1624275807.0,32.000000
-24,7,59,1624275807.0,32.000000
-24,7,59,1624275807.0,32.000000
-24,7,59,1624275807.0,32.000000
-24,7,59,1624275807.0,32.000000
-24,7,59,1624275807.0,32.000000
-24,7,60,1624275807.0,32.000000
-25,7,59,1624275807.0,32.000000
-25,7,59,1624275807.0,32.000000
-25,7,60,1624275807.0,32.000000
-24,7,60,1624275807.0,32.000000
-25,7,59,1624275807.0,32.000000
-25,7,60,1624275807.0,32.000000
-25,7,59,1624275807.0,32.000000
-24,7,59,1624275807.0,32.000000
-24,7,59,1624275807.0,32.000000
-24,7,59,1624275807.0,32.000000
-24,7,60,1624275807.0,32.000000
-25,7,59,1624275807.0,32.000000
-24,7,59,1624275807.0,32.000000
-25,7,59,1624275807.0,32.000000
-24,6,59,1624275807.0,32.000000
-24,7,60,1624275807.0,32.000000
-24,7,59,1624275807.0,32.000000
-29,7,63,1624275807.0,32.000000
-29,6,63,1624275807.0,32.000000
-20,9,58,1624275807.0,32.000000
-18,7,53,1624275807.0,32.000000
-20,7,58,1624275807.0,32.000000
-22,8,57,1624275807.0,32.000000
-24,8,58,1624275807.0,32.000000
-27,8,62,1624275807.0,32.000000
-25,8,61,1624275807.0,32.000000
-24,7,59,1624275807.0,32.000000
-24,6,60,1624275807.0,32.000000
-24,7,60,1624275807.0,32.000000
-24,7,60,1624275807.0,32.000000
-24,6,59,1624275807.0,32.000000
-24,7,59,1624275807.0,32.000000
-25,7,59,1624275807.0,32.000000
-24,7,59,1624275807.0,32.000000
-24,7,60,1624275807.0,32.000000
-24,7,60,1624275807.0,32.000000
-24,7,60,1624275807.0,32.000000
-25,7,59,1624275807.0,32.000000
-24,7,59,1624275807.0,32.000000
-24,7,59,1624275807.0,32.000000
-24,7,59,1624275807.0,32.000000
-24,7,60,1624275807.0,32.000000
-24,7,59,1624275807.0,32.000000
-25,7,60,1624275807.0,32.000000
-24,7,60,1624275807.0,32.000000
-24,7,60,1624275807.0,32.000000
-24,7,59,1624275807.0,32.000000
-24,7,59,1624275807.0,32.000000
-24,7,59,1624275807.0,32.000000
-25,7,59,1624275807.0,32.000000
-24,7,59,1624275807.0,32.000000
-24,7,59,1624275807.0,32.000000
-24,7,60,1624275807.0,32.000000
-24,7,60,1624275807.0,32.000000
-24,7,59,1624275807.0,32.000000
-25,7,59,1624275807.0,32.000000
-25,7,59,1624275807.0,32.000000
-25,7,59,1624275807.0,32.000000
-24,7,59,1624275807.0,32.000000
-24,7,59,1624275807.0,32.000000
-25,7,59,1624275807.0,32.000000
-24,7,59,1624275807.0,32.000000
-24,7,59,1624275807.0,32.000000
-24,7,59,1624275807.0,32.000000
-24,7,59,1624275807.0,32.000000
-25,7,59,1624275807.0,32.000000
-25,7,59,1624275807.0,32.000000
-25,7,59,1624275807.0,32.000000
-24,7,59,1624275807.0,32.000000
-24,7,60,1624275807.0,32.000000
-24,7,59,1624275807.0,32.000000
-24,7,59,1624275807.0,32.000000
-24,7,59,1624275807.0,32.000000
-24,7,60,1624275807.0,32.000000
-24,7,59,1624275807.0,32.000000
-24,7,59,1624275807.0,32.000000
-24,7,59,1624275807.0,32.000000
-24,7,59,1624275807.0,32.000000
-26,7,61,1624275807.0,32.000000
-26,8,63,1624275807.0,32.000000
-24,9,60,1624275807.0,32.000000
-26,7,55,1624275807.0,32.000000
-24,6,57,1624275807.0,32.000000
-21,6,59,1624275807.0,32.000000
-22,7,59,1624275807.0,32.000000
-24,6,59,1624275807.0,32.000000
-26,8,59,1624275807.0,32.000000
-27,8,59,1624275807.0,32.000000
-26,8,61,1624275807.0,32.000000
-25,7,60,1624275807.0,32.000000
-24,7,60,1624275807.0,32.000000
-24,6,60,1624275807.0,32.000000
-24,6,59,1624275807.0,32.000000
-24,7,59,1624275807.0,32.000000
-25,7,60,1624275807.0,32.000000
-26,7,59,1624275807.0,32.000000
-25,7,59,1624275807.0,32.000000
-24,7,59,1624275807.0,32.000000
-24,7,59,1624275807.0,32.000000
-24,7,59,1624275807.0,32.000000
-25,7,59,1624275807.0,32.000000
-25,7,59,1624275807.0,32.000000
-25,7,59,1624275807.0,32.000000
-25,7,59,1624275807.0,32.000000
-25,7,59,1624275807.0,32.000000
-25,7,59,1624275807.0,32.000000
-25,7,59,1624275807.0,32.000000
-25,7,59,1624275807.0,32.000000
-25,7,59,1624275807.0,32.000000
-25,7,59,1624275807.0,32.000000
-25,7,59,1624275807.0,32.000000
-24,7,59,1624275807.0,32.000000
-25,7,59,1624275807.0,32.000000
-24,7,59,1624275807.0,32.000000
-25,7,59,1624275807.0,32.000000
-25,7,59,1624275807.0,32.000000
-25,7,59,1624275807.0,32.000000
-25,7,59,1624275807.0,32.000000
-25,7,59,1624275807.0,32.000000
-25,7,59,1624275807.0,32.000000
-25,7,59,1624275807.0,32.000000
-25,7,59,1624275807.0,32.000000
-25,7,59,1624275807.0,32.000000
-25,7,59,1624275807.0,32.000000
-25,7,59,1624275807.0,32.000000
-25,7,59,1624275807.0,32.000000
-25,7,59,1624275807.0,32.000000
-25,7,59,1624275807.0,32.000000
-24,7,59,1624275807.0,32.000000
-25,7,59,1624275807.0,32.000000
-24,7,59,1624275807.0,32.000000
-25,7,59,1624275807.0,32.000000
-25,7,59,1624275807.0,32.000000
-25,7,59,1624275807.0,32.000000
-25,7,59,1624275807.0,32.000000
-24,7,59,1624275807.0,32.000000
-24,7,59,1624275807.0,32.000000
-25,7,59,1624275807.0,32.000000
-25,7,59,1624275807.0,32.000000
-25,7,59,1624275807.0,32.000000
-25,7,59,1624275807.0,32.000000
-26,7,62,1624275807.0,32.000000
-26,9,61,1624275807.0,32.000000
-25,8,57,1624275807.0,32.000000
-23,7,57,1624275807.0,32.000000
-22,7,57,1624275807.0,32.000000
-22,7,57,1624275807.0,32.000000
-22,7,59,1624275807.0,32.000000
-22,7,60,1624275807.0,32.000000
-25,7,59,1624275807.0,32.000000
-26,8,60,1624275807.0,32.000000
-28,8,58,1624275807.0,32.000000
-26,8,60,1624275807.0,32.000000
-24,7,60,1624275807.0,32.000000
-25,6,59,1624275807.0,32.000000
-24,7,59,1624275807.0,32.000000
-25,7,59,1624275807.0,32.000000
-25,7,59,1624275807.0,32.000000
-26,7,59,1624275807.0,32.000000
-25,7,59,1624275807.0,32.000000
-24,7,59,1624275807.0,32.000000
-25,7,59,1624275807.0,32.000000
-25,7,59,1624275807.0,32.000000
-25,7,59,1624275807.0,32.000000
-26,7,59,1624275807.0,32.000000
-25,7,59,1624275807.0,32.000000
-25,7,59,1624275807.0,32.000000
-25,7,59,1624275807.0,32.000000
-24,7,59,1624275807.0,32.000000
-25,7,59,1624275807.0,32.000000
-25,7,59,1624275807.0,32.000000
-25,7,59,1624275807.0,32.000000
-25,7,59,1624275807.0,32.000000
-25,7,59,1624275807.0,32.000000
-25,7,59,1624275807.0,32.000000
-25,7,59,1624275807.0,32.000000
-25,7,59,1624275807.0,32.000000
-25,7,59,1624275807.0,32.000000
-24,7,59,1624275807.0,32.000000
-25,7,59,1624275807.0,32.000000
-25,7,59,1624275807.0,32.000000
-25,7,59,1624275807.0,32.000000
-25,7,59,1624275807.0,32.000000
-25,7,59,1624275807.0,32.000000
-25,7,59,1624275807.0,32.000000
-25,7,59,1624275807.0,32.000000
-25,7,59,1624275807.0,32.000000
-25,7,59,1624275807.0,32.000000
-25,7,59,1624275807.0,32.000000
-25,7,59,1624275807.0,32.000000
-25,7,59,1624275807.0,32.000000
-25,7,59,1624275807.0,32.000000
-25,7,59,1624275807.0,32.000000
-25,7,59,1624275807.0,32.000000
-25,7,59,1624275807.0,32.000000
-25,7,59,1624275807.0,32.000000
-25,7,59,1624275807.0,32.000000
-24,7,59,1624275807.0,32.000000
-25,7,59,1624275807.0,32.000000
-25,7,59,1624275807.0,32.000000
-25,7,60,1624275807.0,32.000000
-25,7,60,1624275807.0,32.000000
-26,7,61,1624275807.0,32.000000
-25,8,59,1624275807.0,32.000000
-23,7,59,1624275807.0,32.000000
-24,6,57,1624275807.0,32.000000
-24,6,58,1624275807.0,32.000000
-22,6,58,1624275807.0,32.000000
-24,7,59,1624275807.0,32.000000
-26,7,59,1624275807.0,32.000000
-26,8,61,1624275807.0,32.000000
-27,8,59,1624275807.0,32.000000
-25,8,60,1624275807.0,32.000000
-25,6,59,1624275807.0,32.000000
-24,6,59,1624275807.0,32.000000
-25,7,59,1624275807.0,32.000000
-25,6,59,1624275807.0,32.000000
-25,7,59,1624275807.0,32.000000
-25,7,59,1624275807.0,32.000000
-25,7,59,1624275807.0,32.000000
-25,7,59,1624275807.0,32.000000
-25,7,59,1624275807.0,32.000000
-25,6,59,1624275807.0,32.000000
-25,7,59,1624275807.0,32.000000
-25,7,59,1624275807.0,32.000000
-25,7,59,1624275807.0,32.000000
-25,7,59,1624275807.0,32.000000
-25,7,59,1624275807.0,32.000000
-25,7,59,1624275807.0,32.000000
-25,7,59,1624275807.0,32.000000
-25,7,59,1624275807.0,32.000000
-25,7,59,1624275807.0,32.000000
-25,7,59,1624275807.0,32.000000
-25,7,59,1624275807.0,32.000000
-25,7,59,1624275807.0,32.000000
-25,7,59,1624275807.0,32.000000
-25,7,59,1624275807.0,32.000000
-25,7,59,1624275807.0,32.000000
-25,7,59,1624275807.0,32.000000
-25,7,59,1624275807.0,32.000000
-25,7,59,1624275807.0,32.000000
-25,7,59,1624275807.0,32.000000
-25,7,59,1624275807.0,32.000000
-25,7,59,1624275807.0,32.000000
-25,7,59,1624275807.0,32.000000
-25,7,59,1624275807.0,32.000000
-25,7,59,1624275807.0,32.000000
-24,7,59,1624275807.0,32.000000
-25,7,59,1624275807.0,32.000000
-25,7,59,1624275807.0,32.000000
-25,7,59,1624275807.0,32.000000
-25,7,59,1624275807.0,32.000000
-25,7,59,1624275807.0,32.000000
-25,7,59,1624275807.0,32.000000
-25,7,59,1624275807.0,32.000000
-25,7,59,1624275807.0,32.000000
-25,7,59,1624275807.0,32.000000
-25,7,59,1624275807.0,32.000000
-25,7,59,1624275807.0,32.000000
-25,7,59,1624275807.0,32.000000
-25,7,59,1624275807.0,32.000000
-27,7,62,1624275807.0,32.000000
-26,8,62,1624275807.0,32.000000
-26,7,57,1624275807.0,32.000000
-24,6,57,1624275807.0,32.000000
-26,6,57,1624275807.0,32.000000
-23,7,58,1624275807.0,32.000000
-23,6,58,1624275807.0,32.000000
-26,7,59,1624275807.0,32.000000
-26,8,59,1624275807.0,32.000000
-27,7,60,1624275807.0,32.000000
-27,7,59,1624275807.0,32.000000
-26,7,59,1624275807.0,32.000000
-25,6,59,1624275807.0,32.000000
-24,7,59,1624275807.0,32.000000
-25,7,59,1624275807.0,32.000000
-26,7,59,1624275807.0,32.000000
-26,7,59,1624275807.0,32.000000
-25,7,59,1624275807.0,32.000000
-25,7,59,1624275807.0,32.000000
-25,7,59,1624275807.0,32.000000
-25,7,59,1624275807.0,32.000000
-26,7,59,1624275807.0,32.000000
-25,7,59,1624275807.0,32.000000
-25,7,59,1624275807.0,32.000000
-25,7,59,1624275807.0,32.000000
-26,7,59,1624275807.0,32.000000
-25,7,59,1624275807.0,32.000000
-25,7,59,1624275807.0,32.000000
-26,7,59,1624275807.0,32.000000
-25,7,59,1624275807.0,32.000000
-26,7,59,1624275807.0,32.000000
-25,7,59,1624275807.0,32.000000
-25,7,59,1624275807.0,32.000000
-25,7,59,1624275807.0,32.000000
-25,7,59,1624275807.0,32.000000
-25,7,59,1624275807.0,32.000000
-25,7,59,1624275807.0,32.000000
-25,7,59,1624275807.0,32.000000
-25,7,59,1624275807.0,32.000000
-25,7,59,1624275807.0,32.000000
-25,7,59,1624275807.0,32.000000
-25,7,59,1624275807.0,32.000000
-25,7,59,1624275807.0,32.000000
-25,7,59,1624275807.0,32.000000
-25,7,59,1624275807.0,32.000000
-26,7,59,1624275807.0,32.000000
-25,7,59,1624275807.0,32.000000
-25,7,59,1624275807.0,32.000000
-25,7,59,1624275807.0,32.000000
-25,7,59,1624275807.0,32.000000
-25,7,59,1624275807.0,32.000000
-25,7,59,1624275807.0,32.000000
-25,7,59,1624275807.0,32.000000
-25,7,59,1624275807.0,32.000000
-25,7,59,1624275807.0,32.000000
-26,7,59,1624275807.0,32.000000
-25,7,59,1624275807.0,32.000000
-25,7,59,1624275807.0,32.000000
-25,7,59,1624275807.0,32.000000
-25,7,59,1624275807.0,32.000000
-25,7,59,1624275807.0,32.000000
-25,7,59,1624275807.0,32.000000
-26,7,60,1624275807.0,32.000000
-26,8,61,1624275807.0,32.000000
-27,8,61,1624275807.0,32.000000
-25,8,55,1624275807.0,32.000000
-25,6,56,1624275807.0,32.000000
-22,6,58,1624275807.0,32.000000
-23,6,57,1624275807.0,32.000000
-22,7,60,1624275807.0,32.000000
-26,8,59,1624275807.0,32.000000
-27,8,59,1624275807.0,32.000000
-27,9,59,1624275807.0,32.000000
-26,7,60,1624275807.0,32.000000
-25,8,60,1624275807.0,32.000000
-25,6,59,1624275807.0,32.000000
-25,7,59,1624275807.0,32.000000
-25,7,59,1624275807.0,32.000000
-26,8,59,1624275807.0,32.000000
-26,7,59,1624275807.0,32.000000
-25,7,59,1624275807.0,32.000000
-25,7,59,1624275807.0,32.000000
-25,7,59,1624275807.0,32.000000
-25,7,59,1624275807.0,32.000000
-25,7,59,1624275807.0,32.000000
-26,7,59,1624275807.0,32.000000
-25,7,59,1624275807.0,32.000000
-25,7,59,1624275807.0,32.000000
-25,7,59,1624275807.0,32.000000
-25,7,59,1624275807.0,32.000000
-26,7,59,1624275807.0,32.000000
-26,7,59,1624275807.0,32.000000
-26,7,59,1624275807.0,32.000000
-25,7,59,1624275807.0,32.000000
-25,7,59,1624275807.0,32.000000
-26,7,59,1624275807.0,32.000000
-25,7,59,1624275807.0,32.000000
-25,7,59,1624275807.0,32.000000
-26,7,59,1624275807.0,32.000000
-25,7,59,1624275807.0,32.000000
-25,7,59,1624275807.0,32.000000
-25,7,59,1624275807.0,32.000000
-25,7,59,1624275807.0,32.000000
-26,7,59,1624275807.0,32.000000
-25,7,59,1624275807.0,32.000000
-25,7,59,1624275807.0,32.000000
-26,7,59,1624275807.0,32.000000
-26,7,59,1624275807.0,32.000000
-25,7,59,1624275807.0,32.000000
-25,7,59,1624275807.0,32.000000
-26,7,59,1624275807.0,32.000000
-25,7,59,1624275807.0,32.000000
-25,7,59,1624275807.0,32.000000
-25,7,59,1624275807.0,32.000000
-25,7,59,1624275807.0,32.000000
-25,7,59,1624275807.0,32.000000
-25,7,59,1624275807.0,32.000000
-25,7,59,1624275807.0,32.000000
-25,7,59,1624275807.0,32.000000
-25,7,59,1624275807.0,32.000000
-25,7,59,1624275807.0,32.000000
-25,7,59,1624275807.0,32.000000
-25,7,59,1624275807.0,32.000000
-25,7,59,1624275807.0,32.000000
-25,7,59,1624275807.0,32.000000
-25,7,60,1624275807.0,32.000000
-29,7,62,1624275807.0,32.000000
-30,7,65,1624275807.0,32.000000
-21,8,58,1624275807.0,32.000000
-22,8,54,1624275807.0,32.000000
-24,5,57,1624275807.0,32.000000
-20,6,57,1624275807.0,32.000000
-20,7,58,1624275807.0,32.000000
-25,7,61,1624275807.0,32.000000
-27,8,60,1624275807.0,32.000000
-29,8,59,1624275807.0,32.000000
-27,7,60,1624275807.0,32.000000
-25,7,60,1624275807.0,32.000000
-24,7,60,1624275807.0,32.000000
-24,6,59,1624275807.0,32.000000
-24,7,59,1624275807.0,32.000000
-26,7,59,1624275807.0,32.000000
-26,7,59,1624275807.0,32.000000
-25,7,59,1624275807.0,32.000000
-25,7,59,1624275807.0,32.000000
-25,7,59,1624275807.0,32.000000
-24,7,59,1624275807.0,32.000000
-25,7,59,1624275807.0,32.000000
-25,7,59,1624275807.0,32.000000
-25,7,59,1624275807.0,32.000000
-25,7,59,1624275807.0,32.000000
-25,7,59,1624275807.0,32.000000
-25,7,59,1624275807.0,32.000000
-25,7,59,1624275807.0,32.000000
-25,7,59,1624275807.0,32.000000
-25,7,59,1624275807.0,32.000000
-25,7,59,1624275807.0,32.000000
-25,7,59,1624275807.0,32.000000
-25,7,59,1624275807.0,32.000000
-25,7,59,1624275807.0,32.000000
-24,7,59,1624275807.0,32.000000
-25,7,59,1624275807.0,32.000000
-25,7,59,1624275807.0,32.000000
-25,7,59,1624275807.0,32.000000
-25,7,59,1624275807.0,32.000000
-25,7,59,1624275807.0,32.000000
-25,7,59,1624275807.0,32.000000
-25,7,59,1624275807.0,32.000000
-25,7,59,1624275807.0,32.000000
-25,7,59,1624275807.0,32.000000
-25,7,59,1624275807.0,32.000000
-25,7,59,1624275807.0,32.000000
-25,7,59,1624275807.0,32.000000
-25,7,59,1624275807.0,32.000000
-25,7,59,1624275807.0,32.000000
-25,7,59,1624275807.0,32.000000
-25,7,59,1624275807.0,32.000000
-25,7,59,1624275807.0,32.000000
-25,7,59,1624275807.0,32.000000
-25,7,59,1624275807.0,32.000000
-25,7,59,1624275807.0,32.000000
-25,7,59,1624275807.0,32.000000
-25,7,59,1624275807.0,32.000000
-25,7,59,1624275807.0,32.000000
-25,7,59,1624275807.0,32.000000
-25,7,59,1624275807.0,32.000000
-26,7,60,1624275807.0,32.000000
-28,7,63,1624275807.0,32.000000
-30,7,59,1624275807.0,32.000000
-23,8,59,1624275807.0,32.000000
-20,7,57,1624275807.0,32.000000
-22,8,59,1624275807.0,32.000000
-21,8,58,1624275807.0,32.000000
-25,7,59,1624275807.0,32.000000
-26,7,61,1624275807.0,32.000000
-26,8,61,1624275807.0,32.000000
-26,7,58,1624275807.0,32.000000
-26,6,59,1624275807.0,32.000000
-25,7,59,1624275807.0,32.000000
-25,7,60,1624275807.0,32.000000
-25,7,59,1624275807.0,32.000000
-25,7,59,1624275807.0,32.000000
-25,7,59,1624275807.0,32.000000
-25,7,59,1624275807.0,32.000000
-25,7,59,1624275807.0,32.000000
-25,7,59,1624275807.0,32.000000
-25,7,59,1624275807.0,32.000000
-25,7,59,1624275807.0,32.000000
-25,7,60,1624275807.0,32.000000
-25,7,59,1624275807.0,32.000000
-25,7,59,1624275807.0,32.000000
-25,7,59,1624275807.0,32.000000
-25,7,59,1624275807.0,32.000000
-24,8,59,1624275807.0,32.000000
-24,8,59,1624275807.0,32.000000
-25,7,58,1624275807.0,32.000000
-26,8,59,1624275807.0,32.000000
-25,7,60,1624275807.0,32.000000
-25,6,59,1624275807.0,32.000000
-26,6,59,1624275807.0,32.000000
-26,7,59,1624275807.0,32.000000
-25,8,59,1624275807.0,32.000000
-25,8,59,1624275807.0,32.000000
-25,7,58,1624275807.0,32.000000
-25,8,59,1624275807.0,32.000000
-25,8,59,1624275807.0,32.000000
-24,7,59,1624275807.0,32.000000
-24,6,59,1624275807.0,32.000000
-24,7,59,1624275807.0,32.000000
-25,7,59,1624275807.0,32.000000
-25,7,59,1624275807.0,32.000000
-26,7,59,1624275807.0,32.000000
-26,7,58,1624275807.0,32.000000
-25,6,59,1624275807.0,32.000000
-24,7,59,1624275807.0,32.000000
-25,7,59,1624275807.0,32.000000
-25,7,59,1624275807.0,32.000000
-25,7,59,1624275807.0,32.000000
-25,8,59,1624275807.0,32.000000
-26,7,59,1624275807.0,32.000000
-26,6,59,1624275807.0,32.000000
-25,6,59,1624275807.0,32.000000
-24,8,59,1624275807.0,32.000000
-26,8,59,1624275807.0,32.000000
-26,6,59,1624275807.0,32.000000
-25,5,59,1624275807.0,32.000000
-24,7,60,1624275807.0,32.000000
-24,7,60,1624275807.0,32.000000
-25,8,59,1624275807.0,32.000000
-24,7,59,1624275807.0,32.000000
-24,7,59,1624275807.0,32.000000
-25,6,60,1624275807.0,32.000000
-26,7,60,1624275807.0,32.000000
-25,7,58,1624275807.0,32.000000
-28,7,61,1624275807.0,32.000000
-27,8,59,1624275807.0,32.000000
-23,7,57,1624275807.0,32.000000
-25,5,58,1624275807.0,32.000000
-24,6,57,1624275807.0,32.000000
-24,6,60,1624275807.0,32.000000
-23,7,61,1624275807.0,32.000000
-24,8,61,1624275807.0,32.000000
-27,9,58,1624275807.0,32.000000
-27,8,59,1624275807.0,32.000000
-25,7,59,1624275807.0,32.000000
-25,7,59,1624275807.0,32.000000
-26,6,59,1624275807.0,32.000000
-25,6,59,1624275807.0,32.000000
-25,6,59,1624275807.0,32.000000
-26,7,59,1624275807.0,32.000000
-26,7,59,1624275807.0,32.000000
-25,7,59,1624275807.0,32.000000
-25,7,59,1624275807.0,32.000000
-25,7,59,1624275807.0,32.000000
-25,7,59,1624275807.0,32.000000
-25,7,59,1624275807.0,32.000000
-25,7,59,1624275807.0,32.000000
-26,7,59,1624275807.0,32.000000
-25,7,59,1624275807.0,32.000000
-25,7,59,1624275807.0,32.000000
-25,7,59,1624275807.0,32.000000
-25,7,59,1624275807.0,32.000000
-26,7,59,1624275807.0,32.000000
-25,7,59,1624275807.0,32.000000
-25,7,59,1624275807.0,32.000000
-25,7,59,1624275807.0,32.000000
-25,7,59,1624275807.0,32.000000
-26,7,59,1624275807.0,32.000000
-25,7,59,1624275807.0,32.000000
-25,7,59,1624275807.0,32.000000
-26,7,59,1624275807.0,32.000000
-25,7,59,1624275807.0,32.000000
-25,7,59,1624275807.0,32.000000
-26,7,59,1624275807.0,32.000000
-25,7,59,1624275807.0,32.000000
-25,7,59,1624275807.0,32.000000
-25,7,59,1624275807.0,32.000000
-25,7,59,1624275807.0,32.000000
-25,7,59,1624275807.0,32.000000
-25,7,59,1624275807.0,32.000000
-25,7,59,1624275807.0,32.000000
-25,7,59,1624275807.0,32.000000
-25,7,59,1624275807.0,32.000000
-25,7,59,1624275807.0,32.000000
-24,7,60,1624275807.0,32.000000
-25,7,59,1624275807.0,32.000000
-25,7,59,1624275807.0,32.000000
-25,7,59,1624275807.0,32.000000
-25,7,59,1624275807.0,32.000000
-25,7,59,1624275807.0,32.000000
-25,7,59,1624275807.0,32.000000
-26,7,59,1624275807.0,32.000000
-25,7,59,1624275807.0,32.000000
-26,7,59,1624275807.0,32.000000
-25,7,59,1624275807.0,32.000000
-25,7,59,1624275807.0,32.000000
-25,7,59,1624275807.0,32.000000
-25,7,59,1624275807.0,32.000000
-24,7,59,1624275807.0,32.000000
-25,7,59,1624275807.0,32.000000
-25,7,59,1624275807.0,32.000000
-25,7,59,1624275807.0,32.000000
-25,7,59,1624275807.0,32.000000
-25,7,58,1624275807.0,32.000000
-25,7,59,1624275807.0,32.000000
-25,7,59,1624275807.0,32.000000
-25,7,59,1624275807.0,32.000000
-24,7,59,1624275807.0,32.000000
-25,7,60,1624275807.0,32.000000
-28,7,62,1624275807.0,32.000000
-28,9,61,1624275807.0,32.000000
-22,7,58,1624275807.0,32.000000
-24,5,56,1624275807.0,32.000000
-23,6,57,1624275807.0,32.000000
-21,7,58,1624275807.0,32.000000
-22,6,61,1624275807.0,32.000000
-25,7,60,1624275807.0,32.000000
-28,8,59,1624275807.0,32.000000
-27,8,60,1624275807.0,32.000000
-26,7,60,1624275807.0,32.000000
-26,8,59,1624275807.0,32.000000
-24,7,59,1624275807.0,32.000000
-25,6,59,1624275807.0,32.000000
-25,7,59,1624275807.0,32.000000
-26,7,59,1624275807.0,32.000000
-26,7,59,1624275807.0,32.000000
-25,7,59,1624275807.0,32.000000
-25,7,59,1624275807.0,32.000000
-25,7,59,1624275807.0,32.000000
-25,7,59,1624275807.0,32.000000
-25,7,59,1624275807.0,32.000000
-26,7,59,1624275807.0,32.000000
-25,7,59,1624275807.0,32.000000
-26,7,59,1624275807.0,32.000000
-26,7,59,1624275807.0,32.000000
-26,7,59,1624275807.0,32.000000
-25,7,59,1624275807.0,32.000000
-25,7,58,1624275807.0,32.000000
-25,7,59,1624275807.0,32.000000
-25,7,59,1624275807.0,32.000000
-26,7,59,1624275807.0,32.000000
-25,7,59,1624275807.0,32.000000
-25,7,59,1624275807.0,32.000000
-25,7,59,1624275807.0,32.000000
-25,7,59,1624275807.0,32.000000
-25,7,59,1624275807.0,32.000000
-25,7,59,1624275807.0,32.000000
-25,7,59,1624275807.0,32.000000
-25,7,59,1624275807.0,32.000000
-25,7,59,1624275807.0,32.000000
-25,7,59,1624275807.0,32.000000
-25,7,59,1624275807.0,32.000000
-26,7,59,1624275807.0,32.000000
-25,7,59,1624275807.0,32.000000
-25,7,59,1624275807.0,32.000000
-26,7,59,1624275807.0,32.000000
-26,7,59,1624275807.0,32.000000
-25,7,59,1624275807.0,32.000000
-25,7,59,1624275807.0,32.000000
-25,7,59,1624275807.0,32.000000
-25,7,59,1624275807.0,32.000000
-25,7,58,1624275807.0,32.000000
-25,7,59,1624275807.0,32.000000
-25,7,59,1624275807.0,32.000000
-26,7,59,1624275807.0,32.000000
-26,7,60,1624275807.0,32.000000
-27,7,62,1624275807.0,32.000000
-24,9,62,1624275807.0,32.000000
-22,8,58,1624275807.0,32.000000
-26,5,55,1624275807.0,32.000000
-23,7,57,1624275807.0,32.000000
-21,7,58,1624275807.0,32.000000
-25,6,60,1624275807.0,32.000000
-26,7,60,1624275807.0,32.000000
-27,8,59,1624275807.0,32.000000
-27,8,59,1624275807.0,32.000000
-26,7,60,1624275807.0,32.000000
-25,7,59,1624275807.0,32.000000
-25,6,59,1624275807.0,32.000000
-25,6,59,1624275807.0,32.000000
-26,7,59,1624275807.0,32.000000
-26,7,59,1624275807.0,32.000000
-26,7,59,1624275807.0,32.000000
-26,7,59,1624275807.0,32.000000
-25,7,59,1624275807.0,32.000000
-25,7,59,1624275807.0,32.000000
-25,7,59,1624275807.0,32.000000
-26,7,59,1624275807.0,32.000000
-26,7,59,1624275807.0,32.000000
-26,7,59,1624275807.0,32.000000
-25,7,59,1624275807.0,32.000000
-25,7,59,1624275807.0,32.000000
-25,7,59,1624275807.0,32.000000
-25,7,59,1624275807.0,32.000000
-26,7,59,1624275807.0,32.000000
-25,7,59,1624275807.0,32.000000
-25,7,59,1624275807.0,32.000000
-26,7,59,1624275807.0,32.000000
-25,7,59,1624275807.0,32.000000
-25,7,59,1624275807.0,32.000000
-26,7,59,1624275807.0,32.000000
-25,7,59,1624275807.0,32.000000
-25,7,59,1624275807.0,32.000000
-25,7,59,1624275807.0,32.000000
-25,7,59,1624275807.0,32.000000
-26,7,59,1624275807.0,32.000000
-25,7,59,1624275807.0,32.000000
-25,7,59,1624275807.0,32.000000
-26,7,59,1624275807.0,32.000000
-25,7,59,1624275807.0,32.000000
-26,7,59,1624275807.0,32.000000
-25,7,59,1624275807.0,32.000000
-25,7,59,1624275807.0,32.000000
-25,7,59,1624275807.0,32.000000
-26,7,59,1624275807.0,32.000000
-25,7,59,1624275807.0,32.000000
-25,7,59,1624275807.0,32.000000
-26,7,59,1624275807.0,32.000000
-25,7,59,1624275807.0,32.000000
-25,7,59,1624275807.0,32.000000
-25,7,59,1624275807.0,32.000000
-25,7,59,1624275807.0,32.000000
-29,7,62,1624275807.0,32.000000
-27,10,60,1624275807.0,32.000000
-23,8,60,1624275807.0,32.000000
-24,6,55,1624275807.0,32.000000
-25,5,57,1624275807.0,32.000000
-21,7,57,1624275807.0,32.000000
-22,7,60,1624275807.0,32.000000
-25,7,60,1624275807.0,32.000000
-27,8,59,1624275807.0,32.000000
-28,8,59,1624275807.0,32.000000
-28,8,59,1624275807.0,32.000000
-25,7,59,1624275807.0,32.000000
-25,6,59,1624275807.0,32.000000
-25,6,59,1624275807.0,32.000000
-25,6,59,1624275807.0,32.000000
-26,7,59,1624275807.0,32.000000
-26,7,59,1624275807.0,32.000000
-26,7,59,1624275807.0,32.000000
-25,7,59,1624275807.0,32.000000
-25,7,59,1624275807.0,32.000000
-25,7,59,1624275807.0,32.000000
-25,7,59,1624275807.0,32.000000
-26,7,59,1624275807.0,32.000000
-26,7,59,1624275807.0,32.000000
-25,7,59,1624275807.0,32.000000
-25,7,59,1624275807.0,32.000000
-25,7,59,1624275807.0,32.000000
-25,7,59,1624275807.0,32.000000
-26,7,59,1624275807.0,32.000000
-26,7,59,1624275807.0,32.000000
-26,7,59,1624275807.0,32.000000
-26,7,59,1624275807.0,32.000000
-26,7,59,1624275807.0,32.000000
-25,7,59,1624275807.0,32.000000
-26,7,59,1624275807.0,32.000000
-26,7,59,1624275807.0,32.000000
-25,7,59,1624275807.0,32.000000
-25,7,59,1624275807.0,32.000000
-26,7,59,1624275807.0,32.000000
-25,7,59,1624275807.0,32.000000
-26,7,59,1624275807.0,32.000000
-25,7,59,1624275807.0,32.000000
-26,7,59,1624275807.0,32.000000
-26,7,59,1624275807.0,32.000000
-26,7,59,1624275807.0,32.000000
-25,7,59,1624275807.0,32.000000
-25,7,59,1624275807.0,32.000000
-26,7,59,1624275807.0,32.000000
-25,7,59,1624275807.0,32.000000
-25,7,59,1624275807.0,32.000000
-25,7,59,1624275807.0,32.000000
-25,7,59,1624275807.0,32.000000
-26,7,59,1624275807.0,32.000000
-26,7,59,1624275807.0,32.000000
-25,7,59,1624275807.0,32.000000
-26,6,59,1624275807.0,32.000000
-25,7,59,1624275807.0,32.000000
-25,7,59,1624275807.0,32.000000
-25,7,59,1624275807.0,32.000000
-25,7,59,1624275807.0,32.000000
-25,7,59,1624275807.0,32.000000
-25,7,59,1624275807.0,32.000000
-26,7,59,1624275807.0,32.000000
-26,7,61,1624275807.0,32.000000
-25,8,58,1624275807.0,32.000000
-26,7,61,1624275807.0,32.000000
-23,8,61,1624275807.0,32.000000
-23,9,56,1624275807.0,32.000000
-27,6,57,1624275807.0,32.000000
-25,6,57,1624275807.0,32.000000
-22,6,59,1624275807.0,32.000000
-25,6,60,1624275807.0,32.000000
-27,7,59,1624275807.0,32.000000
-28,9,57,1624275807.0,32.000000
-28,8,60,1624275807.0,32.000000
-26,7,60,1624275807.0,32.000000
-25,6,59,1624275807.0,32.000000
-25,6,59,1624275807.0,32.000000
-25,7,59,1624275807.0,32.000000
-26,7,59,1624275807.0,32.000000
-26,7,59,1624275807.0,32.000000
-26,7,59,1624275807.0,32.000000
-26,7,59,1624275807.0,32.000000
-25,7,59,1624275807.0,32.000000
-25,7,59,1624275807.0,32.000000
-25,7,59,1624275807.0,32.000000
-26,7,59,1624275807.0,32.000000
-26,7,59,1624275807.0,32.000000
-26,7,59,1624275807.0,32.000000
-26,7,59,1624275807.0,32.000000
-26,7,59,1624275807.0,32.000000
-26,7,59,1624275807.0,32.000000
-26,7,59,1624275807.0,32.000000
-26,7,59,1624275807.0,32.000000
-26,7,59,1624275807.0,32.000000
-26,7,59,1624275807.0,32.000000
-26,7,59,1624275807.0,32.000000
-26,7,59,1624275807.0,32.000000
-25,7,59,1624275807.0,32.000000
-26,7,59,1624275807.0,32.000000
-26,7,59,1624275807.0,32.000000
-25,7,59,1624275807.0,32.000000
-26,7,59,1624275807.0,32.000000
-26,7,59,1624275807.0,32.000000
-26,7,59,1624275807.0,32.000000
-26,7,59,1624275807.0,32.000000
-26,7,59,1624275807.0,32.000000
-26,7,59,1624275807.0,32.000000
-25,7,59,1624275807.0,32.000000
-26,7,59,1624275807.0,32.000000
-26,7,59,1624275807.0,32.000000
-26,7,59,1624275807.0,32.000000
-26,7,59,1624275807.0,32.000000
-26,7,59,1624275807.0,32.000000
-26,7,59,1624275807.0,32.000000
-26,7,59,1624275807.0,32.000000
-26,7,59,1624275807.0,32.000000
-26,7,59,1624275807.0,32.000000
-26,7,59,1624275807.0,32.000000
-25,7,59,1624275807.0,32.000000
-26,7,59,1624275807.0,32.000000
-25,7,59,1624275807.0,32.000000
-25,7,59,1624275807.0,32.000000
-28,7,61,1624275807.0,32.000000
-26,9,60,1624275807.0,32.000000
-26,8,59,1624275807.0,32.000000
-24,6,55,1624275807.0,32.000000
-22,6,58,1624275807.0,32.000000
-22,6,58,1624275807.0,32.000000
-24,7,59,1624275807.0,32.000000
-25,7,60,1624275807.0,32.000000
-29,8,58,1624275807.0,32.000000
-29,9,60,1624275807.0,32.000000
-27,8,60,1624275807.0,32.000000
-25,7,59,1624275807.0,32.000000
-25,6,59,1624275807.0,32.000000
-25,6,59,1624275807.0,32.000000
-25,7,59,1624275807.0,32.000000
-26,8,59,1624275807.0,32.000000
-26,7,59,1624275807.0,32.000000
-26,7,59,1624275807.0,32.000000
-25,7,59,1624275807.0,32.000000
-26,7,59,1624275807.0,32.000000
-26,7,59,1624275807.0,32.000000
-25,7,59,1624275807.0,32.000000
-26,7,59,1624275807.0,32.000000
-26,7,59,1624275807.0,32.000000
-25,7,59,1624275807.0,32.000000
-26,7,59,1624275807.0,32.000000
-26,7,59,1624275807.0,32.000000
-26,7,59,1624275807.0,32.000000
-26,7,59,1624275807.0,32.000000
-26,7,59,1624275807.0,32.000000
-26,7,59,1624275807.0,32.000000
-26,7,59,1624275807.0,32.000000
-26,7,58,1624275807.0,32.000000
-26,7,59,1624275807.0,32.000000
-26,7,59,1624275807.0,32.000000
-26,7,59,1624275807.0,32.000000
-26,7,59,1624275807.0,32.000000
-26,7,59,1624275807.0,32.000000
-26,7,59,1624275807.0,32.000000
-26,7,59,1624275807.0,32.000000
-26,7,59,1624275807.0,32.000000
-25,7,59,1624275807.0,32.000000
-26,7,59,1624275807.0,32.000000
-26,7,59,1624275807.0,32.000000
-26,7,59,1624275807.0,32.000000
-26,7,59,1624275807.0,32.000000
-26,7,59,1624275807.0,32.000000
-26,7,59,1624275807.0,32.000000
-26,7,59,1624275807.0,32.000000
-26,7,59,1624275807.0,32.000000
-26,7,59,1624275807.0,32.000000
-26,7,59,1624275807.0,32.000000
-25,7,59,1624275807.0,32.000000
-26,7,59,1624275807.0,32.000000
-26,7,59,1624275807.0,32.000000
-26,7,59,1624275807.0,32.000000
-26,7,59,1624275807.0,32.000000
-26,7,59,1624275807.0,32.000000
-26,7,59,1624275807.0,32.000000
-27,7,60,1624275807.0,32.000000
-26,8,60,1624275807.0,32.000000
-27,8,61,1624275807.0,32.000000
-26,8,60,1624275807.0,32.000000
-24,7,56,1624275807.0,32.000000
-27,6,55,1624275807.0,32.000000
-25,7,56,1624275807.0,32.000000
-23,6,59,1624275807.0,32.000000
-25,6,59,1624275807.0,32.000000
-28,8,58,1624275807.0,32.000000
-27,9,59,1624275807.0,32.000000
-28,8,59,1624275807.0,32.000000
-27,8,59,1624275807.0,32.000000
-26,7,58,1624275807.0,32.000000
-25,7,59,1624275807.0,32.000000
-26,7,58,1624275807.0,32.000000
-26,7,59,1624275807.0,32.000000
-27,8,59,1624275807.0,32.000000
-26,7,59,1624275807.0,32.000000
-27,7,58,1624275807.0,32.000000
-26,7,59,1624275807.0,32.000000
-25,7,59,1624275807.0,32.000000
-26,7,59,1624275807.0,32.000000
-26,7,58,1624275807.0,32.000000
-26,7,59,1624275807.0,32.000000
-26,7,59,1624275807.0,32.000000
-26,7,59,1624275807.0,32.000000
-26,7,59,1624275807.0,32.000000
-26,7,59,1624275807.0,32.000000
-27,7,58,1624275807.0,32.000000
-26,7,59,1624275807.0,32.000000
-26,7,59,1624275807.0,32.000000
-26,7,59,1624275807.0,32.000000
-26,7,59,1624275807.0,32.000000
-26,7,59,1624275807.0,32.000000
-26,7,59,1624275807.0,32.000000
-26,7,59,1624275807.0,32.000000
-26,7,58,1624275807.0,32.000000
-26,7,59,1624275807.0,32.000000
-26,7,59,1624275807.0,32.000000
-26,7,58,1624275807.0,32.000000
-26,7,58,1624275807.0,32.000000
-26,7,59,1624275807.0,32.000000
-26,7,59,1624275807.0,32.000000
-26,7,58,1624275807.0,32.000000
-26,7,59,1624275807.0,32.000000
-26,7,59,1624275807.0,32.000000
-26,7,58,1624275807.0,32.000000
-26,7,59,1624275807.0,32.000000
-26,7,59,1624275807.0,32.000000
-26,7,59,1624275807.0,32.000000
-26,7,59,1624275807.0,32.000000
-26,7,59,1624275807.0,32.000000
-26,7,59,1624275807.0,32.000000
-26,7,59,1624275807.0,32.000000
-26,7,58,1624275807.0,32.000000
-26,7,59,1624275807.0,32.000000
-26,7,59,1624275807.0,32.000000
-26,7,59,1624275807.0,32.000000
-26,7,59,1624275807.0,32.000000
-26,7,59,1624275807.0,32.000000
-26,7,59,1624275807.0,32.000000
-26,7,59,1624275807.0,32.000000
-26,7,59,1624275807.0,32.000000
-26,7,59,1624275807.0,32.000000
-26,7,59,1624275807.0,32.000000
-26,7,59,1624275807.0,32.000000
-26,7,59,1624275807.0,32.000000
-26,7,59,1624275807.0,32.000000
-26,7,59,1624275807.0,32.000000
-26,7,59,1624275807.0,32.000000
-26,7,59,1624275807.0,32.000000
-26,7,59,1624275807.0,32.000000
-26,7,59,1624275807.0,32.000000
-26,7,59,1624275807.0,32.000000
-26,7,59,1624275807.0,32.000000
-26,7,59,1624275807.0,32.000000
-26,7,59,1624275807.0,32.000000
-26,7,59,1624275807.0,32.000000
-26,7,59,1624275807.0,32.000000
-26,7,59,1624275807.0,32.000000
-26,7,59,1624275807.0,32.000000
-26,7,59,1624275807.0,32.000000
-26,7,59,1624275807.0,32.000000
-26,7,59,1624275807.0,32.000000
-26,7,59,1624275807.0,32.000000
-27,7,59,1624275807.0,32.000000
-26,7,59,1624275807.0,32.000000
-26,7,58,1624275807.0,32.000000
-26,7,59,1624275807.0,32.000000
-26,7,59,1624275807.0,32.000000
-26,7,59,1624275807.0,32.000000
-26,7,59,1624275807.0,32.000000
-26,7,59,1624275807.0,32.000000
-26,7,59,1624275807.0,32.000000
-26,7,59,1624275807.0,32.000000
-26,7,59,1624275807.0,32.000000
-26,7,59,1624275807.0,32.000000
-26,7,59,1624275807.0,32.000000
-26,7,59,1624275807.0,32.000000
-26,7,59,1624275807.0,32.000000
-26,7,59,1624275807.0,32.000000
-26,7,59,1624275807.0,32.000000
-26,7,59,1624275807.0,32.000000
-26,7,59,1624275807.0,32.000000
-26,7,59,1624275807.0,32.000000
-26,7,59,1624275807.0,32.000000
-26,7,59,1624275807.0,32.000000
-26,7,59,1624275807.0,32.000000
-26,7,58,1624275807.0,32.000000
-26,7,59,1624275807.0,32.000000
-26,7,58,1624275807.0,32.000000
-26,7,58,1624275807.0,32.000000
-26,7,59,1624275807.0,32.000000
-26,7,59,1624275807.0,32.000000
-26,7,59,1624275807.0,32.000000
-26,7,59,1624275807.0,32.000000
-26,7,58,1624275807.0,32.000000
-26,7,59,1624275807.0,32.000000
-26,7,59,1624275807.0,32.000000
-26,8,59,1624275807.0,32.000000
-26,7,59,1624275807.0,32.000000
-26,7,59,1624275807.0,32.000000
-26,7,59,1624275807.0,32.000000
-26,7,59,1624275807.0,32.000000
-26,7,59,1624275807.0,32.000000
-27,8,58,1624275807.0,32.000000
-27,8,58,1624275807.0,32.000000
-26,6,58,1624275807.0,32.000000
-25,6,59,1624275807.0,32.000000
-26,8,59,1624275807.0,32.000000
-26,8,59,1624275807.0,32.000000
-26,7,58,1624275807.0,32.000000
-26,7,59,1624275807.0,32.000000
-26,7,59,1624275807.0,32.000000
-26,8,59,1624275807.0,32.000000
-26,7,59,1624275807.0,32.000000
-26,7,59,1624275807.0,32.000000
-26,7,59,1624275807.0,32.000000
-26,7,58,1624275807.0,32.000000
-26,7,59,1624275807.0,32.000000
-26,8,59,1624275807.0,32.000000
-26,8,58,1624275807.0,32.000000
-26,7,59,1624275807.0,32.000000
-25,7,59,1624275807.0,32.000000
-26,7,59,1624275807.0,32.000000
-26,7,59,1624275807.0,32.000000
-26,7,59,1624275807.0,32.000000
-27,7,58,1624275807.0,32.000000
-26,7,59,1624275807.0,32.000000
-25,7,59,1624275807.0,32.000000
-26,8,59,1624275807.0,32.000000
-27,8,57,1624275807.0,32.000000
-27,7,58,1624275807.0,32.000000
-27,6,58,1624275807.0,32.000000
-25,8,60,1624275807.0,32.000000
-26,8,59,1624275807.0,32.000000
-26,8,58,1624275807.0,32.000000
-26,7,58,1624275807.0,32.000000
-25,7,59,1624275807.0,32.000000
-26,8,59,1624275807.0,32.000000
-27,8,58,1624275807.0,32.000000
-27,7,58,1624275807.0,32.000000
-26,7,59,1624275807.0,32.000000
-25,7,59,1624275807.0,32.000000
-26,7,59,1624275807.0,32.000000
-26,7,59,1624275807.0,32.000000
-27,8,58,1624275807.0,32.000000
-26,7,59,1624275807.0,32.000000
-25,7,59,1624275807.0,32.000000
-26,7,58,1624275807.0,32.000000
-26,7,59,1624275807.0,32.000000
-26,7,59,1624275807.0,32.000000
-26,7,58,1624275807.0,32.000000
-26,7,58,1624275807.0,32.000000
-26,7,59,1624275807.0,32.000000
-26,7,59,1624275807.0,32.000000
-26,8,59,1624275807.0,32.000000
-26,7,59,1624275807.0,32.000000
-26,8,59,1624275807.0,32.000000
-27,8,59,1624275807.0,32.000000
-26,7,58,1624275807.0,32.000000
-26,6,59,1624275807.0,32.000000
-26,7,59,1624275807.0,32.000000
-27,8,58,1624275807.0,32.000000
-27,8,58,1624275807.0,32.000000
-26,7,59,1624275807.0,32.000000
-26,7,59,1624275807.0,32.000000
-26,7,59,1624275807.0,32.000000
-26,7,59,1624275807.0,32.000000
-26,7,59,1624275807.0,32.000000
-26,7,59,1624275807.0,32.000000
-25,7,59,1624275807.0,32.000000
-25,7,59,1624275807.0,32.000000
-26,7,59,1624275807.0,32.000000
-26,7,59,1624275807.0,32.000000
-26,7,59,1624275807.0,32.000000
-26,7,59,1624275807.0,32.000000
-26,7,59,1624275807.0,32.000000
-26,7,58,1624275807.0,32.000000
-26,7,58,1624275807.0,32.000000
-26,7,59,1624275807.0,32.000000
-26,7,59,1624275807.0,32.000000
-26,7,59,1624275807.0,32.000000
-26,7,59,1624275807.0,32.000000
-26,7,58,1624275807.0,32.000000
-26,7,59,1624275807.0,32.000000
-26,7,59,1624275807.0,32.000000
-26,7,59,1624275807.0,32.000000
-26,6,59,1624275807.0,32.000000
-26,7,59,1624275807.0,32.000000
-25,8,59,1624275807.0,32.000000
-26,8,59,1624275807.0,32.000000
-27,8,57,1624275807.0,32.000000
-26,6,59,1624275807.0,32.000000
-26,6,59,1624275807.0,32.000000
-26,7,60,1624275807.0,32.000000
-25,7,59,1624275807.0,32.000000
-26,7,59,1624275807.0,32.000000
-25,7,59,1624275807.0,32.000000
-25,7,59,1624275807.0,32.000000
-26,7,59,1624275807.0,32.000000
-26,7,58,1624275807.0,32.000000
-26,8,59,1624275807.0,32.000000
-27,7,59,1624275807.0,32.000000
-27,6,58,1624275807.0,32.000000
-25,6,59,1624275807.0,32.000000
-25,7,59,1624275807.0,32.000000
-26,8,58,1624275807.0,32.000000
-26,7,59,1624275807.0,32.000000
-25,7,60,1624275807.0,32.000000
-26,7,59,1624275807.0,32.000000
-26,7,59,1624275807.0,32.000000
-25,7,59,1624275807.0,32.000000
-26,7,59,1624275807.0,32.000000
-26,7,58,1624275807.0,32.000000
-26,7,58,1624275807.0,32.000000
-27,7,58,1624275807.0,32.000000
-26,6,60,1624275807.0,32.000000
-25,7,59,1624275807.0,32.000000
-26,7,59,1624275807.0,32.000000
-27,7,58,1624275807.0,32.000000
-26,7,58,1624275807.0,32.000000
-26,6,59,1624275807.0,32.000000
-25,8,59,1624275807.0,32.000000
-25,8,60,1624275807.0,32.000000
-26,7,59,1624275807.0,32.000000
-27,7,58,1624275807.0,32.000000
-26,7,59,1624275807.0,32.000000
-26,7,58,1624275807.0,32.000000
-26,7,59,1624275807.0,32.000000
-24,7,60,1624275807.0,32.000000
-27,7,58,1624275807.0,32.000000
-28,8,57,1624275807.0,32.000000
-26,7,58,1624275807.0,32.000000
-26,6,59,1624275807.0,32.000000
-26,6,60,1624275807.0,32.000000
-27,6,59,1624275807.0,32.000000
-25,7,59,1624275807.0,32.000000
-23,7,60,1624275807.0,32.000000
-23,8,60,1624275807.0,32.000000
-26,8,57,1624275807.0,32.000000
-26,7,58,1624275807.0,32.000000
-26,7,59,1624275807.0,32.000000
-24,5,61,1624275807.0,32.000000
-22,4,61,1624275807.0,32.000000
-23,5,62,1624275807.0,32.000000
-24,8,58,1624275807.0,32.000000
-25,7,58,1624275807.0,32.000000
-24,5,59,1624275807.0,32.000000
-25,5,59,1624275807.0,32.000000
-25,6,59,1624275807.0,32.000000
-23,8,61,1624275807.0,32.000000
-24,8,60,1624275807.0,32.000000
-26,7,58,1624275807.0,32.000000
-26,6,59,1624275807.0,32.000000
-23,5,60,1624275807.0,32.000000
-24,7,60,1624275807.0,32.000000
-25,7,59,1624275807.0,32.000000
-26,7,59,1624275807.0,32.000000
-25,6,59,1624275807.0,32.000000
-24,5,59,1624275807.0,32.000000
-25,6,59,1624275807.0,32.000000
-25,7,59,1624275807.0,32.000000
-25,6,59,1624275807.0,32.000000
-25,6,59,1624275807.0,32.000000
-24,5,60,1624275807.0,32.000000
-25,6,59,1624275807.0,32.000000
-25,6,59,1624275807.0,32.000000
-26,8,59,1624275807.0,32.000000
-27,8,58,1624275807.0,32.000000
-27,7,58,1624275807.0,32.000000
-26,6,59,1624275807.0,32.000000
-25,6,59,1624275807.0,32.000000
-26,7,59,1624275807.0,32.000000
-27,8,58,1624275807.0,32.000000
-29,8,58,1624275807.0,32.000000
-27,6,58,1624275807.0,32.000000
-26,6,59,1624275807.0,32.000000
-27,6,58,1624275807.0,32.000000
-28,7,58,1624275807.0,32.000000
-28,8,58,1624275807.0,32.000000
-27,7,58,1624275807.0,32.000000
-27,7,58,1624275807.0,32.000000
-27,7,58,1624275807.0,32.000000
-27,7,59,1624275807.0,32.000000
-27,6,59,1624275807.0,32.000000
-27,7,58,1624275807.0,32.000000
-27,7,58,1624275807.0,32.000000
-28,9,58,1624275807.0,32.000000
-28,9,58,1624275807.0,32.000000
-29,6,58,1624275807.0,32.000000
-27,6,59,1624275807.0,32.000000
-27,6,59,1624275807.0,32.000000
-25,6,59,1624275807.0,32.000000
-25,5,58,1624275807.0,32.000000
-27,7,56,1624275807.0,32.000000
-29,8,56,1624275807.0,32.000000
-29,9,57,1624275807.0,32.000000
-30,9,57,1624275807.0,32.000000
-30,8,57,1624275807.0,32.000000
-30,7,57,1624275807.0,32.000000
-30,8,57,1624275807.0,32.000000
-30,8,56,1624275807.0,32.000000
-30,8,55,1624275807.0,32.000000
-31,9,55,1624275807.0,32.000000
-34,10,54,1624275807.0,32.000000
-34,9,54,1624275807.0,32.000000
-32,8,57,1624275807.0,32.000000
-30,6,58,1624275807.0,32.000000
-31,6,57,1624275807.0,32.000000
-33,7,56,1624275807.0,32.000000
-33,7,57,1624275807.0,32.000000
-32,7,56,1624275807.0,32.000000
-31,7,56,1624275807.0,32.000000
-31,8,57,1624275807.0,32.000000
-30,8,56,1624275807.0,32.000000
-31,7,56,1624275807.0,32.000000
-30,7,57,1624275807.0,32.000000
-28,8,57,1624275807.0,32.000000
-26,8,58,1624275807.0,32.000000
-25,9,59,1624275807.0,32.000000
-29,7,64,1624275807.0,32.000000
-27,6,64,1624275807.0,32.000000
-32,6,57,1624275807.0,32.000000
-30,5,51,1624275807.0,32.000000
-30,6,52,1624275807.0,32.000000
-24,8,58,1624275807.0,32.000000
-23,8,58,1624275807.0,32.000000
-27,6,60,1624275807.0,32.000000
-28,5,59,1624275807.0,32.000000
-30,5,59,1624275807.0,32.000000
-30,4,59,1624275807.0,32.000000
-26,6,59,1624275807.0,32.000000
-27,6,60,1624275807.0,32.000000
-27,6,57,1624275807.0,32.000000
-26,7,57,1624275807.0,32.000000
-27,7,57,1624275807.0,32.000000
-27,8,58,1624275807.0,32.000000
-29,8,58,1624275807.0,32.000000
-28,8,57,1624275807.0,32.000000
-28,7,58,1624275807.0,32.000000
-26,6,59,1624275807.0,32.000000
-25,6,59,1624275807.0,32.000000
-27,6,58,1624275807.0,32.000000
-27,7,58,1624275807.0,32.000000
-27,7,59,1624275807.0,32.000000
-26,7,59,1624275807.0,32.000000
-27,7,59,1624275807.0,32.000000
-27,8,58,1624275807.0,32.000000
-27,8,58,1624275807.0,32.000000
-27,7,58,1624275807.0,32.000000
-26,7,58,1624275807.0,32.000000
-27,7,59,1624275807.0,32.000000
-28,7,58,1624275807.0,32.000000
-28,7,58,1624275807.0,32.000000
-26,7,59,1624275807.0,32.000000
-26,7,59,1624275807.0,32.000000
-27,7,59,1624275807.0,32.000000
-28,7,58,1624275807.0,32.000000
-27,8,58,1624275807.0,32.000000
-27,7,58,1624275807.0,32.000000
-27,7,59,1624275807.0,32.000000
-27,7,58,1624275807.0,32.000000
-27,7,59,1624275807.0,32.000000
-27,7,58,1624275807.0,32.000000
-27,7,58,1624275807.0,32.000000
-27,8,58,1624275807.0,32.000000
-28,8,58,1624275807.0,32.000000
-26,7,58,1624275807.0,32.000000
-27,7,58,1624275807.0,32.000000
-25,8,60,1624275807.0,32.000000
-26,7,59,1624275807.0,32.000000
-27,7,59,1624275807.0,32.000000
-27,7,59,1624275807.0,32.000000
-27,7,59,1624275807.0,32.000000
-26,7,58,1624275807.0,32.000000
-26,8,58,1624275807.0,32.000000
-26,7,58,1624275807.0,32.000000
-27,8,58,1624275807.0,32.000000
-27,8,58,1624275807.0,32.000000
-27,8,58,1624275807.0,32.000000
-26,7,58,1624275807.0,32.000000
-26,7,59,1624275807.0,32.000000
-26,7,59,1624275807.0,32.000000
-26,7,59,1624275807.0,32.000000
-26,7,59,1624275807.0,32.000000
-26,8,59,1624275807.0,32.000000
-27,7,58,1624275807.0,32.000000
-27,8,58,1624275807.0,32.000000
-26,7,59,1624275807.0,32.000000
-26,7,59,1624275807.0,32.000000
-25,7,59,1624275807.0,32.000000
-26,6,59,1624275807.0,32.000000
-26,7,58,1624275807.0,32.000000
-26,7,58,1624275807.0,32.000000
-26,7,59,1624275807.0,32.000000
-25,8,59,1624275807.0,32.000000
-25,7,59,1624275807.0,32.000000
-26,6,59,1624275807.0,32.000000
-25,6,59,1624275807.0,32.000000
-25,7,60,1624275807.0,32.000000
-26,8,59,1624275807.0,32.000000
-26,8,58,1624275807.0,32.000000
-26,8,59,1624275807.0,32.000000
-26,7,59,1624275807.0,32.000000
-26,7,59,1624275807.0,32.000000
-26,7,58,1624275807.0,32.000000
-27,7,58,1624275807.0,32.000000
-27,7,58,1624275807.0,32.000000
-26,7,59,1624275807.0,32.000000
-26,7,59,1624275807.0,32.000000
-26,7,59,1624275807.0,32.000000
-27,8,58,1624275807.0,32.000000
-27,8,58,1624275807.0,32.000000
-26,8,58,1624275807.0,32.000000
-26,8,59,1624275807.0,32.000000
-26,7,59,1624275807.0,32.000000
-27,6,59,1624275807.0,32.000000
-28,7,57,1624275807.0,32.000000
-26,8,59,1624275807.0,32.000000
-26,7,59,1624275807.0,32.000000
-26,8,58,1624275807.0,32.000000
-26,7,59,1624275807.0,32.000000
-26,8,59,1624275807.0,32.000000
-26,7,58,1624275807.0,32.000000
-27,7,59,1624275807.0,32.000000
-26,7,58,1624275807.0,32.000000
-26,7,59,1624275807.0,32.000000
-26,7,59,1624275807.0,32.000000
-27,7,58,1624275807.0,32.000000
-27,7,58,1624275807.0,32.000000
-27,7,59,1624275807.0,32.000000
-26,7,59,1624275807.0,32.000000
-26,8,59,1624275807.0,32.000000
-27,8,59,1624275807.0,32.000000
-27,7,58,1624275807.0,32.000000
-26,7,58,1624275807.0,32.000000
-26,7,59,1624275807.0,32.000000
-26,7,59,1624275807.0,32.000000
-27,7,58,1624275807.0,32.000000
-27,7,58,1624275807.0,32.000000
-27,7,58,1624275807.0,32.000000
-26,7,59,1624275807.0,32.000000
-27,8,58,1624275807.0,32.000000
-27,7,58,1624275807.0,32.000000
-27,7,59,1624275807.0,32.000000
-26,7,58,1624275807.0,32.000000
-27,7,59,1624275807.0,32.000000
-27,7,58,1624275807.0,32.000000
-27,7,58,1624275807.0,32.000000
-27,7,58,1624275807.0,32.000000
-27,8,57,1624275807.0,32.000000
-28,9,57,1624275807.0,32.000000
-26,9,58,1624275807.0,32.000000
-26,8,59,1624275807.0,32.000000
-27,7,59,1624275807.0,32.000000
-30,6,58,1624275807.0,32.000000
-28,7,58,1624275807.0,32.000000
-28,7,57,1624275807.0,32.000000
-27,8,58,1624275807.0,32.000000
-27,7,58,1624275807.0,32.000000
-27,7,58,1624275807.0,32.000000
-27,7,59,1624275807.0,32.000000
-27,7,58,1624275807.0,32.000000
-27,7,59,1624275807.0,32.000000
-27,8,58,1624275807.0,32.000000
-28,8,57,1624275807.0,32.000000
-28,8,56,1624275807.0,32.000000
-29,7,58,1624275807.0,32.000000
-28,7,58,1624275807.0,32.000000
-28,7,58,1624275807.0,32.000000
-28,7,58,1624275807.0,32.000000
-28,7,58,1624275807.0,32.000000
-28,7,58,1624275807.0,32.000000
-28,7,58,1624275807.0,32.000000
-28,7,58,1624275807.0,32.000000
-27,7,58,1624275807.0,32.000000
-28,7,58,1624275807.0,32.000000
-28,7,59,1624275807.0,32.000000
-28,7,58,1624275807.0,32.000000
-29,7,58,1624275807.0,32.000000
-29,7,57,1624275807.0,32.000000
-28,7,59,1624275807.0,32.000000
-29,6,58,1624275807.0,32.000000
-29,6,58,1624275807.0,32.000000
-28,6,58,1624275807.0,32.000000
-28,7,58,1624275807.0,32.000000
-29,6,58,1624275807.0,32.000000
-29,6,58,1624275807.0,32.000000
-28,7,58,1624275807.0,32.000000
-28,7,58,1624275807.0,32.000000
-28,7,58,1624275807.0,32.000000
-29,7,58,1624275807.0,32.000000
-28,7,58,1624275807.0,32.000000
-29,7,58,1624275807.0,32.000000
-29,6,58,1624275807.0,32.000000
-29,6,58,1624275807.0,32.000000
-29,6,58,1624275807.0,32.000000
-29,6,58,1624275807.0,32.000000
-28,7,58,1624275807.0,32.000000
-29,7,58,1624275807.0,32.000000
-29,7,57,1624275807.0,32.000000
-29,6,58,1624275807.0,32.000000
-28,6,58,1624275807.0,32.000000
-29,7,58,1624275807.0,32.000000
-28,7,58,1624275807.0,32.000000
-28,7,58,1624275807.0,32.000000
-29,6,58,1624275807.0,32.000000
-28,6,58,1624275807.0,32.000000
-28,7,58,1624275807.0,32.000000
-29,7,58,1624275807.0,32.000000
-29,7,58,1624275807.0,32.000000
-28,6,58,1624275807.0,32.000000
-28,6,58,1624275807.0,32.000000
-29,8,57,1624275807.0,32.000000
-29,7,58,1624275807.0,32.000000
-28,6,58,1624275807.0,32.000000
-28,6,58,1624275807.0,32.000000
-29,7,58,1624275807.0,32.000000
-29,7,58,1624275807.0,32.000000
-28,6,58,1624275807.0,32.000000
-28,6,58,1624275807.0,32.000000
-28,7,58,1624275807.0,32.000000
-28,7,58,1624275807.0,32.000000
-29,7,58,1624275807.0,32.000000
-28,7,58,1624275807.0,32.000000
-29,7,57,1624275807.0,32.000000
-34,5,63,1624275807.0,32.000000
-22,8,51,1624275807.0,32.000000
-20,8,54,1624275807.0,32.000000
-22,4,62,1624275807.0,32.000000
-26,4,56,1624275807.0,32.000000
-30,5,56,1624275807.0,32.000000
-28,8,61,1624275807.0,32.000000
-26,8,60,1624275807.0,32.000000
-27,8,58,1624275807.0,32.000000
-27,7,57,1624275807.0,32.000000
-28,6,58,1624275807.0,32.000000
-26,6,59,1624275807.0,32.000000
-26,6,59,1624275807.0,32.000000
-27,6,59,1624275807.0,32.000000
-27,6,59,1624275807.0,32.000000
-26,6,59,1624275807.0,32.000000
-25,6,60,1624275807.0,32.000000
-27,6,59,1624275807.0,32.000000
-27,6,58,1624275807.0,32.000000
-26,7,59,1624275807.0,32.000000
-27,7,59,1624275807.0,32.000000
-27,7,58,1624275807.0,32.000000
-27,7,58,1624275807.0,32.000000
-27,6,59,1624275807.0,32.000000
-27,7,59,1624275807.0,32.000000
-28,7,57,1624275807.0,32.000000
-27,6,58,1624275807.0,32.000000
-26,6,58,1624275807.0,32.000000
-27,7,59,1624275807.0,32.000000
-27,7,58,1624275807.0,32.000000
-27,7,58,1624275807.0,32.000000
-26,6,59,1624275807.0,32.000000
-26,7,59,1624275807.0,32.000000
-27,7,59,1624275807.0,32.000000
-27,6,58,1624275807.0,32.000000
-28,7,58,1624275807.0,32.000000
-27,7,58,1624275807.0,32.000000
-27,6,59,1624275807.0,32.000000
-27,7,58,1624275807.0,32.000000
-28,7,58,1624275807.0,32.000000
-27,6,58,1624275807.0,32.000000
-27,7,58,1624275807.0,32.000000
-27,7,58,1624275807.0,32.000000
-27,7,58,1624275807.0,32.000000
-27,6,58,1624275807.0,32.000000
-27,6,58,1624275807.0,32.000000
-27,7,58,1624275807.0,32.000000
-27,7,59,1624275807.0,32.000000
-27,7,58,1624275807.0,32.000000
-27,7,58,1624275807.0,32.000000
-27,6,58,1624275807.0,32.000000
-27,6,59,1624275807.0,32.000000
-27,6,59,1624275807.0,32.000000
-27,6,58,1624275807.0,32.000000
-27,6,58,1624275807.0,32.000000
-27,6,59,1624275807.0,32.000000
-27,6,59,1624275807.0,32.000000
-27,7,59,1624275807.0,32.000000
-29,6,61,1624275807.0,32.000000
-30,6,64,1624275807.0,32.000000
-25,8,55,1624275807.0,32.000000
-27,6,53,1624275807.0,32.000000
-27,3,57,1624275807.0,32.000000
-23,5,55,1624275807.0,32.000000
-25,5,55,1624275807.0,32.000000
-26,7,63,1624275807.0,32.000000
-25,9,60,1624275807.0,32.000000
-28,7,60,1624275807.0,32.000000
-27,7,57,1624275807.0,32.000000
-27,5,59,1624275807.0,32.000000
-26,6,59,1624275807.0,32.000000
-27,6,59,1624275807.0,32.000000
-27,6,59,1624275807.0,32.000000
-26,6,59,1624275807.0,32.000000
-27,6,58,1624275807.0,32.000000
-26,7,58,1624275807.0,32.000000
-27,6,58,1624275807.0,32.000000
-26,7,58,1624275807.0,32.000000
-26,7,59,1624275807.0,32.000000
-27,7,59,1624275807.0,32.000000
-27,6,59,1624275807.0,32.000000
-26,6,59,1624275807.0,32.000000
-27,6,59,1624275807.0,32.000000
-27,7,58,1624275807.0,32.000000
-27,6,58,1624275807.0,32.000000
-27,7,58,1624275807.0,32.000000
-27,6,59,1624275807.0,32.000000
-27,6,59,1624275807.0,32.000000
-27,7,58,1624275807.0,32.000000
-26,7,59,1624275807.0,32.000000
-26,7,59,1624275807.0,32.000000
-27,6,59,1624275807.0,32.000000
-27,6,59,1624275807.0,32.000000
-27,6,58,1624275807.0,32.000000
-27,7,58,1624275807.0,32.000000
-27,7,58,1624275807.0,32.000000
-27,7,58,1624275807.0,32.000000
-27,7,58,1624275807.0,32.000000
-26,6,59,1624275807.0,32.000000
-27,6,58,1624275807.0,32.000000
-27,6,58,1624275807.0,32.000000
-27,7,58,1624275807.0,32.000000
-27,7,58,1624275807.0,32.000000
-27,7,58,1624275807.0,32.000000
-26,6,59,1624275807.0,32.000000
-26,6,59,1624275807.0,32.000000
-28,6,59,1624275807.0,32.000000
-28,6,58,1624275807.0,32.000000
-27,6,58,1624275807.0,32.000000
-27,7,58,1624275807.0,32.000000
-27,7,58,1624275807.0,32.000000
-27,7,58,1624275807.0,32.000000
-27,6,59,1624275807.0,32.000000
-27,6,59,1624275807.0,32.000000
-27,6,59,1624275807.0,32.000000
-28,6,58,1624275807.0,32.000000
-27,6,58,1624275807.0,32.000000
-27,7,58,1624275807.0,32.000000
-26,7,58,1624275807.0,32.000000
-27,7,59,1624275807.0,32.000000
-30,7,60,1624275807.0,32.000000
-29,7,66,1624275807.0,32.000000
-22,9,59,1624275807.0,32.000000
-27,9,50,1624275807.0,32.000000
-28,2,56,1624275807.0,32.000000
-25,3,54,1624275807.0,32.000000
-22,4,61,1624275807.0,32.000000
-23,8,66,1624275807.0,32.000000
-25,9,62,1624275807.0,32.000000
-30,8,58,1624275807.0,32.000000
-30,7,58,1624275807.0,32.000000
-25,6,58,1624275807.0,32.000000
-27,6,58,1624275807.0,32.000000
-26,6,58,1624275807.0,32.000000
-26,5,59,1624275807.0,32.000000
-27,5,59,1624275807.0,32.000000
-26,6,59,1624275807.0,32.000000
-27,6,59,1624275807.0,32.000000
-28,6,58,1624275807.0,32.000000
-26,7,58,1624275807.0,32.000000
-26,8,58,1624275807.0,32.000000
-26,7,59,1624275807.0,32.000000
-27,7,58,1624275807.0,32.000000
-27,6,59,1624275807.0,32.000000
-27,6,59,1624275807.0,32.000000
-27,6,59,1624275807.0,32.000000
-27,7,58,1624275807.0,32.000000
-27,7,58,1624275807.0,32.000000
-27,7,58,1624275807.0,32.000000
-27,7,58,1624275807.0,32.000000
-27,7,58,1624275807.0,32.000000
-27,6,59,1624275807.0,32.000000
-27,6,59,1624275807.0,32.000000
-27,7,59,1624275807.0,32.000000
-27,7,58,1624275807.0,32.000000
-27,7,58,1624275807.0,32.000000
-27,6,59,1624275807.0,32.000000
-27,6,59,1624275807.0,32.000000
-27,6,59,1624275807.0,32.000000
-27,7,58,1624275807.0,32.000000
-27,6,58,1624275807.0,32.000000
-27,6,58,1624275807.0,32.000000
-27,7,59,1624275807.0,32.000000
-27,6,59,1624275807.0,32.000000
-26,7,58,1624275807.0,32.000000
-27,6,59,1624275807.0,32.000000
-27,7,58,1624275807.0,32.000000
-27,7,58,1624275807.0,32.000000
-27,7,59,1624275807.0,32.000000
-27,6,58,1624275807.0,32.000000
-27,6,58,1624275807.0,32.000000
-27,6,58,1624275807.0,32.000000
-27,7,59,1624275807.0,32.000000
-27,7,59,1624275807.0,32.000000
-27,7,58,1624275807.0,32.000000
-27,7,58,1624275807.0,32.000000
-27,7,59,1624275807.0,32.000000
-27,7,58,1624275807.0,32.000000
-28,6,58,1624275807.0,32.000000
-27,7,58,1624275807.0,32.000000
-27,6,58,1624275807.0,32.000000
-27,6,59,1624275807.0,32.000000
-27,7,58,1624275807.0,32.000000
-28,7,59,1624275807.0,32.000000
-27,6,61,1624275807.0,32.000000
-28,8,60,1624275807.0,32.000000
-31,7,59,1624275807.0,32.000000
-22,7,53,1624275807.0,32.000000
-23,5,57,1624275807.0,32.000000
-22,4,56,1624275807.0,32.000000
-23,5,52,1624275807.0,32.000000
-26,6,62,1624275807.0,32.000000
-25,10,62,1624275807.0,32.000000
-28,9,60,1624275807.0,32.000000
-29,7,58,1624275807.0,32.000000
-29,6,57,1624275807.0,32.000000
-27,6,59,1624275807.0,32.000000
-27,6,58,1624275807.0,32.000000
-28,7,58,1624275807.0,32.000000
-28,6,58,1624275807.0,32.000000
-27,6,58,1624275807.0,32.000000
-27,6,58,1624275807.0,32.000000
-27,7,59,1624275807.0,32.000000
-27,7,59,1624275807.0,32.000000
-26,7,59,1624275807.0,32.000000
-26,7,59,1624275807.0,32.000000
-26,6,59,1624275807.0,32.000000
-27,6,58,1624275807.0,32.000000
-26,6,59,1624275807.0,32.000000
-27,6,58,1624275807.0,32.000000
-27,6,58,1624275807.0,32.000000
-27,6,59,1624275807.0,32.000000
-27,6,58,1624275807.0,32.000000
-27,6,59,1624275807.0,32.000000
-27,6,59,1624275807.0,32.000000
-27,7,59,1624275807.0,32.000000
-27,6,59,1624275807.0,32.000000
-27,6,58,1624275807.0,32.000000
-27,6,59,1624275807.0,32.000000
-26,6,59,1624275807.0,32.000000
-27,6,59,1624275807.0,32.000000
-27,6,58,1624275807.0,32.000000
-27,6,59,1624275807.0,32.000000
-27,6,58,1624275807.0,32.000000
-27,6,59,1624275807.0,32.000000
-26,6,59,1624275807.0,32.000000
-27,6,58,1624275807.0,32.000000
-27,6,58,1624275807.0,32.000000
-27,6,59,1624275807.0,32.000000
-27,6,58,1624275807.0,32.000000
-27,6,58,1624275807.0,32.000000
-27,6,59,1624275807.0,32.000000
-27,6,58,1624275807.0,32.000000
-27,6,59,1624275807.0,32.000000
-27,6,58,1624275807.0,32.000000
-27,6,58,1624275807.0,32.000000
-27,6,59,1624275807.0,32.000000
-27,6,58,1624275807.0,32.000000
-26,6,59,1624275807.0,32.000000
-27,7,58,1624275807.0,32.000000
-27,6,59,1624275807.0,32.000000
-26,6,59,1624275807.0,32.000000
-27,6,59,1624275807.0,32.000000
-28,6,59,1624275807.0,32.000000
-27,6,59,1624275807.0,32.000000
-26,6,58,1624275807.0,32.000000
-27,6,58,1624275807.0,32.000000
-29,7,60,1624275807.0,32.000000
-30,5,64,1624275807.0,32.000000
-27,8,60,1624275807.0,32.000000
-24,8,52,1624275807.0,32.000000
-25,6,56,1624275807.0,32.000000
-21,4,59,1624275807.0,32.000000
-21,5,56,1624275807.0,32.000000
-24,5,59,1624275807.0,32.000000
-25,8,63,1624275807.0,32.000000
-27,9,61,1624275807.0,32.000000
-28,8,58,1624275807.0,32.000000
-29,7,58,1624275807.0,32.000000
-26,6,59,1624275807.0,32.000000
-26,6,59,1624275807.0,32.000000
-25,6,59,1624275807.0,32.000000
-26,6,59,1624275807.0,32.000000
-26,6,59,1624275807.0,32.000000
-26,7,59,1624275807.0,32.000000
-26,7,58,1624275807.0,32.000000
-27,7,59,1624275807.0,32.000000
-26,7,59,1624275807.0,32.000000
-26,6,59,1624275807.0,32.000000
-26,6,59,1624275807.0,32.000000
-27,6,58,1624275807.0,32.000000
-26,6,59,1624275807.0,32.000000
-27,6,59,1624275807.0,32.000000
-26,6,59,1624275807.0,32.000000
-25,7,59,1624275807.0,32.000000
-27,7,58,1624275807.0,32.000000
-26,6,59,1624275807.0,32.000000
-26,6,59,1624275807.0,32.000000
-26,6,59,1624275807.0,32.000000
-26,6,59,1624275807.0,32.000000
-26,7,58,1624275807.0,32.000000
-26,7,58,1624275807.0,32.000000
-26,6,59,1624275807.0,32.000000
-27,6,59,1624275807.0,32.000000
-26,6,59,1624275807.0,32.000000
-27,6,59,1624275807.0,32.000000
-26,7,58,1624275807.0,32.000000
-26,7,59,1624275807.0,32.000000
-25,7,59,1624275807.0,32.000000
-26,7,59,1624275807.0,32.000000
-27,6,59,1624275807.0,32.000000
-26,6,58,1624275807.0,32.000000
-26,6,59,1624275807.0,32.000000
-26,7,59,1624275807.0,32.000000
-26,7,58,1624275807.0,32.000000
-26,7,58,1624275807.0,32.000000
-26,6,59,1624275807.0,32.000000
-26,6,59,1624275807.0,32.000000
-27,6,59,1624275807.0,32.000000
-26,6,59,1624275807.0,32.000000
-26,6,59,1624275807.0,32.000000
-26,6,58,1624275807.0,32.000000
-26,6,58,1624275807.0,32.000000
-27,6,58,1624275807.0,32.000000
-26,6,59,1624275807.0,32.000000
-26,6,59,1624275807.0,32.000000
-26,6,59,1624275807.0,32.000000
-26,6,59,1624275807.0,32.000000
-27,6,60,1624275807.0,32.000000
-26,6,59,1624275807.0,32.000000
-26,6,59,1624275807.0,32.000000
-25,6,59,1624275807.0,32.000000
-25,6,57,1624275807.0,32.000000
-25,6,59,1624275807.0,32.000000
-26,6,58,1624275807.0,32.000000
-31,5,67,1624275807.0,32.000000
-31,7,68,1624275807.0,32.000000
-22,10,49,1624275807.0,32.000000
-23,1,57,1624275807.0,32.000000
-17,0,58,1624275807.0,32.000000
-25,6,57,1624275807.0,32.000000
-29,7,65,1624275807.0,32.000000
-26,10,64,1624275807.0,32.000000
-27,9,56,1624275807.0,32.000000
-27,7,56,1624275807.0,32.000000
-30,3,56,1624275807.0,32.000000
-27,6,62,1624275807.0,32.000000
-25,7,57,1624275807.0,32.000000
-27,7,59,1624275807.0,32.000000
-27,7,58,1624275807.0,32.000000
-26,6,60,1624275807.0,32.000000
-26,6,59,1624275807.0,32.000000
-26,6,59,1624275807.0,32.000000
-26,7,59,1624275807.0,32.000000
-25,7,59,1624275807.0,32.000000
-26,6,59,1624275807.0,32.000000
-26,6,59,1624275807.0,32.000000
-26,6,59,1624275807.0,32.000000
-27,6,59,1624275807.0,32.000000
-27,7,58,1624275807.0,32.000000
-27,7,58,1624275807.0,32.000000
-26,7,59,1624275807.0,32.000000
-26,6,59,1624275807.0,32.000000
-26,6,59,1624275807.0,32.000000
-26,6,59,1624275807.0,32.000000
-26,6,58,1624275807.0,32.000000
-26,7,58,1624275807.0,32.000000
-26,7,59,1624275807.0,32.000000
-26,7,58,1624275807.0,32.000000
-26,7,59,1624275807.0,32.000000
-27,6,59,1624275807.0,32.000000
-27,5,59,1624275807.0,32.000000
-26,5,59,1624275807.0,32.000000
-27,7,59,1624275807.0,32.000000
-26,7,59,1624275807.0,32.000000
-26,8,58,1624275807.0,32.000000
-26,7,58,1624275807.0,32.000000
-26,6,59,1624275807.0,32.000000
-27,6,59,1624275807.0,32.000000
-27,6,60,1624275807.0,32.000000
-27,7,58,1624275807.0,32.000000
-27,7,58,1624275807.0,32.000000
-26,7,58,1624275807.0,32.000000
-26,7,59,1624275807.0,32.000000
-26,7,58,1624275807.0,32.000000
-27,6,59,1624275807.0,32.000000
-26,6,59,1624275807.0,32.000000
-26,6,59,1624275807.0,32.000000
-26,7,59,1624275807.0,32.000000
-26,7,58,1624275807.0,32.000000
-26,6,59,1624275807.0,32.000000
-27,6,59,1624275807.0,32.000000
-27,6,59,1624275807.0,32.000000
-26,6,58,1624275807.0,32.000000
-26,6,59,1624275807.0,32.000000
-26,7,59,1624275807.0,32.000000
-26,6,59,1624275807.0,32.000000
-26,6,59,1624275807.0,32.000000
-26,6,59,1624275807.0,32.000000
-27,6,58,1624275807.0,32.000000
-32,6,64,1624275807.0,32.000000
-33,7,60,1624275807.0,32.000000
-20,9,56,1624275807.0,32.000000
-22,4,56,1624275807.0,32.000000
-18,5,60,1624275807.0,32.000000
-27,6,53,1624275807.0,32.000000
-30,7,61,1624275807.0,32.000000
-29,8,64,1624275807.0,32.000000
-23,7,59,1624275807.0,32.000000
-26,6,59,1624275807.0,32.000000
-26,5,58,1624275807.0,32.000000
-25,5,60,1624275807.0,32.000000
-25,6,59,1624275807.0,32.000000
-26,6,59,1624275807.0,32.000000
-27,6,59,1624275807.0,32.000000
-25,6,59,1624275807.0,32.000000
-26,6,59,1624275807.0,32.000000
-26,6,59,1624275807.0,32.000000
-26,6,59,1624275807.0,32.000000
-26,6,59,1624275807.0,32.000000
-26,6,59,1624275807.0,32.000000
-26,6,59,1624275807.0,32.000000
-26,6,59,1624275807.0,32.000000
-26,6,59,1624275807.0,32.000000
-26,6,59,1624275807.0,32.000000
-26,6,59,1624275807.0,32.000000
-26,6,59,1624275807.0,32.000000
-26,6,59,1624275807.0,32.000000
-26,6,59,1624275807.0,32.000000
-26,6,59,1624275807.0,32.000000
-26,6,59,1624275807.0,32.000000
-26,6,59,1624275807.0,32.000000
-26,6,59,1624275807.0,32.000000
-26,6,59,1624275807.0,32.000000
-26,6,59,1624275807.0,32.000000
-26,6,58,1624275807.0,32.000000
-26,6,59,1624275807.0,32.000000
-26,6,59,1624275807.0,32.000000
-26,6,59,1624275807.0,32.000000
-26,6,59,1624275807.0,32.000000
-26,6,59,1624275807.0,32.000000
-26,6,59,1624275807.0,32.000000
-26,6,59,1624275807.0,32.000000
-26,6,59,1624275807.0,32.000000
-26,6,59,1624275807.0,32.000000
-26,6,59,1624275807.0,32.000000
-26,6,59,1624275807.0,32.000000
-26,6,59,1624275807.0,32.000000
-26,6,59,1624275807.0,32.000000
-26,6,59,1624275807.0,32.000000
-26,6,59,1624275807.0,32.000000
-26,6,59,1624275807.0,32.000000
-26,6,59,1624275807.0,32.000000
-26,6,59,1624275807.0,32.000000
-27,6,59,1624275807.0,32.000000
-27,6,60,1624275807.0,32.000000
-30,5,63,1624275807.0,32.000000
-29,5,63,1624275807.0,32.000000
-19,7,55,1624275807.0,32.000000
-28,6,53,1624275807.0,32.000000
-26,6,55,1624275807.0,32.000000
-24,8,56,1624275807.0,32.000000
-25,8,60,1624275807.0,32.000000
-27,7,62,1624275807.0,32.000000
-24,7,58,1624275807.0,32.000000
-27,5,59,1624275807.0,32.000000
-26,5,59,1624275807.0,32.000000
-26,5,59,1624275807.0,32.000000
-26,6,59,1624275807.0,32.000000
-26,6,59,1624275807.0,32.000000
-25,6,59,1624275807.0,32.000000
-26,6,59,1624275807.0,32.000000
-26,6,59,1624275807.0,32.000000
-26,6,59,1624275807.0,32.000000
-26,6,59,1624275807.0,32.000000
-26,6,59,1624275807.0,32.000000
-26,6,59,1624275807.0,32.000000
-26,6,59,1624275807.0,32.000000
-26,6,59,1624275807.0,32.000000
-26,6,59,1624275807.0,32.000000
-26,6,59,1624275807.0,32.000000
-26,6,59,1624275807.0,32.000000
-26,5,59,1624275807.0,32.000000
-26,6,59,1624275807.0,32.000000
-26,6,59,1624275807.0,32.000000
-26,7,59,1624275807.0,32.000000
-26,6,59,1624275807.0,32.000000
-26,6,59,1624275807.0,32.000000
-26,5,59,1624275807.0,32.000000
-26,6,59,1624275807.0,32.000000
-26,6,59,1624275807.0,32.000000
-25,6,59,1624275807.0,32.000000
-25,6,59,1624275807.0,32.000000
-26,6,59,1624275807.0,32.000000
-26,6,59,1624275807.0,32.000000
-26,6,59,1624275807.0,32.000000
-26,6,59,1624275807.0,32.000000
-26,6,59,1624275807.0,32.000000
-26,6,59,1624275807.0,32.000000
-26,6,59,1624275807.0,32.000000
-26,6,59,1624275807.0,32.000000
-26,6,59,1624275807.0,32.000000
-26,6,59,1624275807.0,32.000000
-26,6,59,1624275807.0,32.000000
-26,6,59,1624275807.0,32.000000
-26,6,59,1624275807.0,32.000000
-25,6,59,1624275807.0,32.000000
-26,6,59,1624275807.0,32.000000
-26,6,59,1624275807.0,32.000000
-25,6,59,1624275807.0,32.000000
-26,6,59,1624275807.0,32.000000
-26,6,59,1624275807.0,32.000000
-25,6,59,1624275807.0,32.000000
-27,6,60,1624275807.0,32.000000
-29,5,62,1624275807.0,32.000000
-26,7,62,1624275807.0,32.000000
-22,7,54,1624275807.0,32.000000
-26,5,54,1624275807.0,32.000000
-25,5,56,1624275807.0,32.000000
-23,7,60,1624275807.0,32.000000
-25,7,62,1624275807.0,32.000000
-26,7,60,1624275807.0,32.000000
-26,6,58,1624275807.0,32.000000
-26,5,59,1624275807.0,32.000000
-26,5,59,1624275807.0,32.000000
-26,6,59,1624275807.0,32.000000
-26,6,59,1624275807.0,32.000000
-26,6,59,1624275807.0,32.000000
-26,6,59,1624275807.0,32.000000
-26,6,59,1624275807.0,32.000000
-26,6,59,1624275807.0,32.000000
-26,6,59,1624275807.0,32.000000
-26,6,59,1624275807.0,32.000000
-26,5,59,1624275807.0,32.000000
-26,6,59,1624275807.0,32.000000
-27,6,59,1624275807.0,32.000000
-26,6,59,1624275807.0,32.000000
-26,6,59,1624275807.0,32.000000
-26,5,59,1624275807.0,32.000000
-26,6,59,1624275807.0,32.000000
-26,6,59,1624275807.0,32.000000
-26,6,59,1624275807.0,32.000000
-26,6,59,1624275807.0,32.000000
-26,6,59,1624275807.0,32.000000
-26,6,59,1624275807.0,32.000000
-26,5,59,1624275807.0,32.000000
-26,6,59,1624275807.0,32.000000
-26,6,59,1624275807.0,32.000000
-26,6,59,1624275807.0,32.000000
-25,6,59,1624275807.0,32.000000
-26,6,59,1624275807.0,32.000000
-26,6,59,1624275807.0,32.000000
-26,6,59,1624275807.0,32.000000
-26,6,59,1624275807.0,32.000000
-26,6,59,1624275807.0,32.000000
-26,6,59,1624275807.0,32.000000
-25,6,59,1624275807.0,32.000000
-26,6,59,1624275807.0,32.000000
-26,6,59,1624275807.0,32.000000
-26,6,59,1624275807.0,32.000000
-26,6,59,1624275807.0,32.000000
-25,6,59,1624275807.0,32.000000
-26,6,59,1624275807.0,32.000000
-26,6,59,1624275807.0,32.000000
-26,6,59,1624275807.0,32.000000
-26,6,59,1624275807.0,32.000000
-26,6,59,1624275807.0,32.000000
-26,6,59,1624275807.0,32.000000
-26,6,59,1624275807.0,32.000000
-26,6,59,1624275807.0,32.000000
-26,6,59,1624275807.0,32.000000
-26,6,59,1624275807.0,32.000000
-25,6,59,1624275807.0,32.000000
-25,6,59,1624275807.0,32.000000
-26,6,59,1624275807.0,32.000000
-26,6,59,1624275807.0,32.000000
-26,6,59,1624275807.0,32.000000
-26,5,59,1624275807.0,32.000000
-26,6,59,1624275807.0,32.000000
-26,6,59,1624275807.0,32.000000
-26,6,59,1624275807.0,32.000000
-25,6,59,1624275807.0,32.000000
-26,6,59,1624275807.0,32.000000
-26,6,59,1624275807.0,32.000000
-26,6,59,1624275807.0,32.000000
-26,6,60,1624275807.0,32.000000
-30,5,64,1624275807.0,32.000000
-26,6,60,1624275807.0,32.000000
-19,8,53,1624275807.0,32.000000
-24,6,55,1624275807.0,32.000000
-24,6,57,1624275807.0,32.000000
-23,7,57,1624275807.0,32.000000
-27,7,63,1624275807.0,32.000000
-26,6,63,1624275807.0,32.000000
-24,6,59,1624275807.0,32.000000
-27,4,59,1624275807.0,32.000000
-26,5,59,1624275807.0,32.000000
-26,6,59,1624275807.0,32.000000
-26,6,59,1624275807.0,32.000000
-26,6,59,1624275807.0,32.000000
-26,6,59,1624275807.0,32.000000
-26,5,59,1624275807.0,32.000000
-25,6,59,1624275807.0,32.000000
-26,5,59,1624275807.0,32.000000
-26,6,59,1624275807.0,32.000000
-26,6,59,1624275807.0,32.000000
-26,6,59,1624275807.0,32.000000
-26,6,59,1624275807.0,32.000000
-26,6,59,1624275807.0,32.000000
-26,6,59,1624275807.0,32.000000
-26,6,59,1624275807.0,32.000000
-26,6,59,1624275807.0,32.000000
-25,6,59,1624275807.0,32.000000
-26,6,59,1624275807.0,32.000000
-25,6,59,1624275807.0,32.000000
-26,6,59,1624275807.0,32.000000
-26,6,59,1624275807.0,32.000000
-25,6,59,1624275807.0,32.000000
-26,6,59,1624275807.0,32.000000
-26,6,59,1624275807.0,32.000000
-25,6,59,1624275807.0,32.000000
-25,6,59,1624275807.0,32.000000
-25,6,59,1624275807.0,32.000000
-26,6,59,1624275807.0,32.000000
-26,6,59,1624275807.0,32.000000
-26,6,59,1624275807.0,32.000000
-25,6,59,1624275807.0,32.000000
-26,6,59,1624275807.0,32.000000
-26,6,59,1624275807.0,32.000000
-26,6,59,1624275807.0,32.000000
-25,6,59,1624275807.0,32.000000
-26,6,59,1624275807.0,32.000000
-26,6,59,1624275807.0,32.000000
-26,6,59,1624275807.0,32.000000
-26,6,59,1624275807.0,32.000000
-25,5,59,1624275807.0,32.000000
-28,5,63,1624275807.0,32.000000
-28,7,60,1624275807.0,32.000000
-20,8,55,1624275807.0,32.000000
-26,6,54,1624275807.0,32.000000
-26,6,54,1624275807.0,32.000000
-25,7,57,1624275807.0,32.000000
-24,7,61,1624275807.0,32.000000
-26,6,62,1624275807.0,32.000000
-25,6,61,1624275807.0,32.000000
-27,5,59,1624275807.0,32.000000
-26,5,60,1624275807.0,32.000000
-26,5,59,1624275807.0,32.000000
-26,6,59,1624275807.0,32.000000
-25,6,59,1624275807.0,32.000000
-26,6,59,1624275807.0,32.000000
-26,6,59,1624275807.0,32.000000
-26,6,59,1624275807.0,32.000000
-25,6,59,1624275807.0,32.000000
-26,6,59,1624275807.0,32.000000
-25,6,59,1624275807.0,32.000000
-26,6,59,1624275807.0,32.000000
-26,6,59,1624275807.0,32.000000
-26,6,59,1624275807.0,32.000000
-26,6,59,1624275807.0,32.000000
-25,6,59,1624275807.0,32.000000
-25,6,59,1624275807.0,32.000000
-26,6,59,1624275807.0,32.000000
-25,6,59,1624275807.0,32.000000
-25,6,59,1624275807.0,32.000000
-25,6,59,1624275807.0,32.000000
-26,6,59,1624275807.0,32.000000
-25,6,59,1624275807.0,32.000000
-26,6,59,1624275807.0,32.000000
-26,6,59,1624275807.0,32.000000
-26,6,59,1624275807.0,32.000000
-26,6,59,1624275807.0,32.000000
-26,6,59,1624275807.0,32.000000
-25,6,59,1624275807.0,32.000000
-26,6,59,1624275807.0,32.000000
-26,6,59,1624275807.0,32.000000
-26,6,59,1624275807.0,32.000000
-26,6,59,1624275807.0,32.000000
-26,6,59,1624275807.0,32.000000
-25,6,59,1624275807.0,32.000000
-26,6,59,1624275807.0,32.000000
-26,6,59,1624275807.0,32.000000
-25,6,59,1624275807.0,32.000000
-26,6,59,1624275807.0,32.000000
-26,6,59,1624275807.0,32.000000
-25,6,59,1624275807.0,32.000000
-25,6,59,1624275807.0,32.000000
-26,6,59,1624275807.0,32.000000
-25,6,59,1624275807.0,32.000000
-26,6,59,1624275807.0,32.000000
-26,6,59,1624275807.0,32.000000
-25,6,59,1624275807.0,32.000000
-25,6,59,1624275807.0,32.000000
-26,6,60,1624275807.0,32.000000
-27,5,62,1624275807.0,32.000000
-24,7,57,1624275807.0,32.000000
-25,6,57,1624275807.0,32.000000
-25,6,57,1624275807.0,32.000000
-25,6,59,1624275807.0,32.000000
-25,6,59,1624275807.0,32.000000
-26,6,60,1624275807.0,32.000000
-26,6,59,1624275807.0,32.000000
-25,6,60,1624275807.0,32.000000
-26,6,59,1624275807.0,32.000000
-26,6,59,1624275807.0,32.000000
-25,6,59,1624275807.0,32.000000
-26,6,59,1624275807.0,32.000000
-26,6,59,1624275807.0,32.000000
-25,6,59,1624275807.0,32.000000
-25,6,59,1624275807.0,32.000000
-26,6,59,1624275807.0,32.000000
-25,6,59,1624275807.0,32.000000
-25,6,59,1624275807.0,32.000000
-25,6,59,1624275807.0,32.000000
-25,6,59,1624275807.0,32.000000
-25,6,59,1624275807.0,32.000000
-25,6,59,1624275807.0,32.000000
-26,6,59,1624275807.0,32.000000
-26,6,59,1624275807.0,32.000000
-26,6,59,1624275807.0,32.000000
-26,5,59,1624275807.0,32.000000
-26,6,59,1624275807.0,32.000000
-26,6,59,1624275807.0,32.000000
-26,6,59,1624275807.0,32.000000
-25,6,59,1624275807.0,32.000000
-26,6,59,1624275807.0,32.000000
-25,6,59,1624275807.0,32.000000
-25,6,59,1624275807.0,32.000000
-26,6,59,1624275807.0,32.000000
-25,6,59,1624275807.0,32.000000
-26,6,59,1624275807.0,32.000000
-26,5,59,1624275807.0,32.000000
-25,6,59,1624275807.0,32.000000
-25,6,59,1624275807.0,32.000000
-25,6,59,1624275807.0,32.000000
-26,6,59,1624275807.0,32.000000
-26,6,59,1624275807.0,32.000000
-25,6,59,1624275807.0,32.000000
-25,6,59,1624275807.0,32.000000
-25,6,59,1624275807.0,32.000000
-26,6,59,1624275807.0,32.000000
-25,6,59,1624275807.0,32.000000
-26,6,59,1624275807.0,32.000000
-25,6,59,1624275807.0,32.000000
-25,6,59,1624275807.0,32.000000
-26,6,59,1624275807.0,32.000000
-26,5,59,1624275807.0,32.000000
-26,5,59,1624275807.0,32.000000
-26,6,59,1624275807.0,32.000000
-26,6,59,1624275807.0,32.000000
-26,6,59,1624275807.0,32.000000
-25,5,59,1624275807.0,32.000000
-26,5,59,1624275807.0,32.000000
-26,6,59,1624275807.0,32.000000
-26,6,59,1624275807.0,32.000000
-26,6,59,1624275807.0,32.000000
-26,5,59,1624275807.0,32.000000
-26,5,59,1624275807.0,32.000000
-26,6,59,1624275807.0,32.000000
-26,6,59,1624275807.0,32.000000
-26,6,59,1624275807.0,32.000000
-25,6,59,1624275807.0,32.000000
-25,6,59,1624275807.0,32.000000
-26,6,59,1624275807.0,32.000000
-25,6,59,1624275807.0,32.000000
-26,6,59,1624275807.0,32.000000
-26,6,59,1624275807.0,32.000000
-26,6,59,1624275807.0,32.000000
-26,6,59,1624275807.0,32.000000
-26,6,60,1624275807.0,32.000000
-26,5,61,1624275807.0,32.000000
-27,6,61,1624275807.0,32.000000
-27,7,59,1624275807.0,32.000000
-26,6,55,1624275807.0,32.000000
-23,6,58,1624275807.0,32.000000
-23,6,58,1624275807.0,32.000000
-25,6,59,1624275807.0,32.000000
-25,6,60,1624275807.0,32.000000
-27,6,59,1624275807.0,32.000000
-27,7,58,1624275807.0,32.000000
-27,6,60,1624275807.0,32.000000
-25,6,60,1624275807.0,32.000000
-25,5,59,1624275807.0,32.000000
-26,6,59,1624275807.0,32.000000
-26,6,59,1624275807.0,32.000000
-26,6,59,1624275807.0,32.000000
-26,6,59,1624275807.0,32.000000
-25,6,59,1624275807.0,32.000000
-25,5,59,1624275807.0,32.000000
-25,6,59,1624275807.0,32.000000
-26,6,59,1624275807.0,32.000000
-26,6,59,1624275807.0,32.000000
-25,6,59,1624275807.0,32.000000
-26,6,59,1624275807.0,32.000000
-26,5,59,1624275807.0,32.000000
-26,5,59,1624275807.0,32.000000
-26,5,59,1624275807.0,32.000000
-26,5,59,1624275807.0,32.000000
-25,6,59,1624275807.0,32.000000
-26,6,59,1624275807.0,32.000000
-26,6,59,1624275807.0,32.000000
-26,5,59,1624275807.0,32.000000
-26,5,59,1624275807.0,32.000000
-26,6,59,1624275807.0,32.000000
-25,6,59,1624275807.0,32.000000
-25,6,59,1624275807.0,32.000000
-25,6,59,1624275807.0,32.000000
-26,5,59,1624275807.0,32.000000
-26,5,59,1624275807.0,32.000000
-26,5,59,1624275807.0,32.000000
-26,5,59,1624275807.0,32.000000
-25,6,59,1624275807.0,32.000000
-25,6,59,1624275807.0,32.000000
-26,5,59,1624275807.0,32.000000
-26,5,59,1624275807.0,32.000000
-26,5,59,1624275807.0,32.000000
-26,5,59,1624275807.0,32.000000
-26,5,59,1624275807.0,32.000000
-26,6,58,1624275807.0,32.000000
-25,6,59,1624275807.0,32.000000
-26,5,59,1624275807.0,32.000000
-26,5,59,1624275807.0,32.000000
-26,5,59,1624275807.0,32.000000
-25,5,59,1624275807.0,32.000000
-26,5,58,1624275807.0,32.000000
-26,6,59,1624275807.0,32.000000
-26,6,60,1624275807.0,32.000000
-28,5,61,1624275807.0,32.000000
-25,6,59,1624275807.0,32.000000
-25,6,56,1624275807.0,32.000000
-27,4,57,1624275807.0,32.000000
-23,6,58,1624275807.0,32.000000
-25,6,58,1624275807.0,32.000000
-26,6,58,1624275807.0,32.000000
-25,6,61,1624275807.0,32.000000
-26,6,60,1624275807.0,32.000000
-27,5,59,1624275807.0,32.000000
-26,5,59,1624275807.0,32.000000
-25,5,59,1624275807.0,32.000000
-26,6,59,1624275807.0,32.000000
-26,6,59,1624275807.0,32.000000
-26,6,58,1624275807.0,32.000000
-26,5,59,1624275807.0,32.000000
-26,5,59,1624275807.0,32.000000
-26,5,59,1624275807.0,32.000000
-26,5,59,1624275807.0,32.000000
-25,6,59,1624275807.0,32.000000
-26,6,59,1624275807.0,32.000000
-25,6,59,1624275807.0,32.000000
-26,5,59,1624275807.0,32.000000
-26,5,59,1624275807.0,32.000000
-26,5,59,1624275807.0,32.000000
-26,5,59,1624275807.0,32.000000
-26,6,59,1624275807.0,32.000000
-25,6,59,1624275807.0,32.000000
-25,6,59,1624275807.0,32.000000
-26,5,59,1624275807.0,32.000000
-26,5,59,1624275807.0,32.000000
-26,5,59,1624275807.0,32.000000
-26,6,59,1624275807.0,32.000000
-25,6,59,1624275807.0,32.000000
-25,6,59,1624275807.0,32.000000
-26,6,59,1624275807.0,32.000000
-25,5,59,1624275807.0,32.000000
-26,5,59,1624275807.0,32.000000
-26,5,59,1624275807.0,32.000000
-25,6,59,1624275807.0,32.000000
-26,6,59,1624275807.0,32.000000
-26,6,59,1624275807.0,32.000000
-25,6,59,1624275807.0,32.000000
-26,6,59,1624275807.0,32.000000
-26,6,59,1624275807.0,32.000000
-26,6,59,1624275807.0,32.000000
-25,6,59,1624275807.0,32.000000
-26,6,59,1624275807.0,32.000000
-26,6,59,1624275807.0,32.000000
-26,6,59,1624275807.0,32.000000
-25,6,59,1624275807.0,32.000000
-26,5,59,1624275807.0,32.000000
-26,6,59,1624275807.0,32.000000
-26,6,59,1624275807.0,32.000000
-26,6,59,1624275807.0,32.000000
-26,6,59,1624275807.0,32.000000
-25,6,59,1624275807.0,32.000000
-26,6,59,1624275807.0,32.000000
-26,6,59,1624275807.0,32.000000
-26,6,60,1624275807.0,32.000000
-30,5,64,1624275807.0,32.000000
-28,6,62,1624275807.0,32.000000
-22,7,54,1624275807.0,32.000000
-23,5,54,1624275807.0,32.000000
-23,5,57,1624275807.0,32.000000
-23,6,57,1624275807.0,32.000000
-24,6,61,1624275807.0,32.000000
-26,7,61,1624275807.0,32.000000
-27,6,59,1624275807.0,32.000000
-27,6,59,1624275807.0,32.000000
-26,6,59,1624275807.0,32.000000
-26,5,59,1624275807.0,32.000000
-25,6,59,1624275807.0,32.000000
-26,5,59,1624275807.0,32.000000
-26,5,59,1624275807.0,32.000000
-26,6,59,1624275807.0,32.000000
-26,6,59,1624275807.0,32.000000
-26,6,59,1624275807.0,32.000000
-26,6,59,1624275807.0,32.000000
-25,6,59,1624275807.0,32.000000
-25,6,59,1624275807.0,32.000000
-26,6,59,1624275807.0,32.000000
-26,5,59,1624275807.0,32.000000
-26,5,59,1624275807.0,32.000000
-26,5,59,1624275807.0,32.000000
-26,6,59,1624275807.0,32.000000
-26,6,59,1624275807.0,32.000000
-26,6,59,1624275807.0,32.000000
-26,6,59,1624275807.0,32.000000
-26,6,59,1624275807.0,32.000000
-26,6,59,1624275807.0,32.000000
-26,6,59,1624275807.0,32.000000
-26,6,59,1624275807.0,32.000000
-25,5,59,1624275807.0,32.000000
-25,6,59,1624275807.0,32.000000
-26,6,59,1624275807.0,32.000000
-26,6,59,1624275807.0,32.000000
-26,6,59,1624275807.0,32.000000
-26,6,59,1624275807.0,32.000000
-26,6,59,1624275807.0,32.000000
-26,5,59,1624275807.0,32.000000
-26,5,59,1624275807.0,32.000000
-26,6,59,1624275807.0,32.000000
-26,6,59,1624275807.0,32.000000
-26,6,59,1624275807.0,32.000000
-25,6,59,1624275807.0,32.000000
-25,5,59,1624275807.0,32.000000
-25,6,59,1624275807.0,32.000000
-26,6,59,1624275807.0,32.000000
-26,6,59,1624275807.0,32.000000
-25,6,59,1624275807.0,32.000000
-26,5,59,1624275807.0,32.000000
-26,5,59,1624275807.0,32.000000
-26,6,59,1624275807.0,32.000000
-26,6,59,1624275807.0,32.000000
-25,6,59,1624275807.0,32.000000
-26,6,59,1624275807.0,32.000000
-26,6,59,1624275807.0,32.000000
-26,6,59,1624275807.0,32.000000
-26,5,59,1624275807.0,32.000000
-26,5,59,1624275807.0,32.000000
-26,6,59,1624275807.0,32.000000
-26,6,59,1624275807.0,32.000000
-25,6,59,1624275807.0,32.000000
-26,5,59,1624275807.0,32.000000
-26,5,59,1624275807.0,32.000000
-25,6,59,1624275807.0,32.000000
-26,6,60,1624275807.0,32.000000
-27,6,63,1624275807.0,32.000000
-28,6,58,1624275807.0,32.000000
-21,6,56,1624275807.0,32.000000
-26,6,57,1624275807.0,32.000000
-24,6,54,1624275807.0,32.000000
-24,6,57,1624275807.0,32.000000
-25,6,58,1624275807.0,32.000000
-26,6,63,1624275807.0,32.000000
-25,7,59,1624275807.0,32.000000
-28,6,59,1624275807.0,32.000000
-26,5,59,1624275807.0,32.000000
-26,5,59,1624275807.0,32.000000
-26,5,59,1624275807.0,32.000000
-26,5,59,1624275807.0,32.000000
-26,6,59,1624275807.0,32.000000
-26,5,59,1624275807.0,32.000000
-26,6,59,1624275807.0,32.000000
-25,6,59,1624275807.0,32.000000
-26,6,59,1624275807.0,32.000000
-26,6,59,1624275807.0,32.000000
-25,5,59,1624275807.0,32.000000
-26,6,59,1624275807.0,32.000000
-26,5,59,1624275807.0,32.000000
-26,6,59,1624275807.0,32.000000
-26,6,59,1624275807.0,32.000000
-26,6,59,1624275807.0,32.000000
-25,6,59,1624275807.0,32.000000
-25,6,59,1624275807.0,32.000000
-26,6,59,1624275807.0,32.000000
-26,6,59,1624275807.0,32.000000
-26,6,59,1624275807.0,32.000000
-26,5,59,1624275807.0,32.000000
-25,6,59,1624275807.0,32.000000
-26,6,59,1624275807.0,32.000000
-26,6,59,1624275807.0,32.000000
-26,6,59,1624275807.0,32.000000
-26,6,59,1624275807.0,32.000000
-25,6,59,1624275807.0,32.000000
-26,6,59,1624275807.0,32.000000
-26,6,59,1624275807.0,32.000000
-26,6,59,1624275807.0,32.000000
-26,6,59,1624275807.0,32.000000
-25,6,59,1624275807.0,32.000000
-26,6,59,1624275807.0,32.000000
-26,6,59,1624275807.0,32.000000
-25,5,59,1624275807.0,32.000000
-26,6,59,1624275807.0,32.000000
-26,6,59,1624275807.0,32.000000
-26,6,59,1624275807.0,32.000000
-26,6,59,1624275807.0,32.000000
-26,6,59,1624275807.0,32.000000
-26,6,59,1624275807.0,32.000000
-26,6,59,1624275807.0,32.000000
-26,6,59,1624275807.0,32.000000
-25,6,59,1624275807.0,32.000000
-26,6,59,1624275807.0,32.000000
-26,6,58,1624275807.0,32.000000
-26,6,59,1624275807.0,32.000000
-25,6,59,1624275807.0,32.000000
-26,6,59,1624275807.0,32.000000
-26,6,60,1624275807.0,32.000000
-29,5,63,1624275807.0,32.000000
-27,6,60,1624275807.0,32.000000
-22,7,55,1624275807.0,32.000000
-23,6,56,1624275807.0,32.000000
-23,6,57,1624275807.0,32.000000
-23,6,58,1624275807.0,32.000000
-26,5,60,1624275807.0,32.000000
-26,6,60,1624275807.0,32.000000
-27,7,60,1624275807.0,32.000000
-28,6,59,1624275807.0,32.000000
-26,6,59,1624275807.0,32.000000
-25,5,59,1624275807.0,32.000000
-26,5,59,1624275807.0,32.000000
-25,5,59,1624275807.0,32.000000
-26,6,59,1624275807.0,32.000000
-26,6,59,1624275807.0,32.000000
-26,6,59,1624275807.0,32.000000
-26,6,59,1624275807.0,32.000000
-25,6,59,1624275807.0,32.000000
-25,6,59,1624275807.0,32.000000
-25,6,59,1624275807.0,32.000000
-25,6,59,1624275807.0,32.000000
-26,6,59,1624275807.0,32.000000
-26,6,59,1624275807.0,32.000000
-26,6,58,1624275807.0,32.000000
-25,5,59,1624275807.0,32.000000
-25,6,59,1624275807.0,32.000000
-26,5,59,1624275807.0,32.000000
-25,6,59,1624275807.0,32.000000
-26,6,59,1624275807.0,32.000000
-25,6,59,1624275807.0,32.000000
-25,5,59,1624275807.0,32.000000
-26,5,59,1624275807.0,32.000000
-25,6,59,1624275807.0,32.000000
-25,6,59,1624275807.0,32.000000
-26,6,59,1624275807.0,32.000000
-26,5,59,1624275807.0,32.000000
-25,6,59,1624275807.0,32.000000
-25,5,59,1624275807.0,32.000000
-25,6,59,1624275807.0,32.000000
-26,5,59,1624275807.0,32.000000
-26,6,59,1624275807.0,32.000000
-25,5,59,1624275807.0,32.000000
-25,5,59,1624275807.0,32.000000
-26,6,59,1624275807.0,32.000000
-26,6,59,1624275807.0,32.000000
-26,6,59,1624275807.0,32.000000
-26,5,59,1624275807.0,32.000000
-26,5,59,1624275807.0,32.000000
-26,5,59,1624275807.0,32.000000
-26,5,59,1624275807.0,32.000000
-26,5,59,1624275807.0,32.000000
-26,5,59,1624275807.0,32.000000
-26,5,59,1624275807.0,32.000000
-25,5,59,1624275807.0,32.000000
-26,5,59,1624275807.0,32.000000
-26,5,59,1624275807.0,32.000000
-26,5,59,1624275807.0,32.000000
-25,5,59,1624275807.0,32.000000
-26,5,59,1624275807.0,32.000000
-25,5,59,1624275807.0,32.000000
-26,5,59,1624275807.0,32.000000
-25,5,59,1624275807.0,32.000000
-26,6,59,1624275807.0,32.000000
-26,5,59,1624275807.0,32.000000
-26,5,59,1624275807.0,32.000000
-26,5,59,1624275807.0,32.000000
-26,5,59,1624275807.0,32.000000
-26,5,59,1624275807.0,32.000000
-26,5,59,1624275807.0,32.000000
-26,5,59,1624275807.0,32.000000
-26,6,59,1624275807.0,32.000000
-26,5,59,1624275807.0,32.000000
-25,5,59,1624275807.0,32.000000
-25,6,59,1624275807.0,32.000000
-26,6,59,1624275807.0,32.000000
-26,6,59,1624275807.0,32.000000
-29,4,64,1624275807.0,32.000000
-25,7,58,1624275807.0,32.000000
-23,7,55,1624275807.0,32.000000
-23,4,57,1624275807.0,32.000000
-23,4,58,1624275807.0,32.000000
-23,6,57,1624275807.0,32.000000
-25,6,63,1624275807.0,32.000000
-25,6,62,1624275807.0,32.000000
-27,6,59,1624275807.0,32.000000
-27,5,58,1624275807.0,32.000000
-26,5,59,1624275807.0,32.000000
-25,5,59,1624275807.0,32.000000
-25,5,59,1624275807.0,32.000000
-26,6,59,1624275807.0,32.000000
-26,6,59,1624275807.0,32.000000
-26,6,59,1624275807.0,32.000000
-25,5,59,1624275807.0,32.000000
-26,6,59,1624275807.0,32.000000
-26,6,59,1624275807.0,32.000000
-26,6,59,1624275807.0,32.000000
-25,5,59,1624275807.0,32.000000
-25,6,59,1624275807.0,32.000000
-25,5,59,1624275807.0,32.000000
-25,6,59,1624275807.0,32.000000
-26,6,59,1624275807.0,32.000000
-25,6,59,1624275807.0,32.000000
-26,5,59,1624275807.0,32.000000
-25,6,59,1624275807.0,32.000000
-26,6,59,1624275807.0,32.000000
-26,6,59,1624275807.0,32.000000
-25,6,59,1624275807.0,32.000000
-26,5,59,1624275807.0,32.000000
-26,6,59,1624275807.0,32.000000
-25,6,59,1624275807.0,32.000000
-25,6,59,1624275807.0,32.000000
-26,6,59,1624275807.0,32.000000
-25,6,59,1624275807.0,32.000000
-25,6,59,1624275807.0,32.000000
-26,6,59,1624275807.0,32.000000
-25,5,59,1624275807.0,32.000000
-25,6,59,1624275807.0,32.000000
-26,6,59,1624275807.0,32.000000
-26,6,59,1624275807.0,32.000000
-25,6,59,1624275807.0,32.000000
-26,5,59,1624275807.0,32.000000
-26,6,59,1624275807.0,32.000000
-25,6,59,1624275807.0,32.000000
-26,5,59,1624275807.0,32.000000
-25,6,59,1624275807.0,32.000000
-25,5,59,1624275807.0,32.000000
-26,5,59,1624275807.0,32.000000
-25,5,59,1624275807.0,32.000000
-25,5,59,1624275807.0,32.000000
-26,5,59,1624275807.0,32.000000
-25,5,59,1624275807.0,32.000000
-26,6,60,1624275807.0,32.000000
-27,5,61,1624275807.0,32.000000
-27,4,63,1624275807.0,32.000000
-24,7,59,1624275807.0,32.000000
-24,5,56,1624275807.0,32.000000
-24,5,57,1624275807.0,32.000000
-25,6,57,1624275807.0,32.000000
-25,6,57,1624275807.0,32.000000
-24,5,61,1624275807.0,32.000000
-27,6,59,1624275807.0,32.000000
-28,6,59,1624275807.0,32.000000
-26,6,59,1624275807.0,32.000000
-26,5,61,1624275807.0,32.000000
-25,5,59,1624275807.0,32.000000
-25,5,59,1624275807.0,32.000000
-26,5,59,1624275807.0,32.000000
-26,6,59,1624275807.0,32.000000
-26,6,59,1624275807.0,32.000000
-26,6,59,1624275807.0,32.000000
-25,5,59,1624275807.0,32.000000
-26,5,59,1624275807.0,32.000000
-25,5,59,1624275807.0,32.000000
-26,5,59,1624275807.0,32.000000
-26,6,59,1624275807.0,32.000000
-26,6,59,1624275807.0,32.000000
-26,6,59,1624275807.0,32.000000
-26,6,59,1624275807.0,32.000000
-26,6,59,1624275807.0,32.000000
-25,5,59,1624275807.0,32.000000
-26,5,59,1624275807.0,32.000000
-26,5,59,1624275807.0,32.000000
-26,6,59,1624275807.0,32.000000
-26,6,59,1624275807.0,32.000000
-25,5,59,1624275807.0,32.000000
-26,5,59,1624275807.0,32.000000
-26,5,59,1624275807.0,32.000000
-26,6,59,1624275807.0,32.000000
-26,6,59,1624275807.0,32.000000
-25,6,59,1624275807.0,32.000000
-25,6,59,1624275807.0,32.000000
-25,6,59,1624275807.0,32.000000
-26,5,59,1624275807.0,32.000000
-26,6,59,1624275807.0,32.000000
-25,5,59,1624275807.0,32.000000
-26,6,59,1624275807.0,32.000000
-26,6,59,1624275807.0,32.000000
-25,6,59,1624275807.0,32.000000
-26,5,59,1624275807.0,32.000000
-26,6,59,1624275807.0,32.000000
-26,6,59,1624275807.0,32.000000
-26,6,59,1624275807.0,32.000000
-25,6,59,1624275807.0,32.000000
-25,6,59,1624275807.0,32.000000
-26,5,59,1624275807.0,32.000000
-26,6,59,1624275807.0,32.000000
-26,6,59,1624275807.0,32.000000
-26,5,59,1624275807.0,32.000000
-26,5,59,1624275807.0,32.000000
-25,6,59,1624275807.0,32.000000
-25,6,59,1624275807.0,32.000000
-26,5,59,1624275807.0,32.000000
-25,6,59,1624275807.0,32.000000
-25,5,59,1624275807.0,32.000000
-26,6,60,1624275807.0,32.000000
-28,5,62,1624275807.0,32.000000
-27,6,61,1624275807.0,32.000000
-24,6,56,1624275807.0,32.000000
-24,5,58,1624275807.0,32.000000
-26,5,58,1624275807.0,32.000000
-24,6,58,1624275807.0,32.000000
-25,6,58,1624275807.0,32.000000
-26,6,60,1624275807.0,32.000000
-26,6,60,1624275807.0,32.000000
-26,6,60,1624275807.0,32.000000
-26,5,60,1624275807.0,32.000000
-26,5,59,1624275807.0,32.000000
-26,5,59,1624275807.0,32.000000
-26,6,59,1624275807.0,32.000000
-26,6,59,1624275807.0,32.000000
-25,5,59,1624275807.0,32.000000
-25,5,59,1624275807.0,32.000000
-26,5,59,1624275807.0,32.000000
-25,6,59,1624275807.0,32.000000
-26,5,59,1624275807.0,32.000000
-25,5,59,1624275807.0,32.000000
-25,5,59,1624275807.0,32.000000
-25,5,59,1624275807.0,32.000000
-26,5,59,1624275807.0,32.000000
-26,5,59,1624275807.0,32.000000
-25,6,59,1624275807.0,32.000000
-26,5,59,1624275807.0,32.000000
-26,5,59,1624275807.0,32.000000
-25,5,59,1624275807.0,32.000000
-26,5,59,1624275807.0,32.000000
-25,6,59,1624275807.0,32.000000
-26,5,59,1624275807.0,32.000000
-25,5,59,1624275807.0,32.000000
-26,5,59,1624275807.0,32.000000
-26,5,59,1624275807.0,32.000000
-26,5,59,1624275807.0,32.000000
-26,5,59,1624275807.0,32.000000
-26,5,59,1624275807.0,32.000000
-25,5,59,1624275807.0,32.000000
-25,5,59,1624275807.0,32.000000
-26,5,59,1624275807.0,32.000000
-25,5,59,1624275807.0,32.000000
-25,5,59,1624275807.0,32.000000
-25,5,59,1624275807.0,32.000000
-25,5,59,1624275807.0,32.000000
-25,5,59,1624275807.0,32.000000
-26,5,59,1624275807.0,32.000000
-25,5,59,1624275807.0,32.000000
-26,5,59,1624275807.0,32.000000
-26,5,59,1624275807.0,32.000000
-26,5,59,1624275807.0,32.000000
-25,5,59,1624275807.0,32.000000
-25,5,59,1624275807.0,32.000000
-25,5,59,1624275807.0,32.000000
-25,5,59,1624275807.0,32.000000
-25,5,59,1624275807.0,32.000000
-25,5,59,1624275807.0,32.000000
-26,5,59,1624275807.0,32.000000
-25,5,59,1624275807.0,32.000000
-25,5,59,1624275807.0,32.000000
-26,5,59,1624275807.0,32.000000
-26,5,59,1624275807.0,32.000000
-26,5,59,1624275807.0,32.000000
-25,5,59,1624275807.0,32.000000
-25,5,60,1624275807.0,32.000000
-26,5,59,1624275807.0,32.000000
-25,5,59,1624275807.0,32.000000
-25,6,59,1624275807.0,32.000000
-28,5,62,1624275807.0,32.000000
-28,5,64,1624275807.0,32.000000
-23,7,58,1624275807.0,32.000000
-26,4,56,1624275807.0,32.000000
-25,4,57,1624275807.0,32.000000
-22,6,58,1624275807.0,32.000000
-23,5,59,1624275807.0,32.000000
-26,6,60,1624275807.0,32.000000
-28,7,59,1624275807.0,32.000000
-27,7,59,1624275807.0,32.000000
-25,6,60,1624275807.0,32.000000
-25,5,60,1624275807.0,32.000000
-25,5,59,1624275807.0,32.000000
-25,5,59,1624275807.0,32.000000
-25,6,59,1624275807.0,32.000000
-26,6,59,1624275807.0,32.000000
-26,6,59,1624275807.0,32.000000
-25,6,59,1624275807.0,32.000000
-25,5,60,1624275807.0,32.000000
-25,5,59,1624275807.0,32.000000
-25,6,59,1624275807.0,32.000000
-26,5,59,1624275807.0,32.000000
-25,6,59,1624275807.0,32.000000
-26,5,59,1624275807.0,32.000000
-25,6,59,1624275807.0,32.000000
-25,6,59,1624275807.0,32.000000
-25,5,59,1624275807.0,32.000000
-26,6,59,1624275807.0,32.000000
-26,6,59,1624275807.0,32.000000
-25,6,59,1624275807.0,32.000000
-26,5,59,1624275807.0,32.000000
-26,5,59,1624275807.0,32.000000
-25,5,59,1624275807.0,32.000000
-26,5,59,1624275807.0,32.000000
-26,6,59,1624275807.0,32.000000
-26,6,59,1624275807.0,32.000000
-25,5,59,1624275807.0,32.000000
-25,5,59,1624275807.0,32.000000
-26,6,59,1624275807.0,32.000000
-26,5,59,1624275807.0,32.000000
-25,6,59,1624275807.0,32.000000
-26,6,59,1624275807.0,32.000000
-26,5,59,1624275807.0,32.000000
-26,6,59,1624275807.0,32.000000
-25,6,59,1624275807.0,32.000000
-25,5,59,1624275807.0,32.000000
-25,5,59,1624275807.0,32.000000
-25,5,59,1624275807.0,32.000000
-26,6,59,1624275807.0,32.000000
-26,6,59,1624275807.0,32.000000
-25,5,59,1624275807.0,32.000000
-26,5,59,1624275807.0,32.000000
-26,5,59,1624275807.0,32.000000
-25,5,59,1624275807.0,32.000000
-25,5,59,1624275807.0,32.000000
-25,5,59,1624275807.0,32.000000
-25,5,59,1624275807.0,32.000000
-25,5,59,1624275807.0,32.000000
-27,5,61,1624275807.0,32.000000
-29,4,62,1624275807.0,32.000000
-24,6,60,1624275807.0,32.000000
-23,6,56,1624275807.0,32.000000
-24,5,57,1624275807.0,32.000000
-24,6,57,1624275807.0,32.000000
-25,6,57,1624275807.0,32.000000
-24,5,61,1624275807.0,32.000000
-26,6,60,1624275807.0,32.000000
-28,6,59,1624275807.0,32.000000
-26,6,59,1624275807.0,32.000000
-26,5,60,1624275807.0,32.000000
-26,5,59,1624275807.0,32.000000
-25,5,59,1624275807.0,32.000000
-25,5,59,1624275807.0,32.000000
-26,5,59,1624275807.0,32.000000
-26,5,59,1624275807.0,32.000000
-26,5,59,1624275807.0,32.000000
-25,5,59,1624275807.0,32.000000
-25,5,59,1624275807.0,32.000000
-25,5,59,1624275807.0,32.000000
-25,5,59,1624275807.0,32.000000
-26,5,59,1624275807.0,32.000000
-26,5,59,1624275807.0,32.000000
-26,5,59,1624275807.0,32.000000
-26,5,59,1624275807.0,32.000000
-25,5,59,1624275807.0,32.000000
-25,5,59,1624275807.0,32.000000
-26,5,59,1624275807.0,32.000000
-26,5,59,1624275807.0,32.000000
-25,5,59,1624275807.0,32.000000
-25,5,59,1624275807.0,32.000000
-25,5,59,1624275807.0,32.000000
-26,5,59,1624275807.0,32.000000
-25,5,59,1624275807.0,32.000000
-26,5,59,1624275807.0,32.000000
-26,6,59,1624275807.0,32.000000
-25,6,59,1624275807.0,32.000000
-25,5,59,1624275807.0,32.000000
-25,5,59,1624275807.0,32.000000
-25,5,59,1624275807.0,32.000000
-26,5,59,1624275807.0,32.000000
-26,6,59,1624275807.0,32.000000
-26,5,59,1624275807.0,32.000000
-25,5,59,1624275807.0,32.000000
-26,5,59,1624275807.0,32.000000
-25,5,59,1624275807.0,32.000000
-26,5,59,1624275807.0,32.000000
-26,6,59,1624275807.0,32.000000
-25,6,59,1624275807.0,32.000000
-25,5,59,1624275807.0,32.000000
-25,5,59,1624275807.0,32.000000
-25,5,59,1624275807.0,32.000000
-26,6,59,1624275807.0,32.000000
-25,5,59,1624275807.0,32.000000
-26,6,59,1624275807.0,32.000000
-25,5,59,1624275807.0,32.000000
-25,6,59,1624275807.0,32.000000
-25,5,59,1624275807.0,32.000000
-25,5,59,1624275807.0,32.000000
-25,5,59,1624275807.0,32.000000
-26,5,59,1624275807.0,32.000000
-25,6,59,1624275807.0,32.000000
-25,6,59,1624275807.0,32.000000
-25,5,59,1624275807.0,32.000000
-25,5,59,1624275807.0,32.000000
-25,5,59,1624275807.0,32.000000
-25,5,59,1624275807.0,32.000000
-26,6,59,1624275807.0,32.000000
-26,6,59,1624275807.0,32.000000
-25,5,59,1624275807.0,32.000000
-25,6,59,1624275807.0,32.000000
-26,5,59,1624275807.0,32.000000
-26,5,59,1624275807.0,32.000000
-25,5,59,1624275807.0,32.000000
-25,6,59,1624275807.0,32.000000
-26,5,59,1624275807.0,32.000000
-26,5,59,1624275807.0,32.000000
-26,6,59,1624275807.0,32.000000
-26,6,59,1624275807.0,32.000000
-25,6,59,1624275807.0,32.000000
-26,6,59,1624275807.0,32.000000
-26,6,59,1624275807.0,32.000000
-25,6,59,1624275807.0,32.000000
-25,6,59,1624275807.0,32.000000
-25,6,59,1624275807.0,32.000000
-25,6,59,1624275807.0,32.000000
-25,6,59,1624275807.0,32.000000
-26,6,59,1624275807.0,32.000000
-25,6,59,1624275807.0,32.000000
-25,6,59,1624275807.0,32.000000
-25,6,59,1624275807.0,32.000000
-26,6,59,1624275807.0,32.000000
-26,6,59,1624275807.0,32.000000
-26,6,59,1624275807.0,32.000000
-26,6,58,1624275807.0,32.000000
-26,6,59,1624275807.0,32.000000
-25,6,59,1624275807.0,32.000000
-25,6,60,1624275807.0,32.000000
-26,5,59,1624275807.0,32.000000
-25,6,59,1624275807.0,32.000000
-26,6,59,1624275807.0,32.000000
-26,6,59,1624275807.0,32.000000
-25,6,59,1624275807.0,32.000000
-26,6,59,1624275807.0,32.000000
-26,6,59,1624275807.0,32.000000
-25,6,60,1624275807.0,32.000000
-25,6,59,1624275807.0,32.000000
-25,5,60,1624275807.0,32.000000
-24,5,60,1624275807.0,32.000000
-25,5,59,1624275807.0,32.000000
-25,5,59,1624275807.0,32.000000
-26,6,59,1624275807.0,32.000000
-26,6,59,1624275807.0,32.000000
-26,6,58,1624275807.0,32.000000
-26,6,59,1624275807.0,32.000000
-27,6,59,1624275807.0,32.000000
-26,6,59,1624275807.0,32.000000
-25,5,59,1624275807.0,32.000000
-26,6,59,1624275807.0,32.000000
-26,6,59,1624275807.0,32.000000
-25,6,59,1624275807.0,32.000000
-25,5,59,1624275807.0,32.000000
-25,6,59,1624275807.0,32.000000
-25,6,59,1624275807.0,32.000000
-26,6,59,1624275807.0,32.000000
-26,5,59,1624275807.0,32.000000
-25,6,59,1624275807.0,32.000000
-25,5,59,1624275807.0,32.000000
-26,5,59,1624275807.0,32.000000
-26,5,59,1624275807.0,32.000000
-25,5,59,1624275807.0,32.000000
-25,5,60,1624275807.0,32.000000
-25,5,59,1624275807.0,32.000000
-26,6,59,1624275807.0,32.000000
-26,6,59,1624275807.0,32.000000
-25,5,59,1624275807.0,32.000000
-25,5,59,1624275807.0,32.000000
-25,5,60,1624275807.0,32.000000
-26,5,63,1624275807.0,32.000000
-23,6,54,1624275807.0,32.000000
-26,4,62,1624275807.0,32.000000
-23,7,58,1624275807.0,32.000000
-26,5,60,1624275807.0,32.000000
-25,5,60,1624275807.0,32.000000
-26,6,59,1624275807.0,32.000000
-25,5,59,1624275807.0,32.000000
-25,6,59,1624275807.0,32.000000
-26,5,59,1624275807.0,32.000000
-24,5,59,1624275807.0,32.000000
-25,5,60,1624275807.0,32.000000
-25,4,60,1624275807.0,32.000000
-24,6,59,1624275807.0,32.000000
-26,5,58,1624275807.0,32.000000
-26,5,60,1624275807.0,32.000000
-25,5,59,1624275807.0,32.000000
-25,4,59,1624275807.0,32.000000
-26,4,58,1624275807.0,32.000000
-25,5,60,1624275807.0,32.000000
-25,5,60,1624275807.0,32.000000
-25,5,59,1624275807.0,32.000000
-23,4,60,1624275807.0,32.000000
-24,4,60,1624275807.0,32.000000
-25,5,59,1624275807.0,32.000000
-25,5,59,1624275807.0,32.000000
-25,4,59,1624275807.0,32.000000
-25,3,60,1624275807.0,32.000000
-24,3,60,1624275807.0,32.000000
-24,3,60,1624275807.0,32.000000
-24,4,59,1624275807.0,32.000000
-24,5,60,1624275807.0,32.000000
-25,6,59,1624275807.0,32.000000
-25,5,59,1624275807.0,32.000000
-25,5,60,1624275807.0,32.000000
-24,4,60,1624275807.0,32.000000
-24,4,60,1624275807.0,32.000000
-25,4,59,1624275807.0,32.000000
-25,4,59,1624275807.0,32.000000
-25,5,60,1624275807.0,32.000000
-24,5,60,1624275807.0,32.000000
-25,5,59,1624275807.0,32.000000
-25,6,59,1624275807.0,32.000000
-25,7,58,1624275807.0,32.000000
-26,8,58,1624275807.0,32.000000
-27,6,58,1624275807.0,32.000000
-26,6,58,1624275807.0,32.000000
-25,5,59,1624275807.0,32.000000
-24,5,60,1624275807.0,32.000000
-24,5,61,1624275807.0,32.000000
-24,3,61,1624275807.0,32.000000
-23,3,61,1624275807.0,32.000000
-23,4,60,1624275807.0,32.000000
-25,5,58,1624275807.0,32.000000
-25,5,58,1624275807.0,32.000000
-25,7,58,1624275807.0,32.000000
-26,8,58,1624275807.0,32.000000
-27,7,58,1624275807.0,32.000000
-26,5,59,1624275807.0,32.000000
-26,4,60,1624275807.0,32.000000
-25,5,59,1624275807.0,32.000000
-26,5,59,1624275807.0,32.000000
-27,6,58,1624275807.0,32.000000
-27,6,59,1624275807.0,32.000000
-26,6,59,1624275807.0,32.000000
-26,5,59,1624275807.0,32.000000
-25,5,58,1624275807.0,32.000000
-26,4,59,1624275807.0,32.000000
-26,5,59,1624275807.0,32.000000
-26,5,59,1624275807.0,32.000000
-26,7,59,1624275807.0,32.000000
-26,6,59,1624275807.0,32.000000
-26,5,59,1624275807.0,32.000000
-25,5,60,1624275807.0,32.000000
-25,5,60,1624275807.0,32.000000
-26,5,59,1624275807.0,32.000000
-28,5,58,1624275807.0,32.000000
-27,5,58,1624275807.0,32.000000
-26,5,59,1624275807.0,32.000000
-26,5,59,1624275807.0,32.000000
-28,5,59,1624275807.0,32.000000
-27,5,59,1624275807.0,32.000000
-24,4,60,1624275807.0,32.000000
-23,5,61,1624275807.0,32.000000
-26,7,59,1624275807.0,32.000000
-28,11,55,1624275807.0,32.000000
-30,11,54,1624275807.0,32.000000
-28,6,58,1624275807.0,32.000000
-25,4,61,1624275807.0,32.000000
-25,4,61,1624275807.0,32.000000
-25,4,61,1624275807.0,32.000000
-26,5,60,1624275807.0,32.000000
-26,7,59,1624275807.0,32.000000
-27,7,58,1624275807.0,32.000000
-28,7,56,1624275807.0,32.000000
-26,6,59,1624275807.0,32.000000
-26,6,60,1624275807.0,32.000000
-26,7,59,1624275807.0,32.000000
-28,7,57,1624275807.0,32.000000
-27,6,58,1624275807.0,32.000000
-26,6,58,1624275807.0,32.000000
-26,6,58,1624275807.0,32.000000
-28,7,59,1624275807.0,32.000000
-27,7,58,1624275807.0,32.000000
-27,7,58,1624275807.0,32.000000
-27,6,58,1624275807.0,32.000000
-26,6,59,1624275807.0,32.000000
-27,7,58,1624275807.0,32.000000
-27,7,58,1624275807.0,32.000000
-27,7,58,1624275807.0,32.000000
-26,6,59,1624275807.0,32.000000
-27,6,59,1624275807.0,32.000000
-27,6,58,1624275807.0,32.000000
-27,6,59,1624275807.0,32.000000
-27,6,59,1624275807.0,32.000000
-27,6,59,1624275807.0,32.000000
-27,7,58,1624275807.0,32.000000
-27,6,58,1624275807.0,32.000000
-26,6,59,1624275807.0,32.000000
-26,6,59,1624275807.0,32.000000
-26,6,59,1624275807.0,32.000000
-26,7,58,1624275807.0,32.000000
-26,7,59,1624275807.0,32.000000
-27,6,59,1624275807.0,32.000000
-27,6,59,1624275807.0,32.000000
-27,6,59,1624275807.0,32.000000
-27,7,59,1624275807.0,32.000000
-28,6,59,1624275807.0,32.000000
-27,7,58,1624275807.0,32.000000
-27,7,58,1624275807.0,32.000000
-27,6,58,1624275807.0,32.000000
-27,6,59,1624275807.0,32.000000
-27,6,59,1624275807.0,32.000000
-27,7,59,1624275807.0,32.000000
-27,7,59,1624275807.0,32.000000
-27,6,58,1624275807.0,32.000000
-27,6,59,1624275807.0,32.000000
-27,6,58,1624275807.0,32.000000
-27,6,58,1624275807.0,32.000000
-27,7,58,1624275807.0,32.000000
-27,6,59,1624275807.0,32.000000
-27,6,58,1624275807.0,32.000000
-26,6,59,1624275807.0,32.000000
-26,6,59,1624275807.0,32.000000
-27,6,58,1624275807.0,32.000000
-27,7,59,1624275807.0,32.000000
-26,6,59,1624275807.0,32.000000
-26,6,58,1624275807.0,32.000000
-27,6,58,1624275807.0,32.000000
-27,6,58,1624275807.0,32.000000
-27,6,58,1624275807.0,32.000000
-27,6,58,1624275807.0,32.000000
-26,6,59,1624275807.0,32.000000
-27,6,58,1624275807.0,32.000000
-27,6,58,1624275807.0,32.000000
-26,6,59,1624275807.0,32.000000
-26,6,59,1624275807.0,32.000000
-27,6,58,1624275807.0,32.000000
-27,6,59,1624275807.0,32.000000
-26,7,58,1624275807.0,32.000000
-26,6,59,1624275807.0,32.000000
-26,6,58,1624275807.0,32.000000
-27,6,59,1624275807.0,32.000000
-26,6,59,1624275807.0,32.000000
-26,6,59,1624275807.0,32.000000
-26,6,59,1624275807.0,32.000000
-26,6,59,1624275807.0,32.000000
-26,6,59,1624275807.0,32.000000
-26,6,59,1624275807.0,32.000000
-26,6,59,1624275807.0,32.000000
-26,6,59,1624275807.0,32.000000
-27,6,59,1624275807.0,32.000000
-26,6,59,1624275807.0,32.000000
-27,6,59,1624275807.0,32.000000
-26,6,59,1624275807.0,32.000000
-26,6,59,1624275807.0,32.000000
-26,7,58,1624275807.0,32.000000
-27,6,59,1624275807.0,32.000000
-26,6,59,1624275807.0,32.000000
-26,6,59,1624275807.0,32.000000
-26,6,59,1624275807.0,32.000000
-26,6,59,1624275807.0,32.000000
-27,7,59,1624275807.0,32.000000
-26,6,58,1624275807.0,32.000000
-25,5,58,1624275807.0,32.000000
-27,6,58,1624275807.0,32.000000
-27,7,59,1624275807.0,32.000000
-26,7,59,1624275807.0,32.000000
-26,6,58,1624275807.0,32.000000
-25,5,59,1624275807.0,32.000000
-24,5,61,1624275807.0,32.000000
-25,6,59,1624275807.0,32.000000
-26,6,58,1624275807.0,32.000000
-26,7,59,1624275807.0,32.000000
-27,6,59,1624275807.0,32.000000
-26,6,58,1624275807.0,32.000000
-25,6,59,1624275807.0,32.000000
-25,6,59,1624275807.0,32.000000
-26,6,59,1624275807.0,32.000000
-26,6,59,1624275807.0,32.000000
-25,6,60,1624275807.0,32.000000
-25,6,59,1624275807.0,32.000000
-26,5,59,1624275807.0,32.000000
-26,5,59,1624275807.0,32.000000
-24,7,59,1624275807.0,32.000000
-25,6,60,1624275807.0,32.000000
-25,6,59,1624275807.0,32.000000
-25,5,59,1624275807.0,32.000000
-26,5,60,1624275807.0,32.000000
-25,5,60,1624275807.0,32.000000
-26,6,59,1624275807.0,32.000000
-25,6,59,1624275807.0,32.000000
-26,5,59,1624275807.0,32.000000
-26,5,58,1624275807.0,32.000000
-25,5,60,1624275807.0,32.000000
-26,4,59,1624275807.0,32.000000
-24,5,60,1624275807.0,32.000000
-25,6,59,1624275807.0,32.000000
-25,6,59,1624275807.0,32.000000
-26,5,59,1624275807.0,32.000000
-26,5,59,1624275807.0,32.000000
-25,5,60,1624275807.0,32.000000
-25,5,60,1624275807.0,32.000000
-26,6,59,1624275807.0,32.000000
-25,6,59,1624275807.0,32.000000
-26,6,58,1624275807.0,32.000000
-26,6,58,1624275807.0,32.000000
-26,5,59,1624275807.0,32.000000
-25,5,60,1624275807.0,32.000000
-27,7,59,1624275807.0,32.000000
-27,7,58,1624275807.0,32.000000
-27,6,58,1624275807.0,32.000000
-25,8,58,1624275807.0,32.000000
-26,4,60,1624275807.0,32.000000
-27,6,59,1624275807.0,32.000000
-25,4,60,1624275807.0,32.000000
-27,10,58,1624275807.0,32.000000
-26,8,58,1624275807.0,32.000000
-26,7,58,1624275807.0,32.000000
-27,5,57,1624275807.0,32.000000
-27,5,58,1624275807.0,32.000000
-25,-1,59,1624275807.0,32.000000
-26,6,60,1624275807.0,32.000000
-23,8,61,1624275807.0,32.000000
-23,6,61,1624275807.0,32.000000
-23,6,60,1624275807.0,32.000000
-24,5,59,1624275807.0,32.000000
-27,5,57,1624275807.0,32.000000
-31,7,56,1624275807.0,32.000000
-27,6,59,1624275807.0,32.000000
-25,6,60,1624275807.0,32.000000
-26,7,60,1624275807.0,32.000000
-27,5,58,1624275807.0,32.000000
-25,5,58,1624275807.0,32.000000
-25,6,58,1624275807.0,32.000000
-24,5,59,1624275807.0,32.000000
-22,10,61,1624275807.0,32.000000
-24,6,60,1624275807.0,32.000000
-24,5,60,1624275807.0,32.000000
-24,6,59,1624275807.0,32.000000
-24,6,59,1624275807.0,32.000000
-22,6,60,1624275807.0,32.000000
-23,7,60,1624275807.0,32.000000
-24,7,59,1624275807.0,32.000000
-28,9,57,1624275807.0,32.000000
-25,6,59,1624275807.0,32.000000
-26,8,59,1624275807.0,32.000000
-25,8,59,1624275807.0,32.000000
-25,7,59,1624275807.0,32.000000
-26,6,58,1624275807.0,32.000000
-26,8,59,1624275807.0,32.000000
-25,8,59,1624275807.0,32.000000
-25,7,60,1624275807.0,32.000000
-23,8,60,1624275807.0,32.000000
-24,6,59,1624275807.0,32.000000
-24,7,60,1624275807.0,32.000000
-24,6,60,1624275807.0,32.000000
-24,7,60,1624275807.0,32.000000
-23,8,60,1624275807.0,32.000000
-24,7,59,1624275807.0,32.000000
-26,6,58,1624275807.0,32.000000
-25,6,59,1624275807.0,32.000000
-25,8,60,1624275807.0,32.000000
-26,7,59,1624275807.0,32.000000
-26,6,59,1624275807.0,32.000000
-25,6,59,1624275807.0,32.000000
-23,7,60,1624275807.0,32.000000
-24,6,61,1624275807.0,32.000000
-23,6,59,1624275807.0,32.000000
-22,7,60,1624275807.0,32.000000
-23,7,60,1624275807.0,32.000000
-24,7,60,1624275807.0,32.000000
-24,6,60,1624275807.0,32.000000
-25,6,59,1624275807.0,32.000000
-25,7,59,1624275807.0,32.000000
-25,6,59,1624275807.0,32.000000
-25,6,59,1624275807.0,32.000000
-25,6,59,1624275807.0,32.000000
-25,7,58,1624275807.0,32.000000
-23,7,60,1624275807.0,32.000000
-17,2,63,1624275807.0,32.000000
-24,6,60,1624275807.0,32.000000
-25,7,59,1624275807.0,32.000000
-25,6,59,1624275807.0,32.000000
-25,6,59,1624275807.0,32.000000
-26,6,59,1624275807.0,32.000000
-25,6,59,1624275807.0,32.000000
-25,6,59,1624275807.0,32.000000
-24,6,60,1624275807.0,32.000000
-25,7,59,1624275807.0,32.000000
-25,7,59,1624275807.0,32.000000
-24,7,59,1624275807.0,32.000000
-24,6,59,1624275807.0,32.000000
-25,6,59,1624275807.0,32.000000
-25,7,59,1624275807.0,32.000000
-25,6,59,1624275807.0,32.000000
-25,6,59,1624275807.0,32.000000
-27,6,63,1624275807.0,32.000000
-29,14,59,1624275807.0,32.000000
-26,10,58,1624275807.0,32.000000
-25,7,60,1624275807.0,32.000000
-24,6,59,1624275807.0,32.000000
-26,7,59,1624275807.0,32.000000
-26,7,59,1624275807.0,32.000000
-25,6,59,1624275807.0,32.000000
-25,6,60,1624275807.0,32.000000
-25,6,59,1624275807.0,32.000000
-24,7,59,1624275807.0,32.000000
-25,7,59,1624275807.0,32.000000
-25,7,59,1624275807.0,32.000000
-25,6,59,1624275807.0,32.000000
-25,6,59,1624275807.0,32.000000
-25,6,59,1624275807.0,32.000000
-25,6,59,1624275807.0,32.000000
-25,6,60,1624275807.0,32.000000
-25,6,59,1624275807.0,32.000000
-25,6,59,1624275807.0,32.000000
-25,6,59,1624275807.0,32.000000
-24,6,59,1624275807.0,32.000000
-25,6,60,1624275807.0,32.000000
-25,7,59,1624275807.0,32.000000
-24,6,58,1624275807.0,32.000000
-25,6,59,1624275807.0,32.000000
-24,6,59,1624275807.0,32.000000
-25,6,60,1624275807.0,32.000000
-25,6,60,1624275807.0,32.000000
-25,6,59,1624275807.0,32.000000
-25,6,59,1624275807.0,32.000000
-25,6,59,1624275807.0,32.000000
-25,6,59,1624275807.0,32.000000
-24,6,60,1624275807.0,32.000000
-24,6,59,1624275807.0,32.000000
-25,6,59,1624275807.0,32.000000
-25,6,59,1624275807.0,32.000000
-25,6,59,1624275807.0,32.000000
-26,6,60,1624275807.0,32.000000
-25,6,59,1624275807.0,32.000000
-25,6,59,1624275807.0,32.000000
-25,6,59,1624275807.0,32.000000
-25,6,59,1624275807.0,32.000000
-25,6,59,1624275807.0,32.000000
-24,6,59,1624275807.0,32.000000
-25,6,59,1624275807.0,32.000000
-25,6,59,1624275807.0,32.000000
-25,6,59,1624275807.0,32.000000
-25,6,59,1624275807.0,32.000000
-25,6,59,1624275807.0,32.000000
-25,6,59,1624275807.0,32.000000
-25,6,59,1624275807.0,32.000000
-25,6,59,1624275807.0,32.000000
-25,6,59,1624275807.0,32.000000
-25,6,59,1624275807.0,32.000000
-25,6,59,1624275807.0,32.000000
-25,6,59,1624275807.0,32.000000
-24,6,60,1624275807.0,32.000000
-26,6,59,1624275807.0,32.000000
-26,6,59,1624275807.0,32.000000
-25,6,59,1624275807.0,32.000000
-25,6,60,1624275807.0,32.000000
-24,6,59,1624275807.0,32.000000
-25,6,59,1624275807.0,32.000000
-25,6,59,1624275807.0,32.000000
-25,6,59,1624275807.0,32.000000
-25,6,59,1624275807.0,32.000000
