ACC_X,ACC_Y,ACC_Z,start_time_unix,sampling_rate
-19,12,59,1623676087.0,32.000000
-19,12,59,1623676087.0,32.000000
-19,12,59,1623676087.0,32.000000
-18,12,59,1623676087.0,32.000000
-19,12,59,1623676087.0,32.000000
-19,12,59,1623676087.0,32.000000
-19,12,59,1623676087.0,32.000000
-19,12,59,1623676087.0,32.000000
-19,12,59,1623676087.0,32.000000
-19,12,59,1623676087.0,32.000000
-19,12,59,1623676087.0,32.000000
-19,12,59,1623676087.0,32.000000
-19,12,59,1623676087.0,32.000000
-18,12,59,1623676087.0,32.000000
-19,12,59,1623676087.0,32.000000
-19,12,59,1623676087.0,32.000000
-19,12,59,1623676087.0,32.000000
-19,12,59,1623676087.0,32.000000
-19,12,59,1623676087.0,32.000000
-19,12,59,1623676087.0,32.000000
-19,12,59,1623676087.0,32.000000
-19,12,59,1623676087.0,32.000000
-19,12,59,1623676087.0,32.000000
-19,12,59,1623676087.0,32.000000
-19,12,59,1623676087.0,32.000000
-19,12,59,1623676087.0,32.000000
-19,12,59,1623676087.0,32.000000
-19,12,59,1623676087.0,32.000000
-19,12,59,1623676087.0,32.000000
-19,12,59,1623676087.0,32.000000
-19,12,59,1623676087.0,32.000000
-19,12,59,1623676087.0,32.000000
-19,12,59,1623676087.0,32.000000
-19,12,59,1623676087.0,32.000000
-19,12,59,1623676087.0,32.000000
-19,12,59,1623676087.0,32.000000
-19,12,59,1623676087.0,32.000000
-19,12,59,1623676087.0,32.000000
-19,12,59,1623676087.0,32.000000
-19,12,59,1623676087.0,32.000000
-19,12,59,1623676087.0,32.000000
-18,12,59,1623676087.0,32.000000
-19,12,59,1623676087.0,32.000000
-19,12,59,1623676087.0,32.000000
-19,12,59,1623676087.0,32.000000
-18,12,59,1623676087.0,32.000000
-19,12,59,1623676087.0,32.000000
-19,12,59,1623676087.0,32.000000
-19,12,59,1623676087.0,32.000000
-19,12,59,1623676087.0,32.000000
-19,12,59,1623676087.0,32.000000
-19,12,59,1623676087.0,32.000000
-18,12,59,1623676087.0,32.000000
-19,12,59,1623676087.0,32.000000
-19,12,59,1623676087.0,32.000000
-19,12,59,1623676087.0,32.000000
-19,12,59,1623676087.0,32.000000
-19,12,59,1623676087.0,32.000000
-19,12,59,1623676087.0,32.000000
-19,12,59,1623676087.0,32.000000
-19,12,59,1623676087.0,32.000000
-19,12,59,1623676087.0,32.000000
-19,12,59,1623676087.0,32.000000
-18,12,59,1623676087.0,32.000000
-19,12,59,1623676087.0,32.000000
-19,12,59,1623676087.0,32.000000
-19,12,59,1623676087.0,32.000000
-19,12,59,1623676087.0,32.000000
-19,12,59,1623676087.0,32.000000
-19,12,59,1623676087.0,32.000000
-19,12,59,1623676087.0,32.000000
-19,12,59,1623676087.0,32.000000
-18,12,59,1623676087.0,32.000000
-19,12,59,1623676087.0,32.000000
-19,12,59,1623676087.0,32.000000
-19,12,59,1623676087.0,32.000000
-19,12,59,1623676087.0,32.000000
-19,12,59,1623676087.0,32.000000
-19,12,59,1623676087.0,32.000000
-19,12,59,1623676087.0,32.000000
-18,12,59,1623676087.0,32.000000
-19,12,59,1623676087.0,32.000000
-18,12,59,1623676087.0,32.000000
-18,12,59,1623676087.0,32.000000
-19,12,59,1623676087.0,32.000000
-19,12,59,1623676087.0,32.000000
-19,12,59,1623676087.0,32.000000
-19,12,59,1623676087.0,32.000000
-19,12,59,1623676087.0,32.000000
-19,12,59,1623676087.0,32.000000
-19,12,59,1623676087.0,32.000000
-19,12,59,1623676087.0,32.000000
-18,12,59,1623676087.0,32.000000
-19,12,59,1623676087.0,32.000000
-19,12,59,1623676087.0,32.000000
-18,12,59,1623676087.0,32.000000
-19,12,59,1623676087.0,32.000000
-18,12,59,1623676087.0,32.000000
-19,12,59,1623676087.0,32.000000
-19,12,59,1623676087.0,32.000000
-19,12,59,1623676087.0,32.000000
-19,12,59,1623676087.0,32.000000
-19,12,59,1623676087.0,32.000000
-19,12,59,1623676087.0,32.000000
-19,12,59,1623676087.0,32.000000
-19,12,59,1623676087.0,32.000000
-19,12,59,1623676087.0,32.000000
-19,12,59,1623676087.0,32.000000
-18,12,59,1623676087.0,32.000000
-18,12,59,1623676087.0,32.000000
-18,12,59,1623676087.0,32.000000
-18,13,59,1623676087.0,32.000000
-19,12,59,1623676087.0,32.000000
-19,12,59,1623676087.0,32.000000
-19,12,59,1623676087.0,32.000000
-19,12,59,1623676087.0,32.000000
-19,12,59,1623676087.0,32.000000
-19,12,59,1623676087.0,32.000000
-19,12,59,1623676087.0,32.000000
-19,12,59,1623676087.0,32.000000
-19,13,59,1623676087.0,32.000000
-18,12,59,1623676087.0,32.000000
-18,13,59,1623676087.0,32.000000
-18,12,59,1623676087.0,32.000000
-18,12,59,1623676087.0,32.000000
-19,13,59,1623676087.0,32.000000
-19,12,59,1623676087.0,32.000000
-20,12,59,1623676087.0,32.000000
-20,12,59,1623676087.0,32.000000
-19,12,59,1623676087.0,32.000000
-19,13,59,1623676087.0,32.000000
-19,12,59,1623676087.0,32.000000
-18,13,59,1623676087.0,32.000000
-18,13,59,1623676087.0,32.000000
-18,13,59,1623676087.0,32.000000
-19,12,59,1623676087.0,32.000000
-19,12,59,1623676087.0,32.000000
-19,12,59,1623676087.0,32.000000
-19,12,59,1623676087.0,32.000000
-19,12,59,1623676087.0,32.000000
-19,12,59,1623676087.0,32.000000
-19,12,59,1623676087.0,32.000000
-18,12,59,1623676087.0,32.000000
-18,13,59,1623676087.0,32.000000
-18,13,60,1623676087.0,32.000000
-18,12,59,1623676087.0,32.000000
-19,13,59,1623676087.0,32.000000
-19,12,59,1623676087.0,32.000000
-19,12,59,1623676087.0,32.000000
-19,12,59,1623676087.0,32.000000
-19,12,59,1623676087.0,32.000000
-19,12,59,1623676087.0,32.000000
-19,12,59,1623676087.0,32.000000
-18,12,59,1623676087.0,32.000000
-17,13,59,1623676087.0,32.000000
-17,13,60,1623676087.0,32.000000
-18,13,59,1623676087.0,32.000000
-19,12,59,1623676087.0,32.000000
-20,12,59,1623676087.0,32.000000
-20,12,58,1623676087.0,32.000000
-20,12,59,1623676087.0,32.000000
-19,12,59,1623676087.0,32.000000
-19,12,59,1623676087.0,32.000000
-18,13,58,1623676087.0,32.000000
-19,13,59,1623676087.0,32.000000
-18,13,59,1623676087.0,32.000000
-16,12,61,1623676087.0,32.000000
-16,12,61,1623676087.0,32.000000
-21,13,58,1623676087.0,32.000000
-22,12,58,1623676087.0,32.000000
-19,11,59,1623676087.0,32.000000
-18,11,59,1623676087.0,32.000000
-19,11,59,1623676087.0,32.000000
-20,12,59,1623676087.0,32.000000
-19,13,59,1623676087.0,32.000000
-18,13,59,1623676087.0,32.000000
-16,12,61,1623676087.0,32.000000
-17,12,60,1623676087.0,32.000000
-21,13,57,1623676087.0,32.000000
-20,12,59,1623676087.0,32.000000
-19,11,59,1623676087.0,32.000000
-20,11,59,1623676087.0,32.000000
-20,13,58,1623676087.0,32.000000
-20,13,58,1623676087.0,32.000000
-18,12,59,1623676087.0,32.000000
-17,12,60,1623676087.0,32.000000
-17,13,60,1623676087.0,32.000000
-19,12,59,1623676087.0,32.000000
-19,12,59,1623676087.0,32.000000
-19,11,59,1623676087.0,32.000000
-19,11,59,1623676087.0,32.000000
-19,12,59,1623676087.0,32.000000
-20,12,58,1623676087.0,32.000000
-20,12,58,1623676087.0,32.000000
-19,12,59,1623676087.0,32.000000
-18,13,60,1623676087.0,32.000000
-18,13,60,1623676087.0,32.000000
-19,12,59,1623676087.0,32.000000
-19,12,59,1623676087.0,32.000000
-19,12,59,1623676087.0,32.000000
-20,12,58,1623676087.0,32.000000
-19,12,59,1623676087.0,32.000000
-19,11,59,1623676087.0,32.000000
-19,12,59,1623676087.0,32.000000
-19,13,59,1623676087.0,32.000000
-19,12,59,1623676087.0,32.000000
-18,13,59,1623676087.0,32.000000
-18,12,60,1623676087.0,32.000000
-19,12,59,1623676087.0,32.000000
-20,12,59,1623676087.0,32.000000
-18,12,59,1623676087.0,32.000000
-19,12,59,1623676087.0,32.000000
-20,12,59,1623676087.0,32.000000
-19,12,59,1623676087.0,32.000000
-18,12,59,1623676087.0,32.000000
-19,12,60,1623676087.0,32.000000
-19,12,59,1623676087.0,32.000000
-18,12,59,1623676087.0,32.000000
-19,12,59,1623676087.0,32.000000
-19,12,59,1623676087.0,32.000000
-19,12,59,1623676087.0,32.000000
-19,12,59,1623676087.0,32.000000
-19,12,59,1623676087.0,32.000000
-19,12,58,1623676087.0,32.000000
-19,12,59,1623676087.0,32.000000
-18,12,59,1623676087.0,32.000000
-19,13,59,1623676087.0,32.000000
-19,12,59,1623676087.0,32.000000
-19,12,59,1623676087.0,32.000000
-19,12,59,1623676087.0,32.000000
-19,12,59,1623676087.0,32.000000
-19,12,59,1623676087.0,32.000000
-19,12,59,1623676087.0,32.000000
-19,12,59,1623676087.0,32.000000
-19,12,59,1623676087.0,32.000000
-19,12,59,1623676087.0,32.000000
-19,12,59,1623676087.0,32.000000
-19,12,59,1623676087.0,32.000000
-19,13,59,1623676087.0,32.000000
-18,12,60,1623676087.0,32.000000
-18,12,60,1623676087.0,32.000000
-20,12,59,1623676087.0,32.000000
-19,12,58,1623676087.0,32.000000
-19,13,59,1623676087.0,32.000000
-18,12,59,1623676087.0,32.000000
-19,12,59,1623676087.0,32.000000
-19,12,59,1623676087.0,32.000000
-19,13,59,1623676087.0,32.000000
-19,12,59,1623676087.0,32.000000
-19,12,59,1623676087.0,32.000000
-19,12,59,1623676087.0,32.000000
-19,12,59,1623676087.0,32.000000
-19,12,59,1623676087.0,32.000000
-19,12,59,1623676087.0,32.000000
-19,12,59,1623676087.0,32.000000
-19,12,59,1623676087.0,32.000000
-19,12,59,1623676087.0,32.000000
-19,12,59,1623676087.0,32.000000
-19,12,59,1623676087.0,32.000000
-19,12,59,1623676087.0,32.000000
-19,12,59,1623676087.0,32.000000
-19,12,59,1623676087.0,32.000000
-19,12,59,1623676087.0,32.000000
-19,12,59,1623676087.0,32.000000
-19,12,59,1623676087.0,32.000000
-19,12,59,1623676087.0,32.000000
-19,12,59,1623676087.0,32.000000
-19,12,59,1623676087.0,32.000000
-19,12,59,1623676087.0,32.000000
-19,12,59,1623676087.0,32.000000
-19,12,59,1623676087.0,32.000000
-19,12,59,1623676087.0,32.000000
-19,12,59,1623676087.0,32.000000
-19,12,59,1623676087.0,32.000000
-19,12,59,1623676087.0,32.000000
-19,12,59,1623676087.0,32.000000
-19,12,59,1623676087.0,32.000000
-19,12,59,1623676087.0,32.000000
-19,12,59,1623676087.0,32.000000
-19,12,59,1623676087.0,32.000000
-19,12,59,1623676087.0,32.000000
-19,12,59,1623676087.0,32.000000
-19,12,59,1623676087.0,32.000000
-19,12,59,1623676087.0,32.000000
-19,12,59,1623676087.0,32.000000
-19,12,59,1623676087.0,32.000000
-19,12,59,1623676087.0,32.000000
-19,12,59,1623676087.0,32.000000
-19,12,59,1623676087.0,32.000000
-19,12,59,1623676087.0,32.000000
-19,12,59,1623676087.0,32.000000
-19,12,59,1623676087.0,32.000000
-19,12,59,1623676087.0,32.000000
-19,12,59,1623676087.0,32.000000
-19,12,59,1623676087.0,32.000000
-18,12,60,1623676087.0,32.000000
-19,13,59,1623676087.0,32.000000
-19,13,59,1623676087.0,32.000000
-18,12,59,1623676087.0,32.000000
-18,12,60,1623676087.0,32.000000
-19,12,59,1623676087.0,32.000000
-19,13,59,1623676087.0,32.000000
-18,12,59,1623676087.0,32.000000
-19,12,59,1623676087.0,32.000000
-19,12,59,1623676087.0,32.000000
-19,13,59,1623676087.0,32.000000
-18,12,59,1623676087.0,32.000000
-19,12,59,1623676087.0,32.000000
-19,12,59,1623676087.0,32.000000
-19,12,59,1623676087.0,32.000000
-19,12,59,1623676087.0,32.000000
-18,12,59,1623676087.0,32.000000
-18,12,59,1623676087.0,32.000000
-20,12,59,1623676087.0,32.000000
-19,13,59,1623676087.0,32.000000
-18,12,60,1623676087.0,32.000000
-19,12,59,1623676087.0,32.000000
-19,12,59,1623676087.0,32.000000
-19,13,59,1623676087.0,32.000000
-19,12,60,1623676087.0,32.000000
-19,12,59,1623676087.0,32.000000
-20,11,58,1623676087.0,32.000000
-19,13,59,1623676087.0,32.000000
-19,13,59,1623676087.0,32.000000
-17,12,60,1623676087.0,32.000000
-16,13,60,1623676087.0,32.000000
-17,14,60,1623676087.0,32.000000
-24,11,57,1623676087.0,32.000000
-22,13,58,1623676087.0,32.000000
-18,9,60,1623676087.0,32.000000
-19,8,59,1623676087.0,32.000000
-18,12,58,1623676087.0,32.000000
-17,16,60,1623676087.0,32.000000
-15,15,60,1623676087.0,32.000000
-18,13,59,1623676087.0,32.000000
-20,12,59,1623676087.0,32.000000
-21,12,59,1623676087.0,32.000000
-20,12,58,1623676087.0,32.000000
-19,11,59,1623676087.0,32.000000
-19,12,59,1623676087.0,32.000000
-19,13,58,1623676087.0,32.000000
-17,13,60,1623676087.0,32.000000
-16,13,60,1623676087.0,32.000000
-17,13,60,1623676087.0,32.000000
-20,12,59,1623676087.0,32.000000
-20,11,59,1623676087.0,32.000000
-19,11,59,1623676087.0,32.000000
-19,12,59,1623676087.0,32.000000
-19,12,58,1623676087.0,32.000000
-19,13,59,1623676087.0,32.000000
-17,13,60,1623676087.0,32.000000
-17,13,60,1623676087.0,32.000000
-18,13,59,1623676087.0,32.000000
-19,12,59,1623676087.0,32.000000
-19,12,59,1623676087.0,32.000000
-19,11,59,1623676087.0,32.000000
-19,12,59,1623676087.0,32.000000
-19,13,59,1623676087.0,32.000000
-18,12,59,1623676087.0,32.000000
-18,12,59,1623676087.0,32.000000
-19,12,59,1623676087.0,32.000000
-19,12,59,1623676087.0,32.000000
-19,12,59,1623676087.0,32.000000
-18,13,59,1623676087.0,32.000000
-18,12,59,1623676087.0,32.000000
-19,12,59,1623676087.0,32.000000
-19,12,59,1623676087.0,32.000000
-19,12,59,1623676087.0,32.000000
-18,13,59,1623676087.0,32.000000
-19,12,60,1623676087.0,32.000000
-19,13,59,1623676087.0,32.000000
-16,13,60,1623676087.0,32.000000
-16,13,60,1623676087.0,32.000000
-16,14,59,1623676087.0,32.000000
-17,13,60,1623676087.0,32.000000
-18,13,59,1623676087.0,32.000000
-17,13,59,1623676087.0,32.000000
-17,13,59,1623676087.0,32.000000
-16,14,60,1623676087.0,32.000000
-16,14,60,1623676087.0,32.000000
-16,14,60,1623676087.0,32.000000
-16,14,60,1623676087.0,32.000000
-16,10,59,1623676087.0,32.000000
-16,14,59,1623676087.0,32.000000
-14,13,60,1623676087.0,32.000000
-12,13,61,1623676087.0,32.000000
-11,15,60,1623676087.0,32.000000
-11,14,60,1623676087.0,32.000000
-14,14,60,1623676087.0,32.000000
-12,12,61,1623676087.0,32.000000
-11,12,62,1623676087.0,32.000000
-13,14,62,1623676087.0,32.000000
-14,14,63,1623676087.0,32.000000
-14,12,62,1623676087.0,32.000000
-7,14,52,1623676087.0,32.000000
-2,15,57,1623676087.0,32.000000
-1,17,59,1623676087.0,32.000000
4,5,66,1623676087.0,32.000000
-1,7,69,1623676087.0,32.000000
-21,16,53,1623676087.0,32.000000
-11,12,57,1623676087.0,32.000000
3,12,62,1623676087.0,32.000000
1,12,63,1623676087.0,32.000000
-3,10,59,1623676087.0,32.000000
-2,9,62,1623676087.0,32.000000
8,10,59,1623676087.0,32.000000
7,9,59,1623676087.0,32.000000
2,11,70,1623676087.0,32.000000
1,10,73,1623676087.0,32.000000
0,8,63,1623676087.0,32.000000
-4,3,60,1623676087.0,32.000000
-11,-1,67,1623676087.0,32.000000
-9,0,61,1623676087.0,32.000000
-11,-1,62,1623676087.0,32.000000
-14,-2,69,1623676087.0,32.000000
-12,-1,62,1623676087.0,32.000000
-15,-1,63,1623676087.0,32.000000
-15,0,63,1623676087.0,32.000000
-13,0,61,1623676087.0,32.000000
-12,0,61,1623676087.0,32.000000
-15,0,62,1623676087.0,32.000000
-13,-1,62,1623676087.0,32.000000
-15,1,61,1623676087.0,32.000000
-13,2,60,1623676087.0,32.000000
-12,1,61,1623676087.0,32.000000
-16,0,63,1623676087.0,32.000000
-16,0,62,1623676087.0,32.000000
-14,0,62,1623676087.0,32.000000
-13,0,60,1623676087.0,32.000000
-14,0,61,1623676087.0,32.000000
-15,-1,62,1623676087.0,32.000000
-15,-1,62,1623676087.0,32.000000
-15,-1,62,1623676087.0,32.000000
-15,-1,60,1623676087.0,32.000000
-15,-1,60,1623676087.0,32.000000
-15,-1,62,1623676087.0,32.000000
-15,-1,62,1623676087.0,32.000000
-15,-1,62,1623676087.0,32.000000
-16,-1,61,1623676087.0,32.000000
-15,-1,62,1623676087.0,32.000000
-15,-1,61,1623676087.0,32.000000
-16,-1,61,1623676087.0,32.000000
-15,-1,61,1623676087.0,32.000000
-16,0,61,1623676087.0,32.000000
-15,-1,60,1623676087.0,32.000000
-17,-1,62,1623676087.0,32.000000
-16,-1,61,1623676087.0,32.000000
-16,-1,61,1623676087.0,32.000000
-16,-2,61,1623676087.0,32.000000
-19,-1,60,1623676087.0,32.000000
-18,-2,61,1623676087.0,32.000000
-18,-2,60,1623676087.0,32.000000
-18,-1,61,1623676087.0,32.000000
-17,-1,60,1623676087.0,32.000000
-17,-2,61,1623676087.0,32.000000
-17,-1,61,1623676087.0,32.000000
-16,-1,61,1623676087.0,32.000000
-16,-1,61,1623676087.0,32.000000
-16,-2,61,1623676087.0,32.000000
-17,-1,61,1623676087.0,32.000000
-17,-1,61,1623676087.0,32.000000
-16,-1,61,1623676087.0,32.000000
-18,-1,60,1623676087.0,32.000000
-17,-1,61,1623676087.0,32.000000
-18,-1,61,1623676087.0,32.000000
-17,-1,61,1623676087.0,32.000000
-18,-1,60,1623676087.0,32.000000
-18,-2,61,1623676087.0,32.000000
-17,-1,61,1623676087.0,32.000000
-17,-1,61,1623676087.0,32.000000
-16,-1,61,1623676087.0,32.000000
-17,-1,61,1623676087.0,32.000000
-17,-1,61,1623676087.0,32.000000
-17,-1,61,1623676087.0,32.000000
-17,-1,61,1623676087.0,32.000000
-18,-1,60,1623676087.0,32.000000
-19,-1,61,1623676087.0,32.000000
-17,-1,61,1623676087.0,32.000000
-17,-1,60,1623676087.0,32.000000
-17,-1,61,1623676087.0,32.000000
-18,-1,61,1623676087.0,32.000000
-18,-1,61,1623676087.0,32.000000
-17,-2,61,1623676087.0,32.000000
-17,-1,61,1623676087.0,32.000000
-18,-1,61,1623676087.0,32.000000
-18,-1,61,1623676087.0,32.000000
-18,-1,61,1623676087.0,32.000000
-18,-1,60,1623676087.0,32.000000
-17,-1,61,1623676087.0,32.000000
-17,-2,61,1623676087.0,32.000000
-18,-1,61,1623676087.0,32.000000
-18,-2,61,1623676087.0,32.000000
-18,-1,61,1623676087.0,32.000000
-17,-1,60,1623676087.0,32.000000
-18,-1,61,1623676087.0,32.000000
-17,-1,61,1623676087.0,32.000000
-17,-1,61,1623676087.0,32.000000
-18,-1,61,1623676087.0,32.000000
-16,-1,61,1623676087.0,32.000000
-17,-1,61,1623676087.0,32.000000
-17,-2,61,1623676087.0,32.000000
-17,-1,61,1623676087.0,32.000000
-17,-1,61,1623676087.0,32.000000
-18,-1,61,1623676087.0,32.000000
-18,0,61,1623676087.0,32.000000
-17,-1,61,1623676087.0,32.000000
-17,-1,61,1623676087.0,32.000000
-17,-1,61,1623676087.0,32.000000
-18,-1,61,1623676087.0,32.000000
-18,0,62,1623676087.0,32.000000
-17,-1,61,1623676087.0,32.000000
-16,-1,60,1623676087.0,32.000000
-17,-1,60,1623676087.0,32.000000
-18,-1,61,1623676087.0,32.000000
-18,-1,61,1623676087.0,32.000000
-18,-1,61,1623676087.0,32.000000
-17,-1,61,1623676087.0,32.000000
-17,-1,61,1623676087.0,32.000000
-17,-1,61,1623676087.0,32.000000
-19,-1,61,1623676087.0,32.000000
-18,-1,61,1623676087.0,32.000000
-17,-1,61,1623676087.0,32.000000
-18,-1,60,1623676087.0,32.000000
-18,0,61,1623676087.0,32.000000
-18,-1,61,1623676087.0,32.000000
-18,-1,61,1623676087.0,32.000000
-18,-1,61,1623676087.0,32.000000
-18,-1,61,1623676087.0,32.000000
-18,0,60,1623676087.0,32.000000
-18,-1,61,1623676087.0,32.000000
-19,0,61,1623676087.0,32.000000
-18,-1,60,1623676087.0,32.000000
-18,-1,61,1623676087.0,32.000000
-18,0,61,1623676087.0,32.000000
-18,0,61,1623676087.0,32.000000
-18,0,60,1623676087.0,32.000000
-18,-1,61,1623676087.0,32.000000
-19,-1,61,1623676087.0,32.000000
-18,0,61,1623676087.0,32.000000
-18,0,60,1623676087.0,32.000000
-18,-1,61,1623676087.0,32.000000
-18,0,60,1623676087.0,32.000000
-18,-1,60,1623676087.0,32.000000
-18,-1,61,1623676087.0,32.000000
-19,-1,61,1623676087.0,32.000000
-18,-1,60,1623676087.0,32.000000
-18,-1,60,1623676087.0,32.000000
-18,-1,61,1623676087.0,32.000000
-18,-1,60,1623676087.0,32.000000
-19,0,60,1623676087.0,32.000000
-19,-1,60,1623676087.0,32.000000
-18,-1,60,1623676087.0,32.000000
-19,0,60,1623676087.0,32.000000
-19,-1,61,1623676087.0,32.000000
-19,-1,60,1623676087.0,32.000000
-19,-1,60,1623676087.0,32.000000
-19,-1,60,1623676087.0,32.000000
-19,-1,60,1623676087.0,32.000000
-19,-1,60,1623676087.0,32.000000
-19,-1,61,1623676087.0,32.000000
-19,-1,60,1623676087.0,32.000000
-19,-1,60,1623676087.0,32.000000
-19,-1,60,1623676087.0,32.000000
-19,-1,61,1623676087.0,32.000000
-19,-1,60,1623676087.0,32.000000
-19,-1,60,1623676087.0,32.000000
-19,-1,60,1623676087.0,32.000000
-19,-1,60,1623676087.0,32.000000
-19,-1,60,1623676087.0,32.000000
-19,-1,60,1623676087.0,32.000000
-19,-1,60,1623676087.0,32.000000
-19,-1,60,1623676087.0,32.000000
-19,-1,60,1623676087.0,32.000000
-19,-1,60,1623676087.0,32.000000
-19,-1,60,1623676087.0,32.000000
-20,-1,60,1623676087.0,32.000000
-19,-1,60,1623676087.0,32.000000
-20,-1,61,1623676087.0,32.000000
-19,-1,60,1623676087.0,32.000000
-19,-1,60,1623676087.0,32.000000
-19,-1,60,1623676087.0,32.000000
-19,-1,60,1623676087.0,32.000000
-19,-1,60,1623676087.0,32.000000
-19,-1,60,1623676087.0,32.000000
-19,-1,60,1623676087.0,32.000000
-19,-1,60,1623676087.0,32.000000
-19,-1,60,1623676087.0,32.000000
-19,-1,60,1623676087.0,32.000000
-19,-1,60,1623676087.0,32.000000
-19,-1,61,1623676087.0,32.000000
-19,-1,60,1623676087.0,32.000000
-19,-1,60,1623676087.0,32.000000
-19,-1,61,1623676087.0,32.000000
-19,-1,60,1623676087.0,32.000000
-19,-1,60,1623676087.0,32.000000
-19,-1,60,1623676087.0,32.000000
-19,-1,60,1623676087.0,32.000000
-19,-1,60,1623676087.0,32.000000
-20,-1,60,1623676087.0,32.000000
-19,-1,60,1623676087.0,32.000000
-19,-1,60,1623676087.0,32.000000
-19,-1,60,1623676087.0,32.000000
-19,-1,61,1623676087.0,32.000000
-19,-1,60,1623676087.0,32.000000
-19,-1,60,1623676087.0,32.000000
-19,-1,60,1623676087.0,32.000000
-19,-1,60,1623676087.0,32.000000
-19,-1,60,1623676087.0,32.000000
-19,-1,60,1623676087.0,32.000000
-19,-1,60,1623676087.0,32.000000
-19,-1,60,1623676087.0,32.000000
-19,-1,60,1623676087.0,32.000000
-19,-1,60,1623676087.0,32.000000
-19,-1,60,1623676087.0,32.000000
-19,-1,60,1623676087.0,32.000000
-19,-1,60,1623676087.0,32.000000
-18,-1,60,1623676087.0,32.000000
-19,-1,60,1623676087.0,32.000000
-18,-1,60,1623676087.0,32.000000
-19,-1,60,1623676087.0,32.000000
-19,-1,61,1623676087.0,32.000000
-19,-1,61,1623676087.0,32.000000
-19,-1,60,1623676087.0,32.000000
-19,-1,60,1623676087.0,32.000000
-19,-1,61,1623676087.0,32.000000
-19,-1,60,1623676087.0,32.000000
-18,-1,60,1623676087.0,32.000000
-19,-1,60,1623676087.0,32.000000
-19,-1,60,1623676087.0,32.000000
-19,-1,61,1623676087.0,32.000000
-19,-1,60,1623676087.0,32.000000
-19,-1,61,1623676087.0,32.000000
-19,-1,61,1623676087.0,32.000000
-18,-1,60,1623676087.0,32.000000
-18,-1,60,1623676087.0,32.000000
-19,-1,61,1623676087.0,32.000000
-19,-1,61,1623676087.0,32.000000
-18,-1,60,1623676087.0,32.000000
-19,-1,60,1623676087.0,32.000000
-18,-1,60,1623676087.0,32.000000
-19,-1,61,1623676087.0,32.000000
-18,0,59,1623676087.0,32.000000
-18,-1,61,1623676087.0,32.000000
-19,-1,61,1623676087.0,32.000000
-18,-1,61,1623676087.0,32.000000
-19,-1,60,1623676087.0,32.000000
-19,-1,60,1623676087.0,32.000000
-19,-1,60,1623676087.0,32.000000
-18,-1,60,1623676087.0,32.000000
-19,-1,60,1623676087.0,32.000000
-19,-1,61,1623676087.0,32.000000
-19,-1,61,1623676087.0,32.000000
-19,-1,60,1623676087.0,32.000000
-19,-1,60,1623676087.0,32.000000
-19,-1,60,1623676087.0,32.000000
-19,-1,60,1623676087.0,32.000000
-19,-1,60,1623676087.0,32.000000
-19,-1,60,1623676087.0,32.000000
-19,-1,60,1623676087.0,32.000000
-19,-1,60,1623676087.0,32.000000
-19,-1,61,1623676087.0,32.000000
-19,-1,60,1623676087.0,32.000000
-19,-1,60,1623676087.0,32.000000
-19,-1,60,1623676087.0,32.000000
-19,-1,61,1623676087.0,32.000000
-19,-1,60,1623676087.0,32.000000
-19,-1,60,1623676087.0,32.000000
-19,-1,60,1623676087.0,32.000000
-19,-1,60,1623676087.0,32.000000
-19,-1,60,1623676087.0,32.000000
-19,-1,60,1623676087.0,32.000000
-19,-1,60,1623676087.0,32.000000
-19,-1,60,1623676087.0,32.000000
-19,-1,61,1623676087.0,32.000000
-19,-1,60,1623676087.0,32.000000
-19,-1,60,1623676087.0,32.000000
-19,-1,60,1623676087.0,32.000000
-19,-1,60,1623676087.0,32.000000
-20,-1,60,1623676087.0,32.000000
-19,-1,60,1623676087.0,32.000000
-20,-1,60,1623676087.0,32.000000
-19,-1,60,1623676087.0,32.000000
-19,-1,60,1623676087.0,32.000000
-19,-1,60,1623676087.0,32.000000
-19,-1,60,1623676087.0,32.000000
-20,-1,60,1623676087.0,32.000000
-19,-1,61,1623676087.0,32.000000
-20,-1,60,1623676087.0,32.000000
-19,-1,60,1623676087.0,32.000000
-20,-1,60,1623676087.0,32.000000
-19,-1,60,1623676087.0,32.000000
-20,-1,60,1623676087.0,32.000000
-20,-1,60,1623676087.0,32.000000
-20,-1,61,1623676087.0,32.000000
-19,-2,60,1623676087.0,32.000000
-19,-1,60,1623676087.0,32.000000
-20,-1,60,1623676087.0,32.000000
-19,-1,60,1623676087.0,32.000000
-19,-1,60,1623676087.0,32.000000
-20,-1,60,1623676087.0,32.000000
-19,-1,60,1623676087.0,32.000000
-19,-1,60,1623676087.0,32.000000
-20,-1,60,1623676087.0,32.000000
-20,-2,60,1623676087.0,32.000000
-20,-1,60,1623676087.0,32.000000
-19,-1,60,1623676087.0,32.000000
-20,-1,60,1623676087.0,32.000000
-20,-2,60,1623676087.0,32.000000
-19,-2,60,1623676087.0,32.000000
-19,-2,60,1623676087.0,32.000000
-19,-1,60,1623676087.0,32.000000
-20,-1,60,1623676087.0,32.000000
-19,-1,60,1623676087.0,32.000000
-19,-1,60,1623676087.0,32.000000
-19,-2,60,1623676087.0,32.000000
-20,-1,60,1623676087.0,32.000000
-19,-1,60,1623676087.0,32.000000
-19,-1,60,1623676087.0,32.000000
-19,-1,60,1623676087.0,32.000000
-19,-2,60,1623676087.0,32.000000
-19,-1,60,1623676087.0,32.000000
-19,-1,61,1623676087.0,32.000000
-19,-1,60,1623676087.0,32.000000
-19,-1,60,1623676087.0,32.000000
-19,-1,60,1623676087.0,32.000000
-19,-1,61,1623676087.0,32.000000
-19,-1,60,1623676087.0,32.000000
-19,-1,60,1623676087.0,32.000000
-20,-1,60,1623676087.0,32.000000
-19,-1,60,1623676087.0,32.000000
-20,-1,60,1623676087.0,32.000000
-19,-1,60,1623676087.0,32.000000
-19,-1,60,1623676087.0,32.000000
-19,-1,60,1623676087.0,32.000000
-19,-1,60,1623676087.0,32.000000
-19,-1,60,1623676087.0,32.000000
-20,-1,60,1623676087.0,32.000000
-19,-1,60,1623676087.0,32.000000
-19,-1,60,1623676087.0,32.000000
-19,-1,60,1623676087.0,32.000000
-19,-1,60,1623676087.0,32.000000
-19,-1,60,1623676087.0,32.000000
-19,-1,60,1623676087.0,32.000000
-19,-1,60,1623676087.0,32.000000
-19,-1,60,1623676087.0,32.000000
-19,-1,60,1623676087.0,32.000000
-19,-1,60,1623676087.0,32.000000
-19,-1,60,1623676087.0,32.000000
-19,-1,60,1623676087.0,32.000000
-19,-1,60,1623676087.0,32.000000
-19,-2,60,1623676087.0,32.000000
-19,-1,60,1623676087.0,32.000000
-19,-1,60,1623676087.0,32.000000
-19,-1,60,1623676087.0,32.000000
-19,-1,60,1623676087.0,32.000000
-19,-1,60,1623676087.0,32.000000
-19,-1,60,1623676087.0,32.000000
-20,-1,60,1623676087.0,32.000000
-19,-1,60,1623676087.0,32.000000
-19,-1,60,1623676087.0,32.000000
-19,-1,60,1623676087.0,32.000000
-19,-1,60,1623676087.0,32.000000
-19,-1,60,1623676087.0,32.000000
-19,-1,60,1623676087.0,32.000000
-19,-1,60,1623676087.0,32.000000
-19,-1,60,1623676087.0,32.000000
-19,-1,60,1623676087.0,32.000000
-19,-1,60,1623676087.0,32.000000
-19,-1,60,1623676087.0,32.000000
-19,-1,60,1623676087.0,32.000000
-19,-1,61,1623676087.0,32.000000
-19,-2,59,1623676087.0,32.000000
-19,-1,60,1623676087.0,32.000000
-19,-1,60,1623676087.0,32.000000
-19,-1,60,1623676087.0,32.000000
-19,-1,60,1623676087.0,32.000000
-19,-1,61,1623676087.0,32.000000
-19,-1,60,1623676087.0,32.000000
-19,-1,60,1623676087.0,32.000000
-19,-1,60,1623676087.0,32.000000
-19,-1,60,1623676087.0,32.000000
-19,-1,60,1623676087.0,32.000000
-19,-1,60,1623676087.0,32.000000
-19,-1,60,1623676087.0,32.000000
-19,-1,60,1623676087.0,32.000000
-19,-1,60,1623676087.0,32.000000
-19,-1,60,1623676087.0,32.000000
-19,-1,60,1623676087.0,32.000000
-20,-1,60,1623676087.0,32.000000
-20,-1,60,1623676087.0,32.000000
-20,-2,60,1623676087.0,32.000000
-20,-2,60,1623676087.0,32.000000
-19,-1,60,1623676087.0,32.000000
-19,-1,60,1623676087.0,32.000000
-19,-1,60,1623676087.0,32.000000
-19,-1,60,1623676087.0,32.000000
-19,-1,60,1623676087.0,32.000000
-18,-1,60,1623676087.0,32.000000
-19,-1,60,1623676087.0,32.000000
-19,-1,60,1623676087.0,32.000000
-19,-1,61,1623676087.0,32.000000
-19,-1,60,1623676087.0,32.000000
-19,-1,60,1623676087.0,32.000000
-20,-1,60,1623676087.0,32.000000
-20,-1,60,1623676087.0,32.000000
-19,-1,60,1623676087.0,32.000000
-20,-2,60,1623676087.0,32.000000
-19,-1,60,1623676087.0,32.000000
-20,-1,60,1623676087.0,32.000000
-19,-2,60,1623676087.0,32.000000
-19,-2,60,1623676087.0,32.000000
-19,-2,60,1623676087.0,32.000000
-19,-1,60,1623676087.0,32.000000
-19,-1,60,1623676087.0,32.000000
-19,-1,60,1623676087.0,32.000000
-19,-1,61,1623676087.0,32.000000
-19,-1,60,1623676087.0,32.000000
-19,-1,60,1623676087.0,32.000000
-19,-1,60,1623676087.0,32.000000
-19,-1,60,1623676087.0,32.000000
-19,-1,60,1623676087.0,32.000000
-19,-1,60,1623676087.0,32.000000
-20,-1,60,1623676087.0,32.000000
-20,-1,60,1623676087.0,32.000000
-20,-2,60,1623676087.0,32.000000
-20,-1,60,1623676087.0,32.000000
-20,-2,60,1623676087.0,32.000000
-20,-2,60,1623676087.0,32.000000
-20,-1,60,1623676087.0,32.000000
-20,-1,60,1623676087.0,32.000000
-19,-1,60,1623676087.0,32.000000
-19,-1,60,1623676087.0,32.000000
-19,-1,60,1623676087.0,32.000000
-19,-1,60,1623676087.0,32.000000
-19,-1,60,1623676087.0,32.000000
-19,-1,61,1623676087.0,32.000000
-19,-1,60,1623676087.0,32.000000
-19,-1,60,1623676087.0,32.000000
-19,-1,60,1623676087.0,32.000000
-19,-1,60,1623676087.0,32.000000
-19,-1,60,1623676087.0,32.000000
-19,-1,60,1623676087.0,32.000000
-19,-1,60,1623676087.0,32.000000
-20,-1,60,1623676087.0,32.000000
-20,-1,60,1623676087.0,32.000000
-20,-2,60,1623676087.0,32.000000
-20,-1,60,1623676087.0,32.000000
-20,-1,60,1623676087.0,32.000000
-20,-1,60,1623676087.0,32.000000
-20,-1,60,1623676087.0,32.000000
-20,-2,60,1623676087.0,32.000000
-19,-1,60,1623676087.0,32.000000
-19,-1,60,1623676087.0,32.000000
-19,-1,60,1623676087.0,32.000000
-19,-1,61,1623676087.0,32.000000
-19,-1,61,1623676087.0,32.000000
-19,-1,60,1623676087.0,32.000000
-19,-1,60,1623676087.0,32.000000
-19,-1,60,1623676087.0,32.000000
-19,-2,60,1623676087.0,32.000000
-18,-2,61,1623676087.0,32.000000
-18,-1,61,1623676087.0,32.000000
-19,-1,60,1623676087.0,32.000000
-19,-1,60,1623676087.0,32.000000
-20,-1,60,1623676087.0,32.000000
-20,-1,60,1623676087.0,32.000000
-20,-1,60,1623676087.0,32.000000
-20,-2,60,1623676087.0,32.000000
-19,-2,60,1623676087.0,32.000000
-20,-1,60,1623676087.0,32.000000
-20,-2,60,1623676087.0,32.000000
-19,-2,60,1623676087.0,32.000000
-19,-1,60,1623676087.0,32.000000
-19,-1,60,1623676087.0,32.000000
-19,-1,60,1623676087.0,32.000000
-19,-1,60,1623676087.0,32.000000
-19,-1,60,1623676087.0,32.000000
-19,-2,60,1623676087.0,32.000000
-19,-1,60,1623676087.0,32.000000
-19,-1,61,1623676087.0,32.000000
-19,-1,60,1623676087.0,32.000000
-19,-2,60,1623676087.0,32.000000
-19,-1,60,1623676087.0,32.000000
-20,-1,60,1623676087.0,32.000000
-20,-1,60,1623676087.0,32.000000
-20,-1,60,1623676087.0,32.000000
-20,-2,60,1623676087.0,32.000000
-20,-2,60,1623676087.0,32.000000
-20,-1,60,1623676087.0,32.000000
-20,-1,60,1623676087.0,32.000000
-20,-2,60,1623676087.0,32.000000
-20,-2,60,1623676087.0,32.000000
-20,-2,60,1623676087.0,32.000000
-20,-2,60,1623676087.0,32.000000
-20,-1,60,1623676087.0,32.000000
-20,-1,60,1623676087.0,32.000000
-19,-1,60,1623676087.0,32.000000
-19,-1,60,1623676087.0,32.000000
-20,-1,60,1623676087.0,32.000000
-19,-2,60,1623676087.0,32.000000
-20,-1,60,1623676087.0,32.000000
-20,-1,60,1623676087.0,32.000000
-20,-1,60,1623676087.0,32.000000
-20,-2,60,1623676087.0,32.000000
-20,-2,60,1623676087.0,32.000000
-20,-2,60,1623676087.0,32.000000
-19,-1,59,1623676087.0,32.000000
-20,-1,60,1623676087.0,32.000000
-20,-1,60,1623676087.0,32.000000
-20,-2,60,1623676087.0,32.000000
-20,-1,60,1623676087.0,32.000000
-20,-1,60,1623676087.0,32.000000
-20,-2,60,1623676087.0,32.000000
-20,-2,60,1623676087.0,32.000000
-20,-2,60,1623676087.0,32.000000
-20,-1,60,1623676087.0,32.000000
-20,-1,60,1623676087.0,32.000000
-20,-1,60,1623676087.0,32.000000
-19,-2,60,1623676087.0,32.000000
-19,-1,60,1623676087.0,32.000000
-19,-1,60,1623676087.0,32.000000
-20,-1,60,1623676087.0,32.000000
-20,-1,60,1623676087.0,32.000000
-20,-2,60,1623676087.0,32.000000
-20,-1,60,1623676087.0,32.000000
-20,-1,60,1623676087.0,32.000000
-20,-1,60,1623676087.0,32.000000
-20,-1,60,1623676087.0,32.000000
-20,-1,60,1623676087.0,32.000000
-20,-2,60,1623676087.0,32.000000
-20,-2,60,1623676087.0,32.000000
-20,-2,60,1623676087.0,32.000000
-20,-2,60,1623676087.0,32.000000
-20,-2,60,1623676087.0,32.000000
-20,-2,60,1623676087.0,32.000000
-20,-1,60,1623676087.0,32.000000
-20,-1,60,1623676087.0,32.000000
-20,-2,60,1623676087.0,32.000000
-20,-1,60,1623676087.0,32.000000
-20,-1,60,1623676087.0,32.000000
-20,-1,60,1623676087.0,32.000000
-19,-2,60,1623676087.0,32.000000
-20,-2,60,1623676087.0,32.000000
-20,-1,60,1623676087.0,32.000000
-20,-1,59,1623676087.0,32.000000
-20,-2,60,1623676087.0,32.000000
-20,-1,60,1623676087.0,32.000000
-20,-1,60,1623676087.0,32.000000
-20,-2,60,1623676087.0,32.000000
-20,-2,60,1623676087.0,32.000000
-20,-2,60,1623676087.0,32.000000
-21,-2,60,1623676087.0,32.000000
-20,-2,60,1623676087.0,32.000000
-20,-1,60,1623676087.0,32.000000
-20,-2,60,1623676087.0,32.000000
-20,-1,60,1623676087.0,32.000000
-20,-2,60,1623676087.0,32.000000
-20,-1,60,1623676087.0,32.000000
-20,-2,60,1623676087.0,32.000000
-20,-2,60,1623676087.0,32.000000
-20,-1,60,1623676087.0,32.000000
-20,-2,60,1623676087.0,32.000000
-21,-1,60,1623676087.0,32.000000
-20,-1,60,1623676087.0,32.000000
-20,-1,60,1623676087.0,32.000000
-20,-2,60,1623676087.0,32.000000
-21,-2,60,1623676087.0,32.000000
-20,-2,60,1623676087.0,32.000000
-20,-2,60,1623676087.0,32.000000
-21,-2,60,1623676087.0,32.000000
-21,-2,59,1623676087.0,32.000000
-21,-2,60,1623676087.0,32.000000
-21,-2,60,1623676087.0,32.000000
-20,-2,59,1623676087.0,32.000000
-20,-2,60,1623676087.0,32.000000
-20,-1,59,1623676087.0,32.000000
-20,-1,60,1623676087.0,32.000000
-20,-1,60,1623676087.0,32.000000
-20,-2,60,1623676087.0,32.000000
-20,-1,60,1623676087.0,32.000000
-20,-1,60,1623676087.0,32.000000
-20,-1,60,1623676087.0,32.000000
-21,-2,60,1623676087.0,32.000000
-21,-2,60,1623676087.0,32.000000
-21,-2,59,1623676087.0,32.000000
-21,-2,60,1623676087.0,32.000000
-21,-2,60,1623676087.0,32.000000
-20,-1,60,1623676087.0,32.000000
-20,-1,59,1623676087.0,32.000000
-20,-1,60,1623676087.0,32.000000
-19,-1,60,1623676087.0,32.000000
-21,-1,60,1623676087.0,32.000000
-20,-2,60,1623676087.0,32.000000
-22,-2,59,1623676087.0,32.000000
-21,-2,60,1623676087.0,32.000000
-22,-2,59,1623676087.0,32.000000
-21,-2,60,1623676087.0,32.000000
-21,-1,60,1623676087.0,32.000000
-20,-1,60,1623676087.0,32.000000
-20,-1,60,1623676087.0,32.000000
-20,-1,60,1623676087.0,32.000000
-20,-1,60,1623676087.0,32.000000
-21,-1,60,1623676087.0,32.000000
-21,-2,59,1623676087.0,32.000000
-22,-2,59,1623676087.0,32.000000
-22,-2,59,1623676087.0,32.000000
-22,-2,59,1623676087.0,32.000000
-22,-2,60,1623676087.0,32.000000
-21,-2,60,1623676087.0,32.000000
-21,-2,59,1623676087.0,32.000000
-20,-1,59,1623676087.0,32.000000
-20,-1,60,1623676087.0,32.000000
-20,-2,59,1623676087.0,32.000000
-20,-1,60,1623676087.0,32.000000
-20,0,60,1623676087.0,32.000000
-20,-1,60,1623676087.0,32.000000
-21,-2,59,1623676087.0,32.000000
-22,-2,60,1623676087.0,32.000000
-24,-3,59,1623676087.0,32.000000
-24,-3,59,1623676087.0,32.000000
-23,-3,59,1623676087.0,32.000000
-22,-2,59,1623676087.0,32.000000
-20,-1,60,1623676087.0,32.000000
-19,-1,60,1623676087.0,32.000000
-18,0,61,1623676087.0,32.000000
-18,0,60,1623676087.0,32.000000
-19,1,60,1623676087.0,32.000000
-21,0,60,1623676087.0,32.000000
-22,-1,59,1623676087.0,32.000000
-23,-3,59,1623676087.0,32.000000
-24,-4,59,1623676087.0,32.000000
-24,-4,59,1623676087.0,32.000000
-24,-3,59,1623676087.0,32.000000
-23,-3,58,1623676087.0,32.000000
-22,-2,60,1623676087.0,32.000000
-19,0,59,1623676087.0,32.000000
-19,0,60,1623676087.0,32.000000
-18,1,60,1623676087.0,32.000000
-19,1,60,1623676087.0,32.000000
-20,0,59,1623676087.0,32.000000
-22,-2,59,1623676087.0,32.000000
-24,-3,59,1623676087.0,32.000000
-25,-4,59,1623676087.0,32.000000
-25,-4,59,1623676087.0,32.000000
-25,-3,58,1623676087.0,32.000000
-22,-2,59,1623676087.0,32.000000
-21,-2,59,1623676087.0,32.000000
-18,-1,60,1623676087.0,32.000000
-18,0,60,1623676087.0,32.000000
-18,0,60,1623676087.0,32.000000
-19,1,59,1623676087.0,32.000000
-20,1,58,1623676087.0,32.000000
-23,-1,59,1623676087.0,32.000000
-25,-3,60,1623676087.0,32.000000
-25,-4,59,1623676087.0,32.000000
-24,-4,58,1623676087.0,32.000000
-23,-2,59,1623676087.0,32.000000
-22,-2,60,1623676087.0,32.000000
-21,0,60,1623676087.0,32.000000
-19,0,60,1623676087.0,32.000000
-18,-1,60,1623676087.0,32.000000
-18,1,60,1623676087.0,32.000000
-19,1,61,1623676087.0,32.000000
-22,0,59,1623676087.0,32.000000
-21,-1,59,1623676087.0,32.000000
-24,-2,59,1623676087.0,32.000000
-25,-3,60,1623676087.0,32.000000
-25,-3,59,1623676087.0,32.000000
-22,-3,59,1623676087.0,32.000000
-21,-2,59,1623676087.0,32.000000
-15,-4,62,1623676087.0,32.000000
-23,2,58,1623676087.0,32.000000
-22,1,59,1623676087.0,32.000000
-21,3,61,1623676087.0,32.000000
-18,1,59,1623676087.0,32.000000
-18,1,58,1623676087.0,32.000000
-21,0,59,1623676087.0,32.000000
-21,-2,59,1623676087.0,32.000000
-23,-3,61,1623676087.0,32.000000
-23,-3,60,1623676087.0,32.000000
-23,-3,59,1623676087.0,32.000000
-22,-2,59,1623676087.0,32.000000
-22,-2,60,1623676087.0,32.000000
-20,-1,59,1623676087.0,32.000000
-20,0,59,1623676087.0,32.000000
-20,0,59,1623676087.0,32.000000
-19,0,60,1623676087.0,32.000000
-20,0,60,1623676087.0,32.000000
-21,0,59,1623676087.0,32.000000
-22,-1,59,1623676087.0,32.000000
-22,-1,59,1623676087.0,32.000000
-23,-3,60,1623676087.0,32.000000
-23,-3,58,1623676087.0,32.000000
-22,-2,59,1623676087.0,32.000000
-21,-1,59,1623676087.0,32.000000
-21,-1,60,1623676087.0,32.000000
-20,-2,60,1623676087.0,32.000000
-19,-1,60,1623676087.0,32.000000
-18,-1,61,1623676087.0,32.000000
-18,1,60,1623676087.0,32.000000
-19,2,60,1623676087.0,32.000000
-20,0,59,1623676087.0,32.000000
-22,-3,60,1623676087.0,32.000000
-21,-3,60,1623676087.0,32.000000
-26,-3,60,1623676087.0,32.000000
-25,-3,58,1623676087.0,32.000000
-23,-2,59,1623676087.0,32.000000
-21,-1,59,1623676087.0,32.000000
-20,0,60,1623676087.0,32.000000
-17,0,61,1623676087.0,32.000000
-17,0,61,1623676087.0,32.000000
-18,1,60,1623676087.0,32.000000
-20,1,59,1623676087.0,32.000000
-22,1,59,1623676087.0,32.000000
-23,-2,59,1623676087.0,32.000000
-24,-4,59,1623676087.0,32.000000
-25,-4,60,1623676087.0,32.000000
-24,-4,59,1623676087.0,32.000000
-23,-3,59,1623676087.0,32.000000
-22,-3,60,1623676087.0,32.000000
-21,-1,59,1623676087.0,32.000000
-21,0,59,1623676087.0,32.000000
-19,-1,59,1623676087.0,32.000000
-19,-1,60,1623676087.0,32.000000
-20,0,60,1623676087.0,32.000000
-21,0,59,1623676087.0,32.000000
-21,0,59,1623676087.0,32.000000
-24,-2,58,1623676087.0,32.000000
-25,-3,59,1623676087.0,32.000000
-25,-4,60,1623676087.0,32.000000
-26,-4,58,1623676087.0,32.000000
-27,-4,58,1623676087.0,32.000000
-25,-3,58,1623676087.0,32.000000
-24,-2,58,1623676087.0,32.000000
-24,-2,58,1623676087.0,32.000000
-23,-2,59,1623676087.0,32.000000
-21,-1,59,1623676087.0,32.000000
-21,0,59,1623676087.0,32.000000
-22,1,58,1623676087.0,32.000000
-23,0,58,1623676087.0,32.000000
-24,-1,58,1623676087.0,32.000000
-26,-3,58,1623676087.0,32.000000
-27,-4,58,1623676087.0,32.000000
-28,-4,57,1623676087.0,32.000000
-27,-4,57,1623676087.0,32.000000
-26,-3,58,1623676087.0,32.000000
-25,-3,58,1623676087.0,32.000000
-24,-2,58,1623676087.0,32.000000
-23,-1,58,1623676087.0,32.000000
-22,0,58,1623676087.0,32.000000
-23,0,59,1623676087.0,32.000000
-25,-1,58,1623676087.0,32.000000
-26,-2,58,1623676087.0,32.000000
-27,-3,58,1623676087.0,32.000000
-26,-4,57,1623676087.0,32.000000
-28,-4,57,1623676087.0,32.000000
-25,-3,58,1623676087.0,32.000000
-25,-2,58,1623676087.0,32.000000
-23,-2,59,1623676087.0,32.000000
-22,-1,59,1623676087.0,32.000000
-22,0,59,1623676087.0,32.000000
-22,0,59,1623676087.0,32.000000
-22,-1,59,1623676087.0,32.000000
-24,-2,59,1623676087.0,32.000000
-25,-3,59,1623676087.0,32.000000
-25,-3,58,1623676087.0,32.000000
-26,-3,58,1623676087.0,32.000000
-25,-3,58,1623676087.0,32.000000
-25,-3,58,1623676087.0,32.000000
-23,-2,59,1623676087.0,32.000000
-23,-1,59,1623676087.0,32.000000
-22,-1,59,1623676087.0,32.000000
-22,0,59,1623676087.0,32.000000
-22,-1,59,1623676087.0,32.000000
-23,-1,59,1623676087.0,32.000000
-25,-2,59,1623676087.0,32.000000
-24,-3,59,1623676087.0,32.000000
-24,-3,58,1623676087.0,32.000000
-24,-3,58,1623676087.0,32.000000
-23,-2,58,1623676087.0,32.000000
-22,-1,58,1623676087.0,32.000000
-22,-1,59,1623676087.0,32.000000
-22,-1,58,1623676087.0,32.000000
-22,-1,59,1623676087.0,32.000000
-23,-2,59,1623676087.0,32.000000
-24,-2,58,1623676087.0,32.000000
-24,-3,59,1623676087.0,32.000000
-24,-3,59,1623676087.0,32.000000
-24,-2,59,1623676087.0,32.000000
-23,-2,59,1623676087.0,32.000000
-23,-2,59,1623676087.0,32.000000
-23,-2,59,1623676087.0,32.000000
-23,-2,59,1623676087.0,32.000000
-23,-2,58,1623676087.0,32.000000
-24,-2,59,1623676087.0,32.000000
-24,-2,58,1623676087.0,32.000000
-23,-2,59,1623676087.0,32.000000
-23,-2,59,1623676087.0,32.000000
-23,-2,59,1623676087.0,32.000000
-24,-2,59,1623676087.0,32.000000
-24,-2,59,1623676087.0,32.000000
-24,-2,59,1623676087.0,32.000000
-24,-2,59,1623676087.0,32.000000
-23,-2,58,1623676087.0,32.000000
-23,-2,58,1623676087.0,32.000000
-23,-2,59,1623676087.0,32.000000
-24,-2,58,1623676087.0,32.000000
-23,-2,59,1623676087.0,32.000000
-24,-1,58,1623676087.0,32.000000
-24,-2,59,1623676087.0,32.000000
-23,-2,59,1623676087.0,32.000000
-24,-2,58,1623676087.0,32.000000
-24,-2,58,1623676087.0,32.000000
-24,-2,59,1623676087.0,32.000000
-24,-2,58,1623676087.0,32.000000
-24,-2,58,1623676087.0,32.000000
-24,-2,58,1623676087.0,32.000000
-24,-2,58,1623676087.0,32.000000
-24,-1,58,1623676087.0,32.000000
-24,-2,59,1623676087.0,32.000000
-23,-2,58,1623676087.0,32.000000
-24,-2,58,1623676087.0,32.000000
-24,-2,58,1623676087.0,32.000000
-24,-2,58,1623676087.0,32.000000
-24,-1,58,1623676087.0,32.000000
-24,-2,59,1623676087.0,32.000000
-24,-2,58,1623676087.0,32.000000
-23,-2,58,1623676087.0,32.000000
-24,-2,58,1623676087.0,32.000000
-24,-2,59,1623676087.0,32.000000
-24,-2,58,1623676087.0,32.000000
-24,-2,58,1623676087.0,32.000000
-24,-2,58,1623676087.0,32.000000
-24,-2,59,1623676087.0,32.000000
-23,-2,58,1623676087.0,32.000000
-24,-2,59,1623676087.0,32.000000
-24,-2,58,1623676087.0,32.000000
-24,-2,59,1623676087.0,32.000000
-24,-2,58,1623676087.0,32.000000
-23,-2,58,1623676087.0,32.000000
-24,-2,59,1623676087.0,32.000000
-24,-2,58,1623676087.0,32.000000
-24,-2,58,1623676087.0,32.000000
-24,-2,58,1623676087.0,32.000000
-24,-2,58,1623676087.0,32.000000
-24,-2,59,1623676087.0,32.000000
-24,-2,59,1623676087.0,32.000000
-24,-2,58,1623676087.0,32.000000
-25,-2,58,1623676087.0,32.000000
-25,-2,58,1623676087.0,32.000000
-24,-2,58,1623676087.0,32.000000
-24,-2,59,1623676087.0,32.000000
-24,-2,58,1623676087.0,32.000000
-24,-2,58,1623676087.0,32.000000
-24,-2,58,1623676087.0,32.000000
-24,-2,58,1623676087.0,32.000000
-24,-2,58,1623676087.0,32.000000
-24,-2,58,1623676087.0,32.000000
-24,-2,58,1623676087.0,32.000000
-24,-2,58,1623676087.0,32.000000
-24,-2,58,1623676087.0,32.000000
-24,-2,58,1623676087.0,32.000000
-24,-2,58,1623676087.0,32.000000
-24,-2,59,1623676087.0,32.000000
-24,-2,58,1623676087.0,32.000000
-24,-2,58,1623676087.0,32.000000
-24,-2,58,1623676087.0,32.000000
-25,-2,59,1623676087.0,32.000000
-24,-2,58,1623676087.0,32.000000
-25,-2,59,1623676087.0,32.000000
-24,-2,58,1623676087.0,32.000000
-24,-2,58,1623676087.0,32.000000
-24,-2,59,1623676087.0,32.000000
-24,-2,58,1623676087.0,32.000000
-25,-2,58,1623676087.0,32.000000
-24,-2,58,1623676087.0,32.000000
-24,-2,58,1623676087.0,32.000000
-24,-2,58,1623676087.0,32.000000
-24,-2,58,1623676087.0,32.000000
-24,-2,58,1623676087.0,32.000000
-24,-2,58,1623676087.0,32.000000
-24,-2,58,1623676087.0,32.000000
-24,-2,58,1623676087.0,32.000000
-24,-2,58,1623676087.0,32.000000
-24,-2,58,1623676087.0,32.000000
-25,-2,59,1623676087.0,32.000000
-24,-2,58,1623676087.0,32.000000
-24,-2,58,1623676087.0,32.000000
-24,-2,58,1623676087.0,32.000000
-24,-2,58,1623676087.0,32.000000
-25,-2,58,1623676087.0,32.000000
-24,-2,58,1623676087.0,32.000000
-24,-2,58,1623676087.0,32.000000
-24,-2,58,1623676087.0,32.000000
-24,-2,58,1623676087.0,32.000000
-24,-2,58,1623676087.0,32.000000
-25,-2,58,1623676087.0,32.000000
-24,-2,58,1623676087.0,32.000000
-24,-2,58,1623676087.0,32.000000
-24,-2,58,1623676087.0,32.000000
-24,-2,58,1623676087.0,32.000000
-24,-2,58,1623676087.0,32.000000
-24,-2,59,1623676087.0,32.000000
-24,-2,58,1623676087.0,32.000000
-24,-2,58,1623676087.0,32.000000
-24,-2,58,1623676087.0,32.000000
-24,-2,58,1623676087.0,32.000000
-24,-2,58,1623676087.0,32.000000
-24,-2,58,1623676087.0,32.000000
-24,-2,59,1623676087.0,32.000000
-24,-2,59,1623676087.0,32.000000
-25,-2,59,1623676087.0,32.000000
-24,-2,58,1623676087.0,32.000000
-24,-2,58,1623676087.0,32.000000
-24,-2,58,1623676087.0,32.000000
-24,-2,59,1623676087.0,32.000000
-24,-2,58,1623676087.0,32.000000
-24,-2,58,1623676087.0,32.000000
-24,-2,58,1623676087.0,32.000000
-24,-2,59,1623676087.0,32.000000
-25,-2,58,1623676087.0,32.000000
-24,-2,58,1623676087.0,32.000000
-24,-2,58,1623676087.0,32.000000
-24,-2,58,1623676087.0,32.000000
-24,-2,58,1623676087.0,32.000000
-24,-2,58,1623676087.0,32.000000
-24,-2,58,1623676087.0,32.000000
-24,-2,58,1623676087.0,32.000000
-24,-2,59,1623676087.0,32.000000
-24,-2,59,1623676087.0,32.000000
-24,-2,58,1623676087.0,32.000000
-24,-2,58,1623676087.0,32.000000
-24,-2,58,1623676087.0,32.000000
-25,-2,59,1623676087.0,32.000000
-24,-2,58,1623676087.0,32.000000
-24,-2,59,1623676087.0,32.000000
-24,-2,58,1623676087.0,32.000000
-24,-1,58,1623676087.0,32.000000
-24,-2,58,1623676087.0,32.000000
-24,-2,59,1623676087.0,32.000000
-24,-2,58,1623676087.0,32.000000
-24,-2,58,1623676087.0,32.000000
-24,-2,58,1623676087.0,32.000000
-24,-2,58,1623676087.0,32.000000
-24,-2,58,1623676087.0,32.000000
-24,-2,58,1623676087.0,32.000000
-24,-2,58,1623676087.0,32.000000
-24,-2,58,1623676087.0,32.000000
-24,-2,58,1623676087.0,32.000000
-25,-2,58,1623676087.0,32.000000
-24,-2,58,1623676087.0,32.000000
-24,-2,58,1623676087.0,32.000000
-24,-2,58,1623676087.0,32.000000
-24,-2,58,1623676087.0,32.000000
-24,-2,59,1623676087.0,32.000000
-25,-2,58,1623676087.0,32.000000
-24,-2,58,1623676087.0,32.000000
-24,-2,58,1623676087.0,32.000000
-24,-2,59,1623676087.0,32.000000
-24,-2,58,1623676087.0,32.000000
-24,-2,58,1623676087.0,32.000000
-25,-2,58,1623676087.0,32.000000
-25,-2,58,1623676087.0,32.000000
-25,-2,58,1623676087.0,32.000000
-25,-2,58,1623676087.0,32.000000
-24,-2,58,1623676087.0,32.000000
-24,-2,58,1623676087.0,32.000000
-25,-2,58,1623676087.0,32.000000
-25,-2,58,1623676087.0,32.000000
-25,-2,58,1623676087.0,32.000000
-25,-2,58,1623676087.0,32.000000
-25,-2,58,1623676087.0,32.000000
-25,-2,58,1623676087.0,32.000000
-25,-2,58,1623676087.0,32.000000
-25,-2,58,1623676087.0,32.000000
-25,-2,58,1623676087.0,32.000000
-25,-2,58,1623676087.0,32.000000
-25,-2,58,1623676087.0,32.000000
-25,-2,58,1623676087.0,32.000000
-25,-2,58,1623676087.0,32.000000
-24,-2,58,1623676087.0,32.000000
-25,-2,58,1623676087.0,32.000000
-24,-2,59,1623676087.0,32.000000
-24,-2,58,1623676087.0,32.000000
-25,-2,58,1623676087.0,32.000000
-25,-2,58,1623676087.0,32.000000
-25,-2,58,1623676087.0,32.000000
-24,-2,58,1623676087.0,32.000000
-24,-2,59,1623676087.0,32.000000
-25,-2,58,1623676087.0,32.000000
-25,-2,58,1623676087.0,32.000000
-24,-2,58,1623676087.0,32.000000
-25,-2,59,1623676087.0,32.000000
-24,-2,58,1623676087.0,32.000000
-24,-2,58,1623676087.0,32.000000
-25,-2,59,1623676087.0,32.000000
-25,-2,58,1623676087.0,32.000000
-25,-2,58,1623676087.0,32.000000
-24,-2,58,1623676087.0,32.000000
-24,-2,58,1623676087.0,32.000000
-24,-2,59,1623676087.0,32.000000
-24,-2,58,1623676087.0,32.000000
-25,-2,58,1623676087.0,32.000000
-25,-2,58,1623676087.0,32.000000
-24,-2,59,1623676087.0,32.000000
-25,-2,58,1623676087.0,32.000000
-25,-2,58,1623676087.0,32.000000
-24,-2,58,1623676087.0,32.000000
-24,-2,58,1623676087.0,32.000000
-24,-2,58,1623676087.0,32.000000
-25,-1,58,1623676087.0,32.000000
-25,-2,58,1623676087.0,32.000000
-24,-2,58,1623676087.0,32.000000
-24,-2,58,1623676087.0,32.000000
-24,-2,58,1623676087.0,32.000000
-24,-2,59,1623676087.0,32.000000
-24,-2,58,1623676087.0,32.000000
-24,-2,58,1623676087.0,32.000000
-24,-2,58,1623676087.0,32.000000
-24,-2,58,1623676087.0,32.000000
-24,-2,58,1623676087.0,32.000000
-25,-2,58,1623676087.0,32.000000
-25,-2,58,1623676087.0,32.000000
-24,-2,58,1623676087.0,32.000000
-24,-2,58,1623676087.0,32.000000
-25,-2,58,1623676087.0,32.000000
-24,-2,58,1623676087.0,32.000000
-24,-2,58,1623676087.0,32.000000
-25,-2,58,1623676087.0,32.000000
-24,-2,58,1623676087.0,32.000000
-25,-2,58,1623676087.0,32.000000
-24,-2,59,1623676087.0,32.000000
-24,-2,58,1623676087.0,32.000000
-24,-2,58,1623676087.0,32.000000
-24,-2,58,1623676087.0,32.000000
-25,-2,58,1623676087.0,32.000000
-24,-2,59,1623676087.0,32.000000
-24,-2,58,1623676087.0,32.000000
-25,-2,58,1623676087.0,32.000000
-24,-2,58,1623676087.0,32.000000
-25,-2,59,1623676087.0,32.000000
-24,-2,58,1623676087.0,32.000000
-25,-2,58,1623676087.0,32.000000
-24,-2,58,1623676087.0,32.000000
-25,-2,58,1623676087.0,32.000000
-24,-2,58,1623676087.0,32.000000
-24,-2,58,1623676087.0,32.000000
-24,-2,59,1623676087.0,32.000000
-24,-2,58,1623676087.0,32.000000
-24,-1,58,1623676087.0,32.000000
-24,-2,59,1623676087.0,32.000000
-24,-2,58,1623676087.0,32.000000
-25,-2,58,1623676087.0,32.000000
-24,-2,58,1623676087.0,32.000000
-24,-2,58,1623676087.0,32.000000
-24,-2,58,1623676087.0,32.000000
-24,-2,58,1623676087.0,32.000000
-24,-2,58,1623676087.0,32.000000
-24,-2,58,1623676087.0,32.000000
-24,-2,59,1623676087.0,32.000000
-24,-2,58,1623676087.0,32.000000
-24,-2,59,1623676087.0,32.000000
-24,-2,58,1623676087.0,32.000000
-24,-2,58,1623676087.0,32.000000
-24,-2,58,1623676087.0,32.000000
-24,-2,58,1623676087.0,32.000000
-24,-2,59,1623676087.0,32.000000
-24,-2,58,1623676087.0,32.000000
-24,-2,58,1623676087.0,32.000000
-24,-2,58,1623676087.0,32.000000
-24,-2,58,1623676087.0,32.000000
-24,-2,58,1623676087.0,32.000000
-24,-2,58,1623676087.0,32.000000
-24,-2,58,1623676087.0,32.000000
-24,-2,58,1623676087.0,32.000000
-24,-2,58,1623676087.0,32.000000
-24,-2,58,1623676087.0,32.000000
-24,-2,59,1623676087.0,32.000000
-24,-2,58,1623676087.0,32.000000
-24,-2,58,1623676087.0,32.000000
-24,-2,58,1623676087.0,32.000000
-24,-2,59,1623676087.0,32.000000
-24,-2,58,1623676087.0,32.000000
-24,-2,59,1623676087.0,32.000000
-24,-2,58,1623676087.0,32.000000
-24,-2,59,1623676087.0,32.000000
-24,-2,58,1623676087.0,32.000000
-24,-2,59,1623676087.0,32.000000
-24,-2,59,1623676087.0,32.000000
-24,-2,58,1623676087.0,32.000000
-24,-2,58,1623676087.0,32.000000
-23,-2,59,1623676087.0,32.000000
-24,-2,59,1623676087.0,32.000000
-24,-2,59,1623676087.0,32.000000
-23,-2,59,1623676087.0,32.000000
-23,-2,59,1623676087.0,32.000000
-23,-2,59,1623676087.0,32.000000
-23,-2,59,1623676087.0,32.000000
-23,-2,59,1623676087.0,32.000000
-24,-2,59,1623676087.0,32.000000
-23,-2,59,1623676087.0,32.000000
-23,-2,59,1623676087.0,32.000000
-23,-2,59,1623676087.0,32.000000
-23,-2,59,1623676087.0,32.000000
-23,-2,59,1623676087.0,32.000000
-23,-2,59,1623676087.0,32.000000
-23,-2,59,1623676087.0,32.000000
-23,-2,59,1623676087.0,32.000000
-23,-2,59,1623676087.0,32.000000
-23,-2,59,1623676087.0,32.000000
-23,-2,59,1623676087.0,32.000000
-23,-2,59,1623676087.0,32.000000
-23,-2,59,1623676087.0,32.000000
-23,-2,59,1623676087.0,32.000000
-23,-2,59,1623676087.0,32.000000
-23,-2,59,1623676087.0,32.000000
-23,-2,59,1623676087.0,32.000000
-23,-2,59,1623676087.0,32.000000
-23,-2,59,1623676087.0,32.000000
-23,-2,59,1623676087.0,32.000000
-23,-2,59,1623676087.0,32.000000
-23,-2,59,1623676087.0,32.000000
-22,-2,59,1623676087.0,32.000000
-22,-2,59,1623676087.0,32.000000
-23,-2,59,1623676087.0,32.000000
-23,-2,59,1623676087.0,32.000000
-23,-2,59,1623676087.0,32.000000
-22,-2,59,1623676087.0,32.000000
-23,-2,59,1623676087.0,32.000000
-22,-2,59,1623676087.0,32.000000
-23,-2,59,1623676087.0,32.000000
-23,-2,59,1623676087.0,32.000000
-22,-2,59,1623676087.0,32.000000
-23,-2,59,1623676087.0,32.000000
-23,-2,59,1623676087.0,32.000000
-22,-2,59,1623676087.0,32.000000
-23,-2,59,1623676087.0,32.000000
-23,-2,59,1623676087.0,32.000000
-22,-2,59,1623676087.0,32.000000
-23,-2,59,1623676087.0,32.000000
-23,-2,59,1623676087.0,32.000000
-23,-2,59,1623676087.0,32.000000
-23,-2,59,1623676087.0,32.000000
-23,-2,59,1623676087.0,32.000000
-23,-2,59,1623676087.0,32.000000
-23,-2,59,1623676087.0,32.000000
-23,-2,59,1623676087.0,32.000000
-23,-1,59,1623676087.0,32.000000
-23,-2,59,1623676087.0,32.000000
-23,-3,59,1623676087.0,32.000000
-22,-2,59,1623676087.0,32.000000
-22,-2,59,1623676087.0,32.000000
-22,-1,59,1623676087.0,32.000000
-23,-1,59,1623676087.0,32.000000
-22,-1,59,1623676087.0,32.000000
-23,-2,59,1623676087.0,32.000000
-22,-2,60,1623676087.0,32.000000
-22,-2,59,1623676087.0,32.000000
-22,-2,59,1623676087.0,32.000000
-22,-1,58,1623676087.0,32.000000
-22,-1,58,1623676087.0,32.000000
-22,-2,60,1623676087.0,32.000000
-22,-3,60,1623676087.0,32.000000
-23,-3,59,1623676087.0,32.000000
-23,-1,59,1623676087.0,32.000000
-23,-1,59,1623676087.0,32.000000
-22,-2,59,1623676087.0,32.000000
-21,-2,59,1623676087.0,32.000000
-22,-2,59,1623676087.0,32.000000
-23,-1,59,1623676087.0,32.000000
-23,-1,59,1623676087.0,32.000000
-23,-2,59,1623676087.0,32.000000
-23,-3,59,1623676087.0,32.000000
-22,-3,59,1623676087.0,32.000000
-22,-3,59,1623676087.0,32.000000
-21,-2,60,1623676087.0,32.000000
-22,0,59,1623676087.0,32.000000
-22,0,58,1623676087.0,32.000000
-22,0,58,1623676087.0,32.000000
-22,-2,59,1623676087.0,32.000000
-22,-3,60,1623676087.0,32.000000
-23,-3,59,1623676087.0,32.000000
-24,-2,59,1623676087.0,32.000000
-23,-3,59,1623676087.0,32.000000
-22,-2,59,1623676087.0,32.000000
-22,-2,59,1623676087.0,32.000000
-21,-2,59,1623676087.0,32.000000
-20,-1,60,1623676087.0,32.000000
-21,-1,59,1623676087.0,32.000000
-21,-2,59,1623676087.0,32.000000
-22,-2,59,1623676087.0,32.000000
-22,-2,59,1623676087.0,32.000000
-22,-1,59,1623676087.0,32.000000
-22,-1,59,1623676087.0,32.000000
-21,-2,59,1623676087.0,32.000000
-22,-2,60,1623676087.0,32.000000
-22,-2,60,1623676087.0,32.000000
-21,-2,59,1623676087.0,32.000000
-21,-2,60,1623676087.0,32.000000
-22,-1,60,1623676087.0,32.000000
-21,-2,59,1623676087.0,32.000000
-22,-1,60,1623676087.0,32.000000
-22,-2,59,1623676087.0,32.000000
-22,-1,60,1623676087.0,32.000000
-22,-2,60,1623676087.0,32.000000
-22,-2,60,1623676087.0,32.000000
-21,-1,59,1623676087.0,32.000000
-21,-1,60,1623676087.0,32.000000
-21,-1,60,1623676087.0,32.000000
-21,-1,59,1623676087.0,32.000000
-21,-1,59,1623676087.0,32.000000
-22,-2,59,1623676087.0,32.000000
-22,-2,60,1623676087.0,32.000000
-22,-2,60,1623676087.0,32.000000
-21,-2,59,1623676087.0,32.000000
-22,-2,59,1623676087.0,32.000000
-22,-2,59,1623676087.0,32.000000
-21,-1,59,1623676087.0,32.000000
-21,-1,59,1623676087.0,32.000000
-21,-1,59,1623676087.0,32.000000
-21,-1,59,1623676087.0,32.000000
-22,-2,59,1623676087.0,32.000000
-21,-2,59,1623676087.0,32.000000
-21,-2,59,1623676087.0,32.000000
-22,-2,60,1623676087.0,32.000000
-22,-2,60,1623676087.0,32.000000
-22,-2,59,1623676087.0,32.000000
-21,-1,59,1623676087.0,32.000000
-22,-1,60,1623676087.0,32.000000
-21,-1,59,1623676087.0,32.000000
-21,-2,59,1623676087.0,32.000000
-22,-2,59,1623676087.0,32.000000
-22,-2,59,1623676087.0,32.000000
-22,-2,59,1623676087.0,32.000000
-22,-2,60,1623676087.0,32.000000
-22,-2,59,1623676087.0,32.000000
-21,-2,59,1623676087.0,32.000000
-21,-2,59,1623676087.0,32.000000
-22,-2,59,1623676087.0,32.000000
-21,-2,59,1623676087.0,32.000000
-22,-1,59,1623676087.0,32.000000
-22,-2,59,1623676087.0,32.000000
-22,-2,59,1623676087.0,32.000000
-22,-2,59,1623676087.0,32.000000
-22,-2,59,1623676087.0,32.000000
-22,-2,59,1623676087.0,32.000000
-22,-2,60,1623676087.0,32.000000
-22,-1,59,1623676087.0,32.000000
-22,-1,59,1623676087.0,32.000000
-21,-2,59,1623676087.0,32.000000
-22,-2,59,1623676087.0,32.000000
-21,-2,59,1623676087.0,32.000000
-22,-2,60,1623676087.0,32.000000
-22,-2,59,1623676087.0,32.000000
-22,-2,60,1623676087.0,32.000000
-21,-2,59,1623676087.0,32.000000
-21,-1,59,1623676087.0,32.000000
-22,-1,59,1623676087.0,32.000000
-22,-2,59,1623676087.0,32.000000
-22,-2,59,1623676087.0,32.000000
-21,-2,60,1623676087.0,32.000000
-22,-2,59,1623676087.0,32.000000
-21,-2,59,1623676087.0,32.000000
-22,-2,60,1623676087.0,32.000000
-22,-2,59,1623676087.0,32.000000
-21,-2,59,1623676087.0,32.000000
-22,-2,59,1623676087.0,32.000000
-22,-2,60,1623676087.0,32.000000
-22,-2,59,1623676087.0,32.000000
-21,-2,59,1623676087.0,32.000000
-22,-2,59,1623676087.0,32.000000
-22,-2,59,1623676087.0,32.000000
-22,-2,59,1623676087.0,32.000000
-22,-2,59,1623676087.0,32.000000
-21,-2,59,1623676087.0,32.000000
-21,-1,59,1623676087.0,32.000000
-22,0,60,1623676087.0,32.000000
-21,-2,59,1623676087.0,32.000000
-22,-2,60,1623676087.0,32.000000
-22,-2,59,1623676087.0,32.000000
-21,-2,59,1623676087.0,32.000000
-22,-1,59,1623676087.0,32.000000
-22,-1,60,1623676087.0,32.000000
-21,-1,60,1623676087.0,32.000000
-21,-1,59,1623676087.0,32.000000
-21,-1,59,1623676087.0,32.000000
-22,-2,59,1623676087.0,32.000000
-22,-2,59,1623676087.0,32.000000
-22,-1,59,1623676087.0,32.000000
-22,-1,59,1623676087.0,32.000000
-22,-1,59,1623676087.0,32.000000
-22,-1,59,1623676087.0,32.000000
-22,-2,60,1623676087.0,32.000000
-22,-2,59,1623676087.0,32.000000
-22,-2,59,1623676087.0,32.000000
-21,-1,59,1623676087.0,32.000000
-21,-1,59,1623676087.0,32.000000
-22,-2,59,1623676087.0,32.000000
-22,-2,59,1623676087.0,32.000000
-22,-1,59,1623676087.0,32.000000
-22,-2,59,1623676087.0,32.000000
-22,-2,59,1623676087.0,32.000000
-22,-2,59,1623676087.0,32.000000
-22,-2,59,1623676087.0,32.000000
-22,-1,59,1623676087.0,32.000000
-22,-1,59,1623676087.0,32.000000
-22,-2,59,1623676087.0,32.000000
-22,-2,59,1623676087.0,32.000000
-22,-2,59,1623676087.0,32.000000
-22,-2,59,1623676087.0,32.000000
-22,-2,59,1623676087.0,32.000000
-22,-1,59,1623676087.0,32.000000
-22,-1,60,1623676087.0,32.000000
-22,-2,59,1623676087.0,32.000000
-22,-2,59,1623676087.0,32.000000
-22,-2,60,1623676087.0,32.000000
-22,-2,59,1623676087.0,32.000000
-22,-2,59,1623676087.0,32.000000
-22,-2,59,1623676087.0,32.000000
-22,-2,59,1623676087.0,32.000000
-22,-2,59,1623676087.0,32.000000
-21,-1,59,1623676087.0,32.000000
-22,-2,60,1623676087.0,32.000000
-22,-2,60,1623676087.0,32.000000
-22,-2,59,1623676087.0,32.000000
-22,-2,59,1623676087.0,32.000000
-22,-2,59,1623676087.0,32.000000
-22,-2,59,1623676087.0,32.000000
-22,-2,59,1623676087.0,32.000000
-22,-2,59,1623676087.0,32.000000
-21,-2,59,1623676087.0,32.000000
-22,-2,59,1623676087.0,32.000000
-22,-1,59,1623676087.0,32.000000
-22,-1,59,1623676087.0,32.000000
-22,-2,59,1623676087.0,32.000000
-22,-2,59,1623676087.0,32.000000
-22,-2,59,1623676087.0,32.000000
-22,-2,59,1623676087.0,32.000000
-22,-2,60,1623676087.0,32.000000
-22,-2,59,1623676087.0,32.000000
-22,-2,59,1623676087.0,32.000000
-22,-2,59,1623676087.0,32.000000
-22,-2,59,1623676087.0,32.000000
-22,-2,59,1623676087.0,32.000000
-22,-2,59,1623676087.0,32.000000
-22,-2,59,1623676087.0,32.000000
-23,-2,59,1623676087.0,32.000000
-22,-2,59,1623676087.0,32.000000
-22,-2,59,1623676087.0,32.000000
-23,-2,60,1623676087.0,32.000000
-22,-2,59,1623676087.0,32.000000
-22,-2,59,1623676087.0,32.000000
-22,-1,59,1623676087.0,32.000000
-22,-2,59,1623676087.0,32.000000
-22,-2,59,1623676087.0,32.000000
-23,-2,59,1623676087.0,32.000000
-23,-2,59,1623676087.0,32.000000
-22,-2,59,1623676087.0,32.000000
-22,-2,59,1623676087.0,32.000000
-22,-2,60,1623676087.0,32.000000
-22,-2,60,1623676087.0,32.000000
-22,-1,59,1623676087.0,32.000000
-22,-2,59,1623676087.0,32.000000
-22,-2,60,1623676087.0,32.000000
-22,-2,59,1623676087.0,32.000000
-22,-2,59,1623676087.0,32.000000
-22,-1,59,1623676087.0,32.000000
-22,-1,59,1623676087.0,32.000000
-22,-2,59,1623676087.0,32.000000
-22,-2,59,1623676087.0,32.000000
-21,-2,59,1623676087.0,32.000000
-22,-2,59,1623676087.0,32.000000
-22,-2,59,1623676087.0,32.000000
-22,-2,59,1623676087.0,32.000000
-22,-2,59,1623676087.0,32.000000
-22,-2,59,1623676087.0,32.000000
-22,-2,59,1623676087.0,32.000000
-22,-2,59,1623676087.0,32.000000
-22,-2,59,1623676087.0,32.000000
-22,-2,60,1623676087.0,32.000000
-22,-1,60,1623676087.0,32.000000
-22,-2,59,1623676087.0,32.000000
-22,-2,59,1623676087.0,32.000000
-22,-1,59,1623676087.0,32.000000
-22,-2,59,1623676087.0,32.000000
-22,-2,59,1623676087.0,32.000000
-22,-2,59,1623676087.0,32.000000
-22,-1,59,1623676087.0,32.000000
-22,-2,59,1623676087.0,32.000000
-22,-2,59,1623676087.0,32.000000
-22,-2,59,1623676087.0,32.000000
-22,-2,59,1623676087.0,32.000000
-22,-2,60,1623676087.0,32.000000
-22,-2,59,1623676087.0,32.000000
-22,-1,60,1623676087.0,32.000000
-22,-2,59,1623676087.0,32.000000
-22,-2,59,1623676087.0,32.000000
-22,-2,59,1623676087.0,32.000000
-22,-2,59,1623676087.0,32.000000
-22,-2,59,1623676087.0,32.000000
-22,-2,59,1623676087.0,32.000000
-22,-2,59,1623676087.0,32.000000
-22,-2,59,1623676087.0,32.000000
-22,-2,60,1623676087.0,32.000000
-22,-2,59,1623676087.0,32.000000
-22,-2,59,1623676087.0,32.000000
-22,-2,59,1623676087.0,32.000000
-22,-2,59,1623676087.0,32.000000
-23,-2,59,1623676087.0,32.000000
-22,-2,59,1623676087.0,32.000000
-22,-2,59,1623676087.0,32.000000
-22,-2,59,1623676087.0,32.000000
-22,-2,59,1623676087.0,32.000000
-23,-2,60,1623676087.0,32.000000
-23,-2,59,1623676087.0,32.000000
-22,-2,59,1623676087.0,32.000000
-22,-2,58,1623676087.0,32.000000
-23,-2,59,1623676087.0,32.000000
-22,-2,59,1623676087.0,32.000000
-22,-2,59,1623676087.0,32.000000
-23,-2,59,1623676087.0,32.000000
-22,-2,59,1623676087.0,32.000000
-22,-2,59,1623676087.0,32.000000
-23,-2,59,1623676087.0,32.000000
-23,-2,59,1623676087.0,32.000000
-22,-2,59,1623676087.0,32.000000
-23,-2,58,1623676087.0,32.000000
-22,-2,59,1623676087.0,32.000000
-23,-2,58,1623676087.0,32.000000
-23,-2,59,1623676087.0,32.000000
-23,-2,59,1623676087.0,32.000000
-22,-2,59,1623676087.0,32.000000
-23,-2,59,1623676087.0,32.000000
-22,-2,59,1623676087.0,32.000000
-22,-2,59,1623676087.0,32.000000
-23,-2,59,1623676087.0,32.000000
-23,-2,59,1623676087.0,32.000000
-23,-2,59,1623676087.0,32.000000
-22,-2,59,1623676087.0,32.000000
-23,-2,59,1623676087.0,32.000000
-23,-2,59,1623676087.0,32.000000
-23,-2,59,1623676087.0,32.000000
-23,-2,59,1623676087.0,32.000000
-22,-2,59,1623676087.0,32.000000
-23,-2,59,1623676087.0,32.000000
-22,-2,59,1623676087.0,32.000000
-23,-2,59,1623676087.0,32.000000
-23,-2,59,1623676087.0,32.000000
-23,-2,59,1623676087.0,32.000000
-23,-2,59,1623676087.0,32.000000
-23,-2,59,1623676087.0,32.000000
-23,-2,59,1623676087.0,32.000000
-23,-2,59,1623676087.0,32.000000
-23,-2,59,1623676087.0,32.000000
-23,-2,59,1623676087.0,32.000000
-23,-2,59,1623676087.0,32.000000
-23,-2,59,1623676087.0,32.000000
-23,-2,59,1623676087.0,32.000000
-23,-2,59,1623676087.0,32.000000
-23,-2,59,1623676087.0,32.000000
-23,-2,59,1623676087.0,32.000000
-23,-2,59,1623676087.0,32.000000
-24,-2,59,1623676087.0,32.000000
-23,-2,58,1623676087.0,32.000000
-24,-2,59,1623676087.0,32.000000
-23,-2,58,1623676087.0,32.000000
-23,-2,59,1623676087.0,32.000000
-23,-2,59,1623676087.0,32.000000
-23,-2,59,1623676087.0,32.000000
-23,-2,58,1623676087.0,32.000000
-23,-2,59,1623676087.0,32.000000
-23,-2,58,1623676087.0,32.000000
-23,-2,59,1623676087.0,32.000000
-23,-2,58,1623676087.0,32.000000
-23,-2,59,1623676087.0,32.000000
-23,-2,58,1623676087.0,32.000000
-23,-2,59,1623676087.0,32.000000
-24,-2,59,1623676087.0,32.000000
-23,-2,59,1623676087.0,32.000000
-23,-2,59,1623676087.0,32.000000
-23,-2,59,1623676087.0,32.000000
-23,-2,59,1623676087.0,32.000000
-23,-2,58,1623676087.0,32.000000
-23,-2,59,1623676087.0,32.000000
-23,-2,58,1623676087.0,32.000000
-23,-2,59,1623676087.0,32.000000
-23,-2,58,1623676087.0,32.000000
-23,-2,59,1623676087.0,32.000000
-24,-2,59,1623676087.0,32.000000
-23,-2,59,1623676087.0,32.000000
-23,-2,59,1623676087.0,32.000000
-23,-2,58,1623676087.0,32.000000
-23,-2,59,1623676087.0,32.000000
-23,-2,59,1623676087.0,32.000000
-23,-2,59,1623676087.0,32.000000
-23,-2,59,1623676087.0,32.000000
-23,-2,58,1623676087.0,32.000000
-24,-2,59,1623676087.0,32.000000
-23,-2,58,1623676087.0,32.000000
-23,-2,59,1623676087.0,32.000000
-23,-2,59,1623676087.0,32.000000
-23,-2,59,1623676087.0,32.000000
-23,-2,59,1623676087.0,32.000000
-24,-2,59,1623676087.0,32.000000
-23,-2,59,1623676087.0,32.000000
-24,-2,59,1623676087.0,32.000000
-24,-2,59,1623676087.0,32.000000
-23,-2,59,1623676087.0,32.000000
-23,-2,59,1623676087.0,32.000000
-23,-2,58,1623676087.0,32.000000
-23,-2,59,1623676087.0,32.000000
-23,-2,59,1623676087.0,32.000000
-23,-2,59,1623676087.0,32.000000
-23,-2,59,1623676087.0,32.000000
-23,-2,58,1623676087.0,32.000000
-23,-3,59,1623676087.0,32.000000
-23,-3,59,1623676087.0,32.000000
-24,-2,59,1623676087.0,32.000000
-24,-2,59,1623676087.0,32.000000
-23,-3,59,1623676087.0,32.000000
-23,-2,59,1623676087.0,32.000000
-24,-2,59,1623676087.0,32.000000
-23,-2,58,1623676087.0,32.000000
-23,-2,59,1623676087.0,32.000000
-23,-2,58,1623676087.0,32.000000
-23,-2,59,1623676087.0,32.000000
-24,-2,59,1623676087.0,32.000000
-23,-3,59,1623676087.0,32.000000
-23,-2,59,1623676087.0,32.000000
-24,-2,59,1623676087.0,32.000000
-23,-2,58,1623676087.0,32.000000
-24,-2,59,1623676087.0,32.000000
-24,-2,59,1623676087.0,32.000000
-24,-2,58,1623676087.0,32.000000
-23,-2,59,1623676087.0,32.000000
-24,-2,58,1623676087.0,32.000000
-24,-2,59,1623676087.0,32.000000
-24,-2,59,1623676087.0,32.000000
-24,-2,58,1623676087.0,32.000000
-24,-2,58,1623676087.0,32.000000
-24,-2,58,1623676087.0,32.000000
-24,-3,58,1623676087.0,32.000000
-24,-2,59,1623676087.0,32.000000
-24,-2,59,1623676087.0,32.000000
-24,-2,58,1623676087.0,32.000000
-24,-2,58,1623676087.0,32.000000
-24,-2,58,1623676087.0,32.000000
-25,-3,59,1623676087.0,32.000000
-24,-2,59,1623676087.0,32.000000
-24,-2,58,1623676087.0,32.000000
-24,-3,59,1623676087.0,32.000000
-24,-2,58,1623676087.0,32.000000
-24,-2,58,1623676087.0,32.000000
-24,-2,58,1623676087.0,32.000000
-24,-3,58,1623676087.0,32.000000
-24,-2,58,1623676087.0,32.000000
-24,-2,58,1623676087.0,32.000000
-24,-2,59,1623676087.0,32.000000
-25,-3,58,1623676087.0,32.000000
-24,-2,58,1623676087.0,32.000000
-25,-2,59,1623676087.0,32.000000
-24,-2,58,1623676087.0,32.000000
-24,-2,58,1623676087.0,32.000000
-24,-2,58,1623676087.0,32.000000
-25,-2,59,1623676087.0,32.000000
-24,-2,58,1623676087.0,32.000000
-24,-2,59,1623676087.0,32.000000
-24,-2,58,1623676087.0,32.000000
-25,-3,58,1623676087.0,32.000000
-25,-2,58,1623676087.0,32.000000
-25,-2,58,1623676087.0,32.000000
-24,-2,59,1623676087.0,32.000000
-24,-2,58,1623676087.0,32.000000
-24,-2,58,1623676087.0,32.000000
-25,-3,58,1623676087.0,32.000000
-25,-2,58,1623676087.0,32.000000
-25,-3,58,1623676087.0,32.000000
-24,-2,58,1623676087.0,32.000000
-25,-2,58,1623676087.0,32.000000
-25,-2,58,1623676087.0,32.000000
-25,-2,58,1623676087.0,32.000000
-25,-3,58,1623676087.0,32.000000
-25,-2,58,1623676087.0,32.000000
-25,-2,58,1623676087.0,32.000000
-25,-3,58,1623676087.0,32.000000
-25,-2,58,1623676087.0,32.000000
-25,-2,58,1623676087.0,32.000000
-24,-2,58,1623676087.0,32.000000
-25,-2,58,1623676087.0,32.000000
-25,-2,58,1623676087.0,32.000000
-24,-3,58,1623676087.0,32.000000
-25,-2,58,1623676087.0,32.000000
-25,-2,58,1623676087.0,32.000000
-25,-3,58,1623676087.0,32.000000
-25,-2,58,1623676087.0,32.000000
-24,-2,58,1623676087.0,32.000000
-25,-2,58,1623676087.0,32.000000
-25,-2,58,1623676087.0,32.000000
-25,-2,58,1623676087.0,32.000000
-25,-2,58,1623676087.0,32.000000
-25,-3,58,1623676087.0,32.000000
-25,-2,58,1623676087.0,32.000000
-25,-2,58,1623676087.0,32.000000
-25,-2,58,1623676087.0,32.000000
-24,-2,58,1623676087.0,32.000000
-24,-2,58,1623676087.0,32.000000
-25,-2,58,1623676087.0,32.000000
-25,-3,58,1623676087.0,32.000000
-25,-2,58,1623676087.0,32.000000
-25,-2,58,1623676087.0,32.000000
-25,-2,58,1623676087.0,32.000000
-25,-2,58,1623676087.0,32.000000
-25,-3,58,1623676087.0,32.000000
-25,-2,58,1623676087.0,32.000000
-25,-2,58,1623676087.0,32.000000
-25,-3,58,1623676087.0,32.000000
-25,-3,58,1623676087.0,32.000000
-25,-3,58,1623676087.0,32.000000
-25,-2,58,1623676087.0,32.000000
-25,-2,58,1623676087.0,32.000000
-25,-3,58,1623676087.0,32.000000
-25,-3,58,1623676087.0,32.000000
-25,-2,58,1623676087.0,32.000000
-25,-2,58,1623676087.0,32.000000
-25,-3,58,1623676087.0,32.000000
-25,-2,58,1623676087.0,32.000000
-25,-2,58,1623676087.0,32.000000
-25,-2,58,1623676087.0,32.000000
-25,-2,58,1623676087.0,32.000000
-25,-2,58,1623676087.0,32.000000
-25,-2,58,1623676087.0,32.000000
-25,-3,58,1623676087.0,32.000000
-25,-2,58,1623676087.0,32.000000
-25,-3,58,1623676087.0,32.000000
-25,-2,58,1623676087.0,32.000000
-25,-3,58,1623676087.0,32.000000
-25,-3,58,1623676087.0,32.000000
-25,-2,58,1623676087.0,32.000000
-25,-2,58,1623676087.0,32.000000
-25,-2,58,1623676087.0,32.000000
-25,-2,58,1623676087.0,32.000000
-25,-2,58,1623676087.0,32.000000
-25,-2,58,1623676087.0,32.000000
-25,-2,58,1623676087.0,32.000000
-25,-3,58,1623676087.0,32.000000
-24,-2,58,1623676087.0,32.000000
-25,-2,58,1623676087.0,32.000000
-25,-2,58,1623676087.0,32.000000
-25,-2,58,1623676087.0,32.000000
-25,-2,58,1623676087.0,32.000000
-25,-2,58,1623676087.0,32.000000
-25,-2,58,1623676087.0,32.000000
-25,-2,59,1623676087.0,32.000000
-24,-2,58,1623676087.0,32.000000
-25,-2,58,1623676087.0,32.000000
-25,-2,59,1623676087.0,32.000000
-24,-2,58,1623676087.0,32.000000
-24,-2,58,1623676087.0,32.000000
-25,-2,59,1623676087.0,32.000000
-24,-2,58,1623676087.0,32.000000
-25,-2,58,1623676087.0,32.000000
-25,-2,58,1623676087.0,32.000000
-25,-2,58,1623676087.0,32.000000
-25,-2,58,1623676087.0,32.000000
-25,-2,58,1623676087.0,32.000000
-25,-2,58,1623676087.0,32.000000
-25,-2,58,1623676087.0,32.000000
-25,-2,58,1623676087.0,32.000000
-25,-2,59,1623676087.0,32.000000
-25,-2,58,1623676087.0,32.000000
-24,-2,58,1623676087.0,32.000000
-25,-2,58,1623676087.0,32.000000
-25,-2,58,1623676087.0,32.000000
-24,-2,58,1623676087.0,32.000000
-25,-2,59,1623676087.0,32.000000
-25,-2,58,1623676087.0,32.000000
-25,-2,58,1623676087.0,32.000000
-25,-2,58,1623676087.0,32.000000
-25,-2,58,1623676087.0,32.000000
-25,-3,58,1623676087.0,32.000000
-25,-2,58,1623676087.0,32.000000
-25,-2,58,1623676087.0,32.000000
-25,-3,57,1623676087.0,32.000000
-25,-3,58,1623676087.0,32.000000
-25,-2,58,1623676087.0,32.000000
-25,-2,58,1623676087.0,32.000000
-25,-2,58,1623676087.0,32.000000
-25,-3,58,1623676087.0,32.000000
-25,-3,57,1623676087.0,32.000000
-25,-2,58,1623676087.0,32.000000
-25,-2,58,1623676087.0,32.000000
-25,-3,58,1623676087.0,32.000000
-24,-2,58,1623676087.0,32.000000
-25,-1,58,1623676087.0,32.000000
-25,-1,58,1623676087.0,32.000000
-25,-3,58,1623676087.0,32.000000
-26,-3,58,1623676087.0,32.000000
-27,-4,57,1623676087.0,32.000000
-26,-3,57,1623676087.0,32.000000
-26,-2,57,1623676087.0,32.000000
-25,-2,58,1623676087.0,32.000000
-24,-2,59,1623676087.0,32.000000
-24,-2,59,1623676087.0,32.000000
-25,-3,58,1623676087.0,32.000000
-26,-3,58,1623676087.0,32.000000
-26,-3,57,1623676087.0,32.000000
-26,-3,58,1623676087.0,32.000000
-25,-3,58,1623676087.0,32.000000
-25,-2,58,1623676087.0,32.000000
-25,-3,58,1623676087.0,32.000000
-25,-3,58,1623676087.0,32.000000
-25,-3,58,1623676087.0,32.000000
-25,-3,58,1623676087.0,32.000000
-25,-2,58,1623676087.0,32.000000
-25,-2,58,1623676087.0,32.000000
-25,-3,58,1623676087.0,32.000000
-26,-3,58,1623676087.0,32.000000
-25,-3,57,1623676087.0,32.000000
-25,-3,57,1623676087.0,32.000000
-26,-3,58,1623676087.0,32.000000
-25,-2,58,1623676087.0,32.000000
-25,-2,58,1623676087.0,32.000000
-25,-2,57,1623676087.0,32.000000
-25,-2,58,1623676087.0,32.000000
-25,-2,58,1623676087.0,32.000000
-25,-3,58,1623676087.0,32.000000
-25,-2,58,1623676087.0,32.000000
-25,-2,58,1623676087.0,32.000000
-25,-2,58,1623676087.0,32.000000
-25,-2,58,1623676087.0,32.000000
-25,-3,58,1623676087.0,32.000000
-25,-3,57,1623676087.0,32.000000
-26,-2,58,1623676087.0,32.000000
-25,-3,58,1623676087.0,32.000000
-25,-3,58,1623676087.0,32.000000
-26,-2,58,1623676087.0,32.000000
-25,-3,58,1623676087.0,32.000000
-25,-2,58,1623676087.0,32.000000
-25,-3,58,1623676087.0,32.000000
-25,-2,58,1623676087.0,32.000000
-25,-2,58,1623676087.0,32.000000
-25,-2,58,1623676087.0,32.000000
-25,-3,58,1623676087.0,32.000000
-25,-2,57,1623676087.0,32.000000
-25,-3,58,1623676087.0,32.000000
-25,-3,58,1623676087.0,32.000000
-25,-3,57,1623676087.0,32.000000
-25,-2,58,1623676087.0,32.000000
-25,-2,58,1623676087.0,32.000000
-25,-2,58,1623676087.0,32.000000
-26,-3,58,1623676087.0,32.000000
-26,-4,58,1623676087.0,32.000000
-26,-4,58,1623676087.0,32.000000
-26,-4,57,1623676087.0,32.000000
-25,-2,57,1623676087.0,32.000000
-24,0,58,1623676087.0,32.000000
-24,0,58,1623676087.0,32.000000
-23,-2,59,1623676087.0,32.000000
-24,-3,59,1623676087.0,32.000000
-26,-4,58,1623676087.0,32.000000
-28,-4,56,1623676087.0,32.000000
-28,-3,55,1623676087.0,32.000000
-26,-2,57,1623676087.0,32.000000
-24,-2,59,1623676087.0,32.000000
-23,-2,59,1623676087.0,32.000000
-24,-2,59,1623676087.0,32.000000
-24,-2,59,1623676087.0,32.000000
-26,-2,58,1623676087.0,32.000000
-27,-3,57,1623676087.0,32.000000
-26,-2,57,1623676087.0,32.000000
-26,-3,58,1623676087.0,32.000000
-25,-3,58,1623676087.0,32.000000
-25,-3,58,1623676087.0,32.000000
-25,-2,58,1623676087.0,32.000000
-25,-2,58,1623676087.0,32.000000
-25,-2,58,1623676087.0,32.000000
-25,-2,58,1623676087.0,32.000000
-25,-2,58,1623676087.0,32.000000
-25,-2,58,1623676087.0,32.000000
-25,-2,58,1623676087.0,32.000000
-25,-2,58,1623676087.0,32.000000
-25,-3,58,1623676087.0,32.000000
-26,-3,58,1623676087.0,32.000000
-25,-3,58,1623676087.0,32.000000
-25,-2,58,1623676087.0,32.000000
-25,-2,58,1623676087.0,32.000000
-25,-3,58,1623676087.0,32.000000
-25,-2,58,1623676087.0,32.000000
-25,-3,57,1623676087.0,32.000000
-25,-2,58,1623676087.0,32.000000
-25,-3,58,1623676087.0,32.000000
-25,-3,57,1623676087.0,32.000000
-25,-3,57,1623676087.0,32.000000
-25,-3,58,1623676087.0,32.000000
-25,-2,57,1623676087.0,32.000000
-25,-3,58,1623676087.0,32.000000
-25,-2,58,1623676087.0,32.000000
-25,-2,58,1623676087.0,32.000000
-26,-2,58,1623676087.0,32.000000
-26,-3,58,1623676087.0,32.000000
-25,-3,58,1623676087.0,32.000000
-25,-3,58,1623676087.0,32.000000
-25,-3,58,1623676087.0,32.000000
-25,-2,58,1623676087.0,32.000000
-25,-3,58,1623676087.0,32.000000
-25,-3,58,1623676087.0,32.000000
-25,-2,58,1623676087.0,32.000000
-25,-3,58,1623676087.0,32.000000
-25,-2,57,1623676087.0,32.000000
-25,-3,58,1623676087.0,32.000000
-25,-3,58,1623676087.0,32.000000
-25,-2,58,1623676087.0,32.000000
-25,-2,58,1623676087.0,32.000000
-25,-3,58,1623676087.0,32.000000
-25,-3,58,1623676087.0,32.000000
-25,-2,58,1623676087.0,32.000000
-25,-2,58,1623676087.0,32.000000
-25,-3,58,1623676087.0,32.000000
-25,-3,57,1623676087.0,32.000000
-25,-2,58,1623676087.0,32.000000
-25,-2,58,1623676087.0,32.000000
-25,-3,58,1623676087.0,32.000000
-25,-3,58,1623676087.0,32.000000
-26,-2,58,1623676087.0,32.000000
-25,-3,58,1623676087.0,32.000000
-25,-2,58,1623676087.0,32.000000
-25,-2,58,1623676087.0,32.000000
-25,-2,58,1623676087.0,32.000000
-25,-2,57,1623676087.0,32.000000
-25,-3,58,1623676087.0,32.000000
-25,-2,58,1623676087.0,32.000000
-26,-3,58,1623676087.0,32.000000
-26,-3,58,1623676087.0,32.000000
-25,-3,58,1623676087.0,32.000000
-25,-2,58,1623676087.0,32.000000
-25,-2,58,1623676087.0,32.000000
-26,-3,58,1623676087.0,32.000000
-25,-3,58,1623676087.0,32.000000
-25,-2,58,1623676087.0,32.000000
-25,-3,58,1623676087.0,32.000000
-26,-3,58,1623676087.0,32.000000
-25,-3,58,1623676087.0,32.000000
-25,-2,58,1623676087.0,32.000000
-25,-2,58,1623676087.0,32.000000
-25,-3,58,1623676087.0,32.000000
-25,-3,57,1623676087.0,32.000000
-25,-2,58,1623676087.0,32.000000
-25,-3,58,1623676087.0,32.000000
-25,-3,58,1623676087.0,32.000000
-25,-2,57,1623676087.0,32.000000
-25,-2,58,1623676087.0,32.000000
-25,-2,58,1623676087.0,32.000000
-25,-2,58,1623676087.0,32.000000
-25,-2,58,1623676087.0,32.000000
-25,-2,57,1623676087.0,32.000000
-25,-2,57,1623676087.0,32.000000
-25,-2,58,1623676087.0,32.000000
-25,-2,58,1623676087.0,32.000000
-25,-3,58,1623676087.0,32.000000
-26,-3,58,1623676087.0,32.000000
-25,-2,58,1623676087.0,32.000000
-25,-2,58,1623676087.0,32.000000
-25,-2,58,1623676087.0,32.000000
-26,-2,58,1623676087.0,32.000000
-25,-2,58,1623676087.0,32.000000
-25,-2,58,1623676087.0,32.000000
-25,-3,58,1623676087.0,32.000000
-25,-3,58,1623676087.0,32.000000
-26,-3,58,1623676087.0,32.000000
-26,-2,58,1623676087.0,32.000000
-25,-3,58,1623676087.0,32.000000
-26,-3,58,1623676087.0,32.000000
-26,-3,58,1623676087.0,32.000000
-25,-2,57,1623676087.0,32.000000
-26,-2,58,1623676087.0,32.000000
-26,-3,57,1623676087.0,32.000000
-26,-3,58,1623676087.0,32.000000
-26,-3,58,1623676087.0,32.000000
-25,-3,58,1623676087.0,32.000000
-26,-3,57,1623676087.0,32.000000
-26,-3,57,1623676087.0,32.000000
-26,-3,58,1623676087.0,32.000000
-25,-3,57,1623676087.0,32.000000
-25,-3,58,1623676087.0,32.000000
-26,-3,58,1623676087.0,32.000000
-26,-2,58,1623676087.0,32.000000
-25,-3,58,1623676087.0,32.000000
-26,-3,57,1623676087.0,32.000000
-26,-3,58,1623676087.0,32.000000
-25,-3,57,1623676087.0,32.000000
-26,-3,58,1623676087.0,32.000000
-26,-3,58,1623676087.0,32.000000
-25,-3,58,1623676087.0,32.000000
-26,-3,58,1623676087.0,32.000000
-25,-3,57,1623676087.0,32.000000
-26,-3,58,1623676087.0,32.000000
-26,-3,58,1623676087.0,32.000000
-25,-3,57,1623676087.0,32.000000
-25,-3,57,1623676087.0,32.000000
-25,-2,58,1623676087.0,32.000000
-25,-2,58,1623676087.0,32.000000
-25,-3,58,1623676087.0,32.000000
-25,-3,58,1623676087.0,32.000000
-25,-2,58,1623676087.0,32.000000
-26,-3,58,1623676087.0,32.000000
-25,-2,57,1623676087.0,32.000000
-26,-2,58,1623676087.0,32.000000
-25,-3,58,1623676087.0,32.000000
-25,-3,58,1623676087.0,32.000000
-26,-3,58,1623676087.0,32.000000
-25,-3,58,1623676087.0,32.000000
-25,-2,57,1623676087.0,32.000000
-26,-2,57,1623676087.0,32.000000
-25,-2,58,1623676087.0,32.000000
-25,-2,57,1623676087.0,32.000000
-25,-3,58,1623676087.0,32.000000
-25,-2,58,1623676087.0,32.000000
-26,-3,58,1623676087.0,32.000000
-25,-2,57,1623676087.0,32.000000
-26,-3,58,1623676087.0,32.000000
-25,-3,57,1623676087.0,32.000000
-25,-3,58,1623676087.0,32.000000
-26,-3,58,1623676087.0,32.000000
-25,-3,58,1623676087.0,32.000000
-26,-3,58,1623676087.0,32.000000
-26,-3,58,1623676087.0,32.000000
-25,-2,58,1623676087.0,32.000000
-26,-3,58,1623676087.0,32.000000
-25,-3,57,1623676087.0,32.000000
-25,-2,58,1623676087.0,32.000000
-25,-3,57,1623676087.0,32.000000
-26,-3,58,1623676087.0,32.000000
-25,-3,58,1623676087.0,32.000000
-25,-2,58,1623676087.0,32.000000
-25,-2,58,1623676087.0,32.000000
-25,-3,57,1623676087.0,32.000000
-26,-3,58,1623676087.0,32.000000
-26,-3,58,1623676087.0,32.000000
-25,-2,57,1623676087.0,32.000000
-25,-2,58,1623676087.0,32.000000
-25,-3,57,1623676087.0,32.000000
-25,-2,58,1623676087.0,32.000000
-26,-3,58,1623676087.0,32.000000
-25,-3,58,1623676087.0,32.000000
-26,-3,58,1623676087.0,32.000000
-25,-3,58,1623676087.0,32.000000
-25,-3,57,1623676087.0,32.000000
-26,-3,58,1623676087.0,32.000000
-25,-3,58,1623676087.0,32.000000
-25,-2,57,1623676087.0,32.000000
-25,-3,58,1623676087.0,32.000000
-26,-3,58,1623676087.0,32.000000
-26,-3,58,1623676087.0,32.000000
-25,-3,57,1623676087.0,32.000000
-26,-2,58,1623676087.0,32.000000
-26,-3,58,1623676087.0,32.000000
-25,-3,58,1623676087.0,32.000000
-25,-3,58,1623676087.0,32.000000
-26,-2,58,1623676087.0,32.000000
-26,-3,58,1623676087.0,32.000000
-25,-3,57,1623676087.0,32.000000
-26,-3,58,1623676087.0,32.000000
-26,-3,58,1623676087.0,32.000000
-26,-3,57,1623676087.0,32.000000
-26,-2,58,1623676087.0,32.000000
-25,-3,57,1623676087.0,32.000000
-26,-3,58,1623676087.0,32.000000
-26,-2,58,1623676087.0,32.000000
-25,-3,57,1623676087.0,32.000000
-26,-3,58,1623676087.0,32.000000
-25,-3,58,1623676087.0,32.000000
-25,-3,57,1623676087.0,32.000000
-26,-2,58,1623676087.0,32.000000
-26,-3,58,1623676087.0,32.000000
-25,-2,58,1623676087.0,32.000000
-25,-2,57,1623676087.0,32.000000
-26,-3,58,1623676087.0,32.000000
-26,-3,58,1623676087.0,32.000000
-26,-3,58,1623676087.0,32.000000
-25,-2,57,1623676087.0,32.000000
-26,-2,58,1623676087.0,32.000000
-25,-3,57,1623676087.0,32.000000
-26,-3,58,1623676087.0,32.000000
-25,-3,57,1623676087.0,32.000000
-25,-3,57,1623676087.0,32.000000
-25,-2,58,1623676087.0,32.000000
-26,-2,57,1623676087.0,32.000000
-25,-3,57,1623676087.0,32.000000
-25,-2,58,1623676087.0,32.000000
-25,-3,58,1623676087.0,32.000000
-26,-3,58,1623676087.0,32.000000
-26,-2,58,1623676087.0,32.000000
-25,-3,58,1623676087.0,32.000000
-26,-3,58,1623676087.0,32.000000
-26,-2,58,1623676087.0,32.000000
-25,-3,58,1623676087.0,32.000000
-26,-3,58,1623676087.0,32.000000
-26,-2,58,1623676087.0,32.000000
-25,-3,57,1623676087.0,32.000000
-26,-2,57,1623676087.0,32.000000
-26,-3,58,1623676087.0,32.000000
-25,-3,57,1623676087.0,32.000000
-26,-3,58,1623676087.0,32.000000
-26,-3,58,1623676087.0,32.000000
-25,-3,57,1623676087.0,32.000000
-26,-2,57,1623676087.0,32.000000
-25,-3,57,1623676087.0,32.000000
-26,-3,58,1623676087.0,32.000000
-26,-3,58,1623676087.0,32.000000
-25,-3,58,1623676087.0,32.000000
-25,-2,58,1623676087.0,32.000000
-26,-3,58,1623676087.0,32.000000
-25,-3,58,1623676087.0,32.000000
-26,-3,58,1623676087.0,32.000000
-26,-3,58,1623676087.0,32.000000
-26,-2,57,1623676087.0,32.000000
-26,-3,58,1623676087.0,32.000000
-26,-3,57,1623676087.0,32.000000
-25,-3,58,1623676087.0,32.000000
-25,-2,58,1623676087.0,32.000000
-26,-2,58,1623676087.0,32.000000
-26,-3,58,1623676087.0,32.000000
-26,-3,58,1623676087.0,32.000000
-26,-3,58,1623676087.0,32.000000
-25,-2,57,1623676087.0,32.000000
-26,-2,57,1623676087.0,32.000000
-26,-3,58,1623676087.0,32.000000
-26,-3,58,1623676087.0,32.000000
-25,-3,58,1623676087.0,32.000000
-26,-3,58,1623676087.0,32.000000
-26,-3,58,1623676087.0,32.000000
-25,-2,58,1623676087.0,32.000000
-26,-3,58,1623676087.0,32.000000
-26,-3,58,1623676087.0,32.000000
-26,-2,57,1623676087.0,32.000000
-26,-2,58,1623676087.0,32.000000
-26,-2,58,1623676087.0,32.000000
-26,-3,58,1623676087.0,32.000000
-26,-3,58,1623676087.0,32.000000
-26,-3,58,1623676087.0,32.000000
-25,-3,58,1623676087.0,32.000000
-25,-2,57,1623676087.0,32.000000
-26,-3,58,1623676087.0,32.000000
-25,-3,57,1623676087.0,32.000000
-25,-3,57,1623676087.0,32.000000
-26,-3,58,1623676087.0,32.000000
-26,-3,58,1623676087.0,32.000000
-25,-2,57,1623676087.0,32.000000
-26,-3,58,1623676087.0,32.000000
-26,-3,58,1623676087.0,32.000000
-26,-3,57,1623676087.0,32.000000
-26,-2,57,1623676087.0,32.000000
-26,-3,58,1623676087.0,32.000000
-25,-3,57,1623676087.0,32.000000
-26,-3,58,1623676087.0,32.000000
-25,-3,58,1623676087.0,32.000000
-25,-3,57,1623676087.0,32.000000
-26,-3,58,1623676087.0,32.000000
-26,-2,58,1623676087.0,32.000000
-25,-2,58,1623676087.0,32.000000
-25,-3,57,1623676087.0,32.000000
-26,-2,58,1623676087.0,32.000000
-26,-2,58,1623676087.0,32.000000
-25,-3,57,1623676087.0,32.000000
-26,-3,57,1623676087.0,32.000000
-26,-2,58,1623676087.0,32.000000
-25,-2,58,1623676087.0,32.000000
-26,-3,58,1623676087.0,32.000000
-25,-3,58,1623676087.0,32.000000
-26,-3,58,1623676087.0,32.000000
-26,-3,58,1623676087.0,32.000000
-25,-3,57,1623676087.0,32.000000
-26,-3,58,1623676087.0,32.000000
-26,-3,57,1623676087.0,32.000000
-26,-3,58,1623676087.0,32.000000
-25,-3,58,1623676087.0,32.000000
-25,-3,58,1623676087.0,32.000000
-26,-3,58,1623676087.0,32.000000
-25,-3,57,1623676087.0,32.000000
-25,-3,57,1623676087.0,32.000000
-26,-3,58,1623676087.0,32.000000
-26,-3,58,1623676087.0,32.000000
-25,-3,57,1623676087.0,32.000000
-26,-3,58,1623676087.0,32.000000
-26,-3,58,1623676087.0,32.000000
-26,-2,58,1623676087.0,32.000000
-25,-3,58,1623676087.0,32.000000
-26,-3,58,1623676087.0,32.000000
-26,-2,58,1623676087.0,32.000000
-26,-2,57,1623676087.0,32.000000
-26,-3,58,1623676087.0,32.000000
-26,-3,58,1623676087.0,32.000000
-26,-3,58,1623676087.0,32.000000
-26,-3,58,1623676087.0,32.000000
-25,-2,57,1623676087.0,32.000000
-26,-3,58,1623676087.0,32.000000
-26,-3,58,1623676087.0,32.000000
-25,-2,57,1623676087.0,32.000000
-25,-2,57,1623676087.0,32.000000
-26,-2,58,1623676087.0,32.000000
-25,-3,57,1623676087.0,32.000000
-25,-3,57,1623676087.0,32.000000
-26,-2,58,1623676087.0,32.000000
-26,-2,58,1623676087.0,32.000000
-26,-2,58,1623676087.0,32.000000
-25,-3,58,1623676087.0,32.000000
-26,-2,57,1623676087.0,32.000000
-26,-3,58,1623676087.0,32.000000
-26,-3,57,1623676087.0,32.000000
-26,-3,57,1623676087.0,32.000000
-26,-3,58,1623676087.0,32.000000
-26,-3,58,1623676087.0,32.000000
-25,-3,58,1623676087.0,32.000000
-26,-2,57,1623676087.0,32.000000
-26,-3,58,1623676087.0,32.000000
-26,-3,58,1623676087.0,32.000000
-26,-3,58,1623676087.0,32.000000
-25,-3,58,1623676087.0,32.000000
-26,-3,57,1623676087.0,32.000000
-26,-3,58,1623676087.0,32.000000
-25,-2,57,1623676087.0,32.000000
-25,-3,57,1623676087.0,32.000000
-26,-3,58,1623676087.0,32.000000
-26,-3,58,1623676087.0,32.000000
-26,-3,57,1623676087.0,32.000000
-26,-3,58,1623676087.0,32.000000
-26,-3,57,1623676087.0,32.000000
-26,-3,58,1623676087.0,32.000000
-25,-3,58,1623676087.0,32.000000
-25,-3,57,1623676087.0,32.000000
-26,-3,58,1623676087.0,32.000000
-26,-3,58,1623676087.0,32.000000
-25,-3,57,1623676087.0,32.000000
-25,-2,57,1623676087.0,32.000000
-26,-3,58,1623676087.0,32.000000
-25,-3,58,1623676087.0,32.000000
-25,-3,58,1623676087.0,32.000000
-26,-3,58,1623676087.0,32.000000
-25,-3,58,1623676087.0,32.000000
-25,-3,58,1623676087.0,32.000000
-26,-2,58,1623676087.0,32.000000
-26,-3,57,1623676087.0,32.000000
-25,-3,58,1623676087.0,32.000000
-26,-3,58,1623676087.0,32.000000
-25,-3,58,1623676087.0,32.000000
-25,-2,57,1623676087.0,32.000000
-26,-2,58,1623676087.0,32.000000
-25,-3,58,1623676087.0,32.000000
-26,-2,58,1623676087.0,32.000000
-26,-3,58,1623676087.0,32.000000
-26,-3,58,1623676087.0,32.000000
-26,-2,57,1623676087.0,32.000000
-26,-3,58,1623676087.0,32.000000
-25,-3,58,1623676087.0,32.000000
-25,-3,57,1623676087.0,32.000000
-26,-3,58,1623676087.0,32.000000
-26,-2,58,1623676087.0,32.000000
-25,-3,58,1623676087.0,32.000000
-25,-2,57,1623676087.0,32.000000
-26,-2,58,1623676087.0,32.000000
-26,-3,58,1623676087.0,32.000000
-26,-3,58,1623676087.0,32.000000
-26,-3,58,1623676087.0,32.000000
-26,-3,58,1623676087.0,32.000000
-25,-3,57,1623676087.0,32.000000
-25,-3,58,1623676087.0,32.000000
-26,-3,58,1623676087.0,32.000000
-26,-3,57,1623676087.0,32.000000
-25,-3,57,1623676087.0,32.000000
-26,-3,58,1623676087.0,32.000000
-26,-3,58,1623676087.0,32.000000
-26,-3,58,1623676087.0,32.000000
-26,-3,57,1623676087.0,32.000000
-26,-2,58,1623676087.0,32.000000
-25,-2,58,1623676087.0,32.000000
-26,-3,58,1623676087.0,32.000000
-26,-2,58,1623676087.0,32.000000
-26,-3,58,1623676087.0,32.000000
-26,-3,58,1623676087.0,32.000000
-26,-3,58,1623676087.0,32.000000
-25,-3,57,1623676087.0,32.000000
-25,-3,57,1623676087.0,32.000000
-26,-3,57,1623676087.0,32.000000
-26,-3,58,1623676087.0,32.000000
-25,-3,58,1623676087.0,32.000000
-26,-3,57,1623676087.0,32.000000
-26,-3,58,1623676087.0,32.000000
-26,-3,58,1623676087.0,32.000000
-25,-3,57,1623676087.0,32.000000
-26,-3,57,1623676087.0,32.000000
-26,-3,58,1623676087.0,32.000000
-26,-2,58,1623676087.0,32.000000
-26,-2,58,1623676087.0,32.000000
-26,-3,58,1623676087.0,32.000000
-25,-3,58,1623676087.0,32.000000
-25,-2,58,1623676087.0,32.000000
-26,-2,57,1623676087.0,32.000000
-25,-3,57,1623676087.0,32.000000
-25,-2,58,1623676087.0,32.000000
-26,-3,58,1623676087.0,32.000000
-25,-3,57,1623676087.0,32.000000
-26,-2,58,1623676087.0,32.000000
-26,-3,58,1623676087.0,32.000000
-25,-3,57,1623676087.0,32.000000
-26,-3,58,1623676087.0,32.000000
-26,-3,58,1623676087.0,32.000000
-26,-3,58,1623676087.0,32.000000
-26,-3,58,1623676087.0,32.000000
-26,-3,57,1623676087.0,32.000000
-26,-3,58,1623676087.0,32.000000
-26,-3,58,1623676087.0,32.000000
-25,-3,58,1623676087.0,32.000000
-25,-3,58,1623676087.0,32.000000
-26,-3,58,1623676087.0,32.000000
-26,-3,58,1623676087.0,32.000000
-25,-2,57,1623676087.0,32.000000
-26,-3,58,1623676087.0,32.000000
-26,-3,58,1623676087.0,32.000000
-25,-3,58,1623676087.0,32.000000
-26,-2,58,1623676087.0,32.000000
-26,-3,57,1623676087.0,32.000000
-26,-2,57,1623676087.0,32.000000
-25,-2,57,1623676087.0,32.000000
-26,-3,58,1623676087.0,32.000000
-26,-3,58,1623676087.0,32.000000
-26,-3,57,1623676087.0,32.000000
-26,-3,58,1623676087.0,32.000000
-26,-3,58,1623676087.0,32.000000
-26,-3,58,1623676087.0,32.000000
-26,-3,58,1623676087.0,32.000000
-26,-3,58,1623676087.0,32.000000
-26,-3,57,1623676087.0,32.000000
-26,-3,57,1623676087.0,32.000000
-26,-3,58,1623676087.0,32.000000
-26,-2,57,1623676087.0,32.000000
-25,-3,57,1623676087.0,32.000000
-25,-3,57,1623676087.0,32.000000
-26,-2,58,1623676087.0,32.000000
-25,-3,58,1623676087.0,32.000000
-26,-3,57,1623676087.0,32.000000
-26,-3,58,1623676087.0,32.000000
-26,-3,58,1623676087.0,32.000000
-26,-3,57,1623676087.0,32.000000
-26,-3,57,1623676087.0,32.000000
-26,-3,58,1623676087.0,32.000000
-25,-3,57,1623676087.0,32.000000
-25,-2,57,1623676087.0,32.000000
-26,-3,58,1623676087.0,32.000000
-26,-3,57,1623676087.0,32.000000
-25,-3,57,1623676087.0,32.000000
-27,-3,58,1623676087.0,32.000000
-26,-3,58,1623676087.0,32.000000
-26,-3,58,1623676087.0,32.000000
-26,-3,57,1623676087.0,32.000000
-26,-3,58,1623676087.0,32.000000
-26,-3,58,1623676087.0,32.000000
-26,-3,57,1623676087.0,32.000000
-26,-3,58,1623676087.0,32.000000
-26,-3,57,1623676087.0,32.000000
-26,-2,57,1623676087.0,32.000000
-26,-3,57,1623676087.0,32.000000
-26,-3,58,1623676087.0,32.000000
-26,-2,57,1623676087.0,32.000000
-26,-3,58,1623676087.0,32.000000
-26,-3,57,1623676087.0,32.000000
-26,-3,57,1623676087.0,32.000000
-26,-3,57,1623676087.0,32.000000
-26,-3,57,1623676087.0,32.000000
-26,-3,57,1623676087.0,32.000000
-26,-3,57,1623676087.0,32.000000
-26,-3,58,1623676087.0,32.000000
-26,-3,57,1623676087.0,32.000000
-26,-3,57,1623676087.0,32.000000
-26,-3,58,1623676087.0,32.000000
-26,-3,57,1623676087.0,32.000000
-26,-3,57,1623676087.0,32.000000
-27,-3,58,1623676087.0,32.000000
-26,-3,58,1623676087.0,32.000000
-26,-2,58,1623676087.0,32.000000
-26,-3,58,1623676087.0,32.000000
-26,-2,58,1623676087.0,32.000000
-26,-3,57,1623676087.0,32.000000
-26,-3,57,1623676087.0,32.000000
-26,-3,57,1623676087.0,32.000000
-27,-3,57,1623676087.0,32.000000
-26,-3,57,1623676087.0,32.000000
-26,-3,57,1623676087.0,32.000000
-26,-3,58,1623676087.0,32.000000
-26,-3,58,1623676087.0,32.000000
-26,-3,58,1623676087.0,32.000000
-26,-3,58,1623676087.0,32.000000
-26,-3,57,1623676087.0,32.000000
-26,-3,58,1623676087.0,32.000000
-26,-2,57,1623676087.0,32.000000
-26,-3,58,1623676087.0,32.000000
-26,-2,58,1623676087.0,32.000000
-26,-3,58,1623676087.0,32.000000
-26,-3,57,1623676087.0,32.000000
-26,-3,57,1623676087.0,32.000000
-26,-3,57,1623676087.0,32.000000
-26,-3,57,1623676087.0,32.000000
-26,-3,57,1623676087.0,32.000000
-26,-3,58,1623676087.0,32.000000
-26,-3,57,1623676087.0,32.000000
-26,-2,58,1623676087.0,32.000000
-26,-3,58,1623676087.0,32.000000
-26,-2,58,1623676087.0,32.000000
-25,-3,57,1623676087.0,32.000000
-25,-3,57,1623676087.0,32.000000
-26,-3,57,1623676087.0,32.000000
-25,-3,57,1623676087.0,32.000000
-26,-2,58,1623676087.0,32.000000
-26,-3,58,1623676087.0,32.000000
-26,-3,58,1623676087.0,32.000000
-26,-3,58,1623676087.0,32.000000
-26,-3,58,1623676087.0,32.000000
-26,-3,58,1623676087.0,32.000000
-26,-3,58,1623676087.0,32.000000
-26,-3,57,1623676087.0,32.000000
-26,-3,57,1623676087.0,32.000000
-26,-3,58,1623676087.0,32.000000
-26,-2,58,1623676087.0,32.000000
-25,-3,57,1623676087.0,32.000000
-26,-3,58,1623676087.0,32.000000
-26,-3,58,1623676087.0,32.000000
-26,-3,57,1623676087.0,32.000000
-26,-3,57,1623676087.0,32.000000
-26,-3,58,1623676087.0,32.000000
-26,-3,58,1623676087.0,32.000000
-26,-3,58,1623676087.0,32.000000
-26,-3,57,1623676087.0,32.000000
-26,-3,57,1623676087.0,32.000000
-26,-3,57,1623676087.0,32.000000
-26,-3,57,1623676087.0,32.000000
-26,-2,57,1623676087.0,32.000000
-25,-2,58,1623676087.0,32.000000
-25,-2,58,1623676087.0,32.000000
-25,-2,58,1623676087.0,32.000000
-25,-3,58,1623676087.0,32.000000
-26,-3,58,1623676087.0,32.000000
-26,-3,57,1623676087.0,32.000000
-26,-3,57,1623676087.0,32.000000
-26,-3,58,1623676087.0,32.000000
-25,-3,57,1623676087.0,32.000000
-26,-3,57,1623676087.0,32.000000
-26,-3,58,1623676087.0,32.000000
-26,-2,57,1623676087.0,32.000000
-26,-3,57,1623676087.0,32.000000
-26,-3,57,1623676087.0,32.000000
-26,-3,58,1623676087.0,32.000000
-26,-3,58,1623676087.0,32.000000
-26,-2,57,1623676087.0,32.000000
-26,-3,57,1623676087.0,32.000000
-26,-3,58,1623676087.0,32.000000
-26,-3,58,1623676087.0,32.000000
-26,-3,58,1623676087.0,32.000000
-26,-3,57,1623676087.0,32.000000
-26,-3,58,1623676087.0,32.000000
-27,-2,58,1623676087.0,32.000000
-27,-3,57,1623676087.0,32.000000
-27,-3,56,1623676087.0,32.000000
-27,-3,57,1623676087.0,32.000000
-26,-2,58,1623676087.0,32.000000
-25,-2,57,1623676087.0,32.000000
-25,-2,58,1623676087.0,32.000000
-26,-2,58,1623676087.0,32.000000
-26,-2,58,1623676087.0,32.000000
-26,-3,57,1623676087.0,32.000000
-26,-3,57,1623676087.0,32.000000
-27,-3,58,1623676087.0,32.000000
-26,-2,57,1623676087.0,32.000000
-26,-3,57,1623676087.0,32.000000
-27,-3,57,1623676087.0,32.000000
-27,-4,56,1623676087.0,32.000000
-27,-2,57,1623676087.0,32.000000
-26,-2,57,1623676087.0,32.000000
-26,-3,57,1623676087.0,32.000000
-25,-3,57,1623676087.0,32.000000
-25,-2,57,1623676087.0,32.000000
-26,-2,58,1623676087.0,32.000000
-26,-3,56,1623676087.0,32.000000
-27,-3,57,1623676087.0,32.000000
-27,-4,57,1623676087.0,32.000000
-27,-3,57,1623676087.0,32.000000
-27,-3,57,1623676087.0,32.000000
-27,-3,57,1623676087.0,32.000000
-27,-3,57,1623676087.0,32.000000
-26,-3,57,1623676087.0,32.000000
-27,-3,58,1623676087.0,32.000000
-26,-3,58,1623676087.0,32.000000
-26,-2,57,1623676087.0,32.000000
-27,-3,57,1623676087.0,32.000000
-27,-3,57,1623676087.0,32.000000
-27,-3,57,1623676087.0,32.000000
-27,-3,57,1623676087.0,32.000000
-28,-3,57,1623676087.0,32.000000
-27,-3,56,1623676087.0,32.000000
-27,-3,57,1623676087.0,32.000000
-27,-3,58,1623676087.0,32.000000
-26,-2,57,1623676087.0,32.000000
-27,-3,57,1623676087.0,32.000000
-27,-3,57,1623676087.0,32.000000
-27,-2,57,1623676087.0,32.000000
-28,-3,58,1623676087.0,32.000000
-27,-3,57,1623676087.0,32.000000
-28,-3,57,1623676087.0,32.000000
-28,-3,56,1623676087.0,32.000000
-27,-3,57,1623676087.0,32.000000
-27,-3,57,1623676087.0,32.000000
-27,-3,57,1623676087.0,32.000000
-27,-2,57,1623676087.0,32.000000
-27,-2,57,1623676087.0,32.000000
-27,-2,57,1623676087.0,32.000000
-27,-3,57,1623676087.0,32.000000
-28,-3,57,1623676087.0,32.000000
-27,-3,56,1623676087.0,32.000000
-28,-3,56,1623676087.0,32.000000
-27,-3,57,1623676087.0,32.000000
-27,-3,57,1623676087.0,32.000000
-27,-2,57,1623676087.0,32.000000
-27,-2,56,1623676087.0,32.000000
-27,-3,57,1623676087.0,32.000000
-27,-3,57,1623676087.0,32.000000
-27,-3,57,1623676087.0,32.000000
-28,-3,57,1623676087.0,32.000000
-27,-3,57,1623676087.0,32.000000
-28,-3,57,1623676087.0,32.000000
-27,-3,57,1623676087.0,32.000000
-27,-2,56,1623676087.0,32.000000
-28,-3,57,1623676087.0,32.000000
-27,-3,56,1623676087.0,32.000000
-28,-3,57,1623676087.0,32.000000
-28,-3,57,1623676087.0,32.000000
-28,-3,57,1623676087.0,32.000000
-27,-3,56,1623676087.0,32.000000
-27,-3,57,1623676087.0,32.000000
-27,-3,56,1623676087.0,32.000000
-27,-3,56,1623676087.0,32.000000
-28,-3,56,1623676087.0,32.000000
-28,-3,57,1623676087.0,32.000000
-27,-3,57,1623676087.0,32.000000
-28,-2,57,1623676087.0,32.000000
-27,-3,57,1623676087.0,32.000000
-27,-3,56,1623676087.0,32.000000
-27,-3,57,1623676087.0,32.000000
-28,-3,56,1623676087.0,32.000000
-28,-3,56,1623676087.0,32.000000
-28,-3,56,1623676087.0,32.000000
-28,-3,56,1623676087.0,32.000000
-27,-3,57,1623676087.0,32.000000
-28,-2,57,1623676087.0,32.000000
-27,-3,56,1623676087.0,32.000000
-28,-3,56,1623676087.0,32.000000
-28,-3,57,1623676087.0,32.000000
-28,-3,56,1623676087.0,32.000000
-28,-3,56,1623676087.0,32.000000
-28,-3,56,1623676087.0,32.000000
-28,-3,56,1623676087.0,32.000000
-28,-3,56,1623676087.0,32.000000
-28,-3,56,1623676087.0,32.000000
-27,-3,56,1623676087.0,32.000000
-28,-3,57,1623676087.0,32.000000
-28,-3,56,1623676087.0,32.000000
-28,-3,56,1623676087.0,32.000000
-28,-3,56,1623676087.0,32.000000
-28,-3,56,1623676087.0,32.000000
-28,-3,57,1623676087.0,32.000000
-28,-3,56,1623676087.0,32.000000
-28,-3,56,1623676087.0,32.000000
-29,-3,56,1623676087.0,32.000000
-29,-2,56,1623676087.0,32.000000
-28,-3,56,1623676087.0,32.000000
-28,-3,56,1623676087.0,32.000000
-28,-3,57,1623676087.0,32.000000
-28,-3,57,1623676087.0,32.000000
-28,-3,56,1623676087.0,32.000000
-28,-3,56,1623676087.0,32.000000
-29,-3,56,1623676087.0,32.000000
-28,-3,56,1623676087.0,32.000000
-28,-3,56,1623676087.0,32.000000
-28,-3,57,1623676087.0,32.000000
-28,-3,57,1623676087.0,32.000000
-28,-3,56,1623676087.0,32.000000
-28,-3,56,1623676087.0,32.000000
-29,-3,56,1623676087.0,32.000000
-29,-3,57,1623676087.0,32.000000
-29,-3,56,1623676087.0,32.000000
-29,-3,56,1623676087.0,32.000000
-28,-3,56,1623676087.0,32.000000
-29,-2,57,1623676087.0,32.000000
-28,-2,56,1623676087.0,32.000000
-27,-3,56,1623676087.0,32.000000
-28,-3,56,1623676087.0,32.000000
-29,-3,56,1623676087.0,32.000000
-28,-3,56,1623676087.0,32.000000
-29,-3,56,1623676087.0,32.000000
-28,-3,56,1623676087.0,32.000000
-28,-3,56,1623676087.0,32.000000
-28,-3,56,1623676087.0,32.000000
-28,-3,56,1623676087.0,32.000000
-28,-3,56,1623676087.0,32.000000
-29,-3,56,1623676087.0,32.000000
-28,-3,56,1623676087.0,32.000000
-28,-3,56,1623676087.0,32.000000
-28,-3,57,1623676087.0,32.000000
-28,-3,57,1623676087.0,32.000000
-27,-3,57,1623676087.0,32.000000
-27,-3,56,1623676087.0,32.000000
-28,-3,57,1623676087.0,32.000000
-28,-3,56,1623676087.0,32.000000
-28,-2,56,1623676087.0,32.000000
-28,-3,57,1623676087.0,32.000000
-28,-3,56,1623676087.0,32.000000
-27,-3,56,1623676087.0,32.000000
-28,-2,57,1623676087.0,32.000000
-28,-3,56,1623676087.0,32.000000
-27,-2,56,1623676087.0,32.000000
-27,-2,56,1623676087.0,32.000000
-28,-3,56,1623676087.0,32.000000
-28,-3,56,1623676087.0,32.000000
-28,-3,56,1623676087.0,32.000000
-28,-3,56,1623676087.0,32.000000
-27,-3,56,1623676087.0,32.000000
-28,-3,57,1623676087.0,32.000000
-27,-3,56,1623676087.0,32.000000
-28,-3,57,1623676087.0,32.000000
-28,-3,57,1623676087.0,32.000000
-28,-3,56,1623676087.0,32.000000
-28,-3,57,1623676087.0,32.000000
-27,-3,56,1623676087.0,32.000000
-28,-3,57,1623676087.0,32.000000
-28,-3,57,1623676087.0,32.000000
-28,-3,57,1623676087.0,32.000000
-27,-3,57,1623676087.0,32.000000
-27,-3,57,1623676087.0,32.000000
-28,-3,57,1623676087.0,32.000000
-27,-3,57,1623676087.0,32.000000
-28,-2,56,1623676087.0,32.000000
-28,-3,57,1623676087.0,32.000000
-27,-3,56,1623676087.0,32.000000
-28,-3,57,1623676087.0,32.000000
-28,-3,56,1623676087.0,32.000000
-27,-3,56,1623676087.0,32.000000
-28,-3,57,1623676087.0,32.000000
-28,-3,57,1623676087.0,32.000000
-27,-3,56,1623676087.0,32.000000
-28,-3,57,1623676087.0,32.000000
-27,-3,57,1623676087.0,32.000000
-27,-3,57,1623676087.0,32.000000
-27,-3,56,1623676087.0,32.000000
-28,-2,57,1623676087.0,32.000000
-28,-3,57,1623676087.0,32.000000
-27,-3,56,1623676087.0,32.000000
-28,-3,57,1623676087.0,32.000000
-27,-3,57,1623676087.0,32.000000
-27,-3,56,1623676087.0,32.000000
-27,-2,56,1623676087.0,32.000000
-27,-3,57,1623676087.0,32.000000
-27,-3,56,1623676087.0,32.000000
-27,-3,57,1623676087.0,32.000000
-27,-3,57,1623676087.0,32.000000
-27,-3,56,1623676087.0,32.000000
-27,-3,57,1623676087.0,32.000000
-27,-3,57,1623676087.0,32.000000
-27,-3,57,1623676087.0,32.000000
-27,-3,57,1623676087.0,32.000000
-27,-3,57,1623676087.0,32.000000
-27,-3,57,1623676087.0,32.000000
-27,-3,57,1623676087.0,32.000000
-27,-3,56,1623676087.0,32.000000
-27,-3,56,1623676087.0,32.000000
-27,-3,57,1623676087.0,32.000000
-27,-3,57,1623676087.0,32.000000
-27,-3,57,1623676087.0,32.000000
-27,-3,57,1623676087.0,32.000000
-27,-3,57,1623676087.0,32.000000
-27,-3,57,1623676087.0,32.000000
-27,-3,57,1623676087.0,32.000000
-27,-3,57,1623676087.0,32.000000
-27,-3,57,1623676087.0,32.000000
-27,-3,57,1623676087.0,32.000000
-27,-3,57,1623676087.0,32.000000
-27,-3,57,1623676087.0,32.000000
-27,-3,57,1623676087.0,32.000000
-27,-3,57,1623676087.0,32.000000
-27,-3,57,1623676087.0,32.000000
-27,-3,57,1623676087.0,32.000000
-27,-3,57,1623676087.0,32.000000
-27,-3,57,1623676087.0,32.000000
-27,-3,57,1623676087.0,32.000000
-27,-3,57,1623676087.0,32.000000
-27,-3,57,1623676087.0,32.000000
-27,-3,57,1623676087.0,32.000000
-27,-3,57,1623676087.0,32.000000
-27,-3,57,1623676087.0,32.000000
-27,-3,57,1623676087.0,32.000000
-27,-3,57,1623676087.0,32.000000
-27,-3,58,1623676087.0,32.000000
-27,-3,57,1623676087.0,32.000000
-27,-3,57,1623676087.0,32.000000
-27,-3,57,1623676087.0,32.000000
-27,-3,57,1623676087.0,32.000000
-27,-3,57,1623676087.0,32.000000
-27,-3,57,1623676087.0,32.000000
-27,-3,57,1623676087.0,32.000000
-27,-3,57,1623676087.0,32.000000
-27,-3,57,1623676087.0,32.000000
-27,-3,57,1623676087.0,32.000000
-27,-3,57,1623676087.0,32.000000
-27,-3,57,1623676087.0,32.000000
-26,-3,57,1623676087.0,32.000000
-27,-3,57,1623676087.0,32.000000
-27,-3,57,1623676087.0,32.000000
-27,-3,57,1623676087.0,32.000000
-27,-3,57,1623676087.0,32.000000
-27,-3,57,1623676087.0,32.000000
-27,-3,57,1623676087.0,32.000000
-27,-2,57,1623676087.0,32.000000
-27,-3,58,1623676087.0,32.000000
-26,-3,57,1623676087.0,32.000000
-27,-3,57,1623676087.0,32.000000
-27,-3,57,1623676087.0,32.000000
-27,-3,57,1623676087.0,32.000000
-26,-3,57,1623676087.0,32.000000
-27,-3,57,1623676087.0,32.000000
-27,-3,57,1623676087.0,32.000000
-27,-3,57,1623676087.0,32.000000
-27,-3,57,1623676087.0,32.000000
-27,-3,57,1623676087.0,32.000000
-27,-3,57,1623676087.0,32.000000
-27,-3,57,1623676087.0,32.000000
-27,-3,57,1623676087.0,32.000000
-27,-3,57,1623676087.0,32.000000
-27,-3,57,1623676087.0,32.000000
-27,-3,58,1623676087.0,32.000000
-27,-3,57,1623676087.0,32.000000
-27,-3,57,1623676087.0,32.000000
-27,-3,57,1623676087.0,32.000000
-27,-3,57,1623676087.0,32.000000
-27,-3,57,1623676087.0,32.000000
-27,-3,57,1623676087.0,32.000000
-27,-3,57,1623676087.0,32.000000
-26,-3,57,1623676087.0,32.000000
-26,-3,57,1623676087.0,32.000000
-27,-3,57,1623676087.0,32.000000
-27,-3,57,1623676087.0,32.000000
-26,-3,57,1623676087.0,32.000000
-27,-3,57,1623676087.0,32.000000
-27,-3,57,1623676087.0,32.000000
-27,-3,57,1623676087.0,32.000000
-27,-3,57,1623676087.0,32.000000
-27,-3,57,1623676087.0,32.000000
-26,-3,57,1623676087.0,32.000000
-26,-3,57,1623676087.0,32.000000
-27,-3,58,1623676087.0,32.000000
-26,-2,57,1623676087.0,32.000000
-26,-2,57,1623676087.0,32.000000
-27,-3,57,1623676087.0,32.000000
-27,-3,57,1623676087.0,32.000000
-27,-3,57,1623676087.0,32.000000
-27,-3,56,1623676087.0,32.000000
-27,-3,57,1623676087.0,32.000000
-27,-3,57,1623676087.0,32.000000
-27,-3,57,1623676087.0,32.000000
-27,-3,57,1623676087.0,32.000000
-27,-2,57,1623676087.0,32.000000
-26,-2,57,1623676087.0,32.000000
-25,-2,57,1623676087.0,32.000000
-25,-2,57,1623676087.0,32.000000
-26,-2,58,1623676087.0,32.000000
-26,-2,57,1623676087.0,32.000000
-27,-3,57,1623676087.0,32.000000
-28,-3,56,1623676087.0,32.000000
-30,-4,56,1623676087.0,32.000000
-30,-4,56,1623676087.0,32.000000
-29,-4,56,1623676087.0,32.000000
-28,-4,57,1623676087.0,32.000000
-28,-3,57,1623676087.0,32.000000
-26,-3,57,1623676087.0,32.000000
-25,-2,57,1623676087.0,32.000000
-24,-1,58,1623676087.0,32.000000
-24,0,58,1623676087.0,32.000000
-25,-1,58,1623676087.0,32.000000
-28,-3,56,1623676087.0,32.000000
-29,-4,57,1623676087.0,32.000000
-31,-5,56,1623676087.0,32.000000
-31,-5,55,1623676087.0,32.000000
-30,-4,55,1623676087.0,32.000000
-28,-3,56,1623676087.0,32.000000
-27,-2,57,1623676087.0,32.000000
-25,-2,58,1623676087.0,32.000000
-24,-2,58,1623676087.0,32.000000
-24,-2,58,1623676087.0,32.000000
-25,-1,57,1623676087.0,32.000000
-26,-2,56,1623676087.0,32.000000
-28,-3,56,1623676087.0,32.000000
-29,-4,56,1623676087.0,32.000000
-30,-5,56,1623676087.0,32.000000
-30,-5,56,1623676087.0,32.000000
-29,-4,56,1623676087.0,32.000000
-28,-3,56,1623676087.0,32.000000
-27,-2,57,1623676087.0,32.000000
-26,-2,57,1623676087.0,32.000000
-25,-2,58,1623676087.0,32.000000
-25,-1,58,1623676087.0,32.000000
-25,-1,58,1623676087.0,32.000000
-26,-2,57,1623676087.0,32.000000
-27,-2,56,1623676087.0,32.000000
-29,-4,56,1623676087.0,32.000000
-30,-5,56,1623676087.0,32.000000
-29,-4,56,1623676087.0,32.000000
-29,-3,56,1623676087.0,32.000000
-27,-3,56,1623676087.0,32.000000
-26,-2,57,1623676087.0,32.000000
-25,-2,58,1623676087.0,32.000000
-25,-1,58,1623676087.0,32.000000
-25,-1,58,1623676087.0,32.000000
-27,-2,57,1623676087.0,32.000000
-28,-3,57,1623676087.0,32.000000
-29,-4,56,1623676087.0,32.000000
-29,-4,56,1623676087.0,32.000000
-29,-4,56,1623676087.0,32.000000
-28,-4,56,1623676087.0,32.000000
-28,-3,57,1623676087.0,32.000000
-27,-3,57,1623676087.0,32.000000
-26,-3,57,1623676087.0,32.000000
-26,-2,57,1623676087.0,32.000000
-26,-2,57,1623676087.0,32.000000
-26,-2,57,1623676087.0,32.000000
-27,-3,56,1623676087.0,32.000000
-28,-3,57,1623676087.0,32.000000
-28,-3,56,1623676087.0,32.000000
-29,-4,56,1623676087.0,32.000000
-29,-4,56,1623676087.0,32.000000
-28,-3,56,1623676087.0,32.000000
-27,-3,57,1623676087.0,32.000000
-26,-2,57,1623676087.0,32.000000
-26,-2,57,1623676087.0,32.000000
-26,-2,57,1623676087.0,32.000000
-26,-2,58,1623676087.0,32.000000
-27,-3,56,1623676087.0,32.000000
-28,-3,56,1623676087.0,32.000000
-29,-4,56,1623676087.0,32.000000
-29,-3,56,1623676087.0,32.000000
-29,-4,56,1623676087.0,32.000000
-27,-3,57,1623676087.0,32.000000
-27,-3,57,1623676087.0,32.000000
-27,-3,58,1623676087.0,32.000000
-26,-3,57,1623676087.0,32.000000
-26,-3,57,1623676087.0,32.000000
-26,-2,57,1623676087.0,32.000000
-27,-2,56,1623676087.0,32.000000
-27,-3,57,1623676087.0,32.000000
-29,-4,57,1623676087.0,32.000000
-29,-4,57,1623676087.0,32.000000
-29,-4,56,1623676087.0,32.000000
-28,-3,56,1623676087.0,32.000000
-28,-3,57,1623676087.0,32.000000
-26,-2,57,1623676087.0,32.000000
-25,-2,57,1623676087.0,32.000000
-25,-2,57,1623676087.0,32.000000
-26,-2,58,1623676087.0,32.000000
-26,-3,57,1623676087.0,32.000000
-28,-3,57,1623676087.0,32.000000
-29,-4,57,1623676087.0,32.000000
-29,-4,56,1623676087.0,32.000000
-28,-3,56,1623676087.0,32.000000
-27,-3,57,1623676087.0,32.000000
-27,-2,58,1623676087.0,32.000000
-26,-2,57,1623676087.0,32.000000
-25,-2,57,1623676087.0,32.000000
-27,-2,57,1623676087.0,32.000000
-27,-3,57,1623676087.0,32.000000
-28,-3,56,1623676087.0,32.000000
-28,-3,57,1623676087.0,32.000000
-28,-3,56,1623676087.0,32.000000
-27,-3,57,1623676087.0,32.000000
-27,-3,57,1623676087.0,32.000000
-27,-3,57,1623676087.0,32.000000
-26,-3,57,1623676087.0,32.000000
-27,-3,57,1623676087.0,32.000000
-27,-3,57,1623676087.0,32.000000
-27,-3,57,1623676087.0,32.000000
-27,-3,56,1623676087.0,32.000000
-27,-3,58,1623676087.0,32.000000
-27,-3,57,1623676087.0,32.000000
-27,-3,57,1623676087.0,32.000000
-27,-3,57,1623676087.0,32.000000
-27,-3,57,1623676087.0,32.000000
-27,-3,56,1623676087.0,32.000000
-27,-3,57,1623676087.0,32.000000
-27,-3,57,1623676087.0,32.000000
-27,-3,57,1623676087.0,32.000000
-27,-3,56,1623676087.0,32.000000
-27,-3,57,1623676087.0,32.000000
-27,-3,56,1623676087.0,32.000000
-27,-3,57,1623676087.0,32.000000
-27,-3,57,1623676087.0,32.000000
-27,-3,57,1623676087.0,32.000000
-27,-3,57,1623676087.0,32.000000
-27,-3,57,1623676087.0,32.000000
-27,-3,57,1623676087.0,32.000000
-27,-3,57,1623676087.0,32.000000
-27,-3,57,1623676087.0,32.000000
-27,-3,57,1623676087.0,32.000000
-27,-3,57,1623676087.0,32.000000
-27,-2,57,1623676087.0,32.000000
-26,-3,56,1623676087.0,32.000000
-27,-3,57,1623676087.0,32.000000
-27,-3,57,1623676087.0,32.000000
-27,-3,57,1623676087.0,32.000000
-27,-4,56,1623676087.0,32.000000
-27,-3,57,1623676087.0,32.000000
-27,-3,57,1623676087.0,32.000000
-27,-3,57,1623676087.0,32.000000
-27,-3,57,1623676087.0,32.000000
-27,-3,56,1623676087.0,32.000000
-27,-3,57,1623676087.0,32.000000
-27,-3,57,1623676087.0,32.000000
-27,-3,57,1623676087.0,32.000000
-27,-3,56,1623676087.0,32.000000
-27,-3,57,1623676087.0,32.000000
-27,-3,57,1623676087.0,32.000000
-27,-3,57,1623676087.0,32.000000
-27,-3,57,1623676087.0,32.000000
-27,-3,57,1623676087.0,32.000000
-27,-3,57,1623676087.0,32.000000
-27,-3,56,1623676087.0,32.000000
-27,-3,57,1623676087.0,32.000000
-27,-3,57,1623676087.0,32.000000
-26,-2,57,1623676087.0,32.000000
-26,-1,57,1623676087.0,32.000000
-27,-2,57,1623676087.0,32.000000
-27,-5,58,1623676087.0,32.000000
-28,-5,58,1623676087.0,32.000000
-29,-5,57,1623676087.0,32.000000
-29,-4,56,1623676087.0,32.000000
-29,-4,55,1623676087.0,32.000000
-26,-2,56,1623676087.0,32.000000
-25,0,58,1623676087.0,32.000000
-24,0,58,1623676087.0,32.000000
-24,-1,58,1623676087.0,32.000000
-26,-2,58,1623676087.0,32.000000
-29,-5,57,1623676087.0,32.000000
-31,-5,55,1623676087.0,32.000000
-31,-5,55,1623676087.0,32.000000
-30,-4,55,1623676087.0,32.000000
-28,-3,56,1623676087.0,32.000000
-25,-2,58,1623676087.0,32.000000
-23,-1,58,1623676087.0,32.000000
-24,-1,58,1623676087.0,32.000000
-25,-1,57,1623676087.0,32.000000
-27,-3,56,1623676087.0,32.000000
-29,-4,56,1623676087.0,32.000000
-30,-5,56,1623676087.0,32.000000
-30,-5,56,1623676087.0,32.000000
-29,-5,56,1623676087.0,32.000000
-27,-3,57,1623676087.0,32.000000
-27,-3,57,1623676087.0,32.000000
-26,-2,58,1623676087.0,32.000000
-25,-2,58,1623676087.0,32.000000
-25,-2,57,1623676087.0,32.000000
-27,-2,57,1623676087.0,32.000000
-28,-3,57,1623676087.0,32.000000
-29,-4,56,1623676087.0,32.000000
-29,-4,57,1623676087.0,32.000000
-29,-4,57,1623676087.0,32.000000
-27,-3,56,1623676087.0,32.000000
-27,-3,56,1623676087.0,32.000000
-26,-2,57,1623676087.0,32.000000
-26,-2,57,1623676087.0,32.000000
-26,-2,57,1623676087.0,32.000000
-26,-3,56,1623676087.0,32.000000
-27,-2,56,1623676087.0,32.000000
-28,-1,56,1623676087.0,32.000000
-28,-3,56,1623676087.0,32.000000
-29,-5,56,1623676087.0,32.000000
-29,-4,57,1623676087.0,32.000000
-28,-2,56,1623676087.0,32.000000
-27,-2,56,1623676087.0,32.000000
-26,-2,57,1623676087.0,32.000000
-25,-2,58,1623676087.0,32.000000
-25,-2,59,1623676087.0,32.000000
-26,-2,57,1623676087.0,32.000000
-27,-3,57,1623676087.0,32.000000
-28,-3,56,1623676087.0,32.000000
-29,-3,56,1623676087.0,32.000000
-29,-3,56,1623676087.0,32.000000
-28,-4,56,1623676087.0,32.000000
-27,-3,56,1623676087.0,32.000000
-27,-3,58,1623676087.0,32.000000
-26,-2,57,1623676087.0,32.000000
-26,-3,57,1623676087.0,32.000000
-27,-3,56,1623676087.0,32.000000
-27,-3,57,1623676087.0,32.000000
-27,-3,57,1623676087.0,32.000000
-27,-3,56,1623676087.0,32.000000
-28,-3,56,1623676087.0,32.000000
-28,-3,57,1623676087.0,32.000000
-28,-3,57,1623676087.0,32.000000
-28,-3,56,1623676087.0,32.000000
-27,-3,57,1623676087.0,32.000000
-27,-3,57,1623676087.0,32.000000
-27,-3,57,1623676087.0,32.000000
-27,-3,57,1623676087.0,32.000000
-27,-3,57,1623676087.0,32.000000
-27,-3,57,1623676087.0,32.000000
-28,-3,56,1623676087.0,32.000000
-28,-3,56,1623676087.0,32.000000
-27,-3,57,1623676087.0,32.000000
-27,-3,56,1623676087.0,32.000000
-27,-3,57,1623676087.0,32.000000
-27,-3,57,1623676087.0,32.000000
-27,-3,56,1623676087.0,32.000000
-28,-3,57,1623676087.0,32.000000
-28,-3,57,1623676087.0,32.000000
-27,-3,56,1623676087.0,32.000000
-27,-3,57,1623676087.0,32.000000
-27,-3,57,1623676087.0,32.000000
-27,-3,56,1623676087.0,32.000000
-27,-3,57,1623676087.0,32.000000
-27,-3,56,1623676087.0,32.000000
-28,-3,57,1623676087.0,32.000000
-28,-4,57,1623676087.0,32.000000
-28,-4,56,1623676087.0,32.000000
-27,-3,56,1623676087.0,32.000000
-27,-3,56,1623676087.0,32.000000
-28,-4,56,1623676087.0,32.000000
-28,-4,56,1623676087.0,32.000000
-28,-4,56,1623676087.0,32.000000
-28,-4,56,1623676087.0,32.000000
-29,-4,56,1623676087.0,32.000000
-28,-4,55,1623676087.0,32.000000
-28,-4,55,1623676087.0,32.000000
-29,-4,57,1623676087.0,32.000000
-28,-2,57,1623676087.0,32.000000
-27,-3,56,1623676087.0,32.000000
-28,-3,56,1623676087.0,32.000000
-29,-3,57,1623676087.0,32.000000
-28,-3,56,1623676087.0,32.000000
-28,-3,57,1623676087.0,32.000000
-28,-2,57,1623676087.0,32.000000
-27,-2,57,1623676087.0,32.000000
-27,-2,57,1623676087.0,32.000000
-28,-2,57,1623676087.0,32.000000
-28,-3,56,1623676087.0,32.000000
-28,-3,56,1623676087.0,32.000000
-28,-2,56,1623676087.0,32.000000
-28,-3,57,1623676087.0,32.000000
-28,-3,56,1623676087.0,32.000000
-28,-3,56,1623676087.0,32.000000
-28,-4,56,1623676087.0,32.000000
-28,-4,56,1623676087.0,32.000000
-28,-3,56,1623676087.0,32.000000
-29,-4,57,1623676087.0,32.000000
-28,-3,56,1623676087.0,32.000000
-28,-3,56,1623676087.0,32.000000
-29,-4,57,1623676087.0,32.000000
-28,-4,56,1623676087.0,32.000000
-28,-4,57,1623676087.0,32.000000
-28,-4,57,1623676087.0,32.000000
-28,-3,57,1623676087.0,32.000000
-28,-3,57,1623676087.0,32.000000
-27,-3,56,1623676087.0,32.000000
-28,-2,57,1623676087.0,32.000000
-28,-2,57,1623676087.0,32.000000
-28,-2,56,1623676087.0,32.000000
-28,-2,56,1623676087.0,32.000000
-28,-3,57,1623676087.0,32.000000
-28,-3,57,1623676087.0,32.000000
-27,-3,56,1623676087.0,32.000000
-27,-2,57,1623676087.0,32.000000
-27,-2,58,1623676087.0,32.000000
-26,-1,58,1623676087.0,32.000000
-26,-1,57,1623676087.0,32.000000
-26,-1,57,1623676087.0,32.000000
-27,-1,57,1623676087.0,32.000000
-27,-2,56,1623676087.0,32.000000
-27,-3,57,1623676087.0,32.000000
-27,-3,57,1623676087.0,32.000000
-27,-3,57,1623676087.0,32.000000
-27,-3,57,1623676087.0,32.000000
-27,-3,56,1623676087.0,32.000000
-28,-3,56,1623676087.0,32.000000
-29,-3,56,1623676087.0,32.000000
-29,-3,57,1623676087.0,32.000000
-28,-3,56,1623676087.0,32.000000
-27,-2,57,1623676087.0,32.000000
-28,-3,57,1623676087.0,32.000000
-28,-3,57,1623676087.0,32.000000
-28,-3,56,1623676087.0,32.000000
-28,-3,56,1623676087.0,32.000000
-28,-3,56,1623676087.0,32.000000
-28,-3,56,1623676087.0,32.000000
-28,-3,56,1623676087.0,32.000000
-28,-3,56,1623676087.0,32.000000
-29,-3,56,1623676087.0,32.000000
-29,-3,56,1623676087.0,32.000000
-28,-3,56,1623676087.0,32.000000
-28,-3,56,1623676087.0,32.000000
-28,-3,57,1623676087.0,32.000000
-28,-3,57,1623676087.0,32.000000
-27,-3,56,1623676087.0,32.000000
-27,-3,56,1623676087.0,32.000000
-28,-3,57,1623676087.0,32.000000
-28,-3,56,1623676087.0,32.000000
-28,-3,56,1623676087.0,32.000000
-28,-3,56,1623676087.0,32.000000
-28,-3,57,1623676087.0,32.000000
-27,-3,57,1623676087.0,32.000000
-27,-3,57,1623676087.0,32.000000
-27,-3,57,1623676087.0,32.000000
-28,-3,56,1623676087.0,32.000000
-27,-3,56,1623676087.0,32.000000
-28,-3,57,1623676087.0,32.000000
-27,-3,57,1623676087.0,32.000000
-27,-3,57,1623676087.0,32.000000
-27,-3,57,1623676087.0,32.000000
-27,-3,56,1623676087.0,32.000000
-27,-2,57,1623676087.0,32.000000
-27,-3,57,1623676087.0,32.000000
-28,-3,57,1623676087.0,32.000000
-27,-3,56,1623676087.0,32.000000
-27,-3,56,1623676087.0,32.000000
-27,-3,57,1623676087.0,32.000000
-27,-3,57,1623676087.0,32.000000
-27,-3,56,1623676087.0,32.000000
-27,-3,57,1623676087.0,32.000000
-27,-3,56,1623676087.0,32.000000
-27,-3,57,1623676087.0,32.000000
-28,-3,57,1623676087.0,32.000000
-27,-3,56,1623676087.0,32.000000
-28,-3,57,1623676087.0,32.000000
-28,-3,56,1623676087.0,32.000000
-27,-3,57,1623676087.0,32.000000
-28,-3,56,1623676087.0,32.000000
-28,-3,57,1623676087.0,32.000000
-28,-3,57,1623676087.0,32.000000
-27,-4,56,1623676087.0,32.000000
-27,-4,56,1623676087.0,32.000000
-28,-4,57,1623676087.0,32.000000
-28,-4,56,1623676087.0,32.000000
-28,-4,56,1623676087.0,32.000000
-28,-4,56,1623676087.0,32.000000
-28,-4,56,1623676087.0,32.000000
-28,-4,56,1623676087.0,32.000000
-28,-4,57,1623676087.0,32.000000
-28,-4,56,1623676087.0,32.000000
-28,-4,57,1623676087.0,32.000000
-28,-3,56,1623676087.0,32.000000
-28,-4,56,1623676087.0,32.000000
-28,-4,57,1623676087.0,32.000000
-28,-4,56,1623676087.0,32.000000
-28,-4,57,1623676087.0,32.000000
-28,-5,56,1623676087.0,32.000000
-28,-4,56,1623676087.0,32.000000
-28,-4,56,1623676087.0,32.000000
-27,-3,56,1623676087.0,32.000000
-27,-3,56,1623676087.0,32.000000
-28,-3,56,1623676087.0,32.000000
-28,-3,56,1623676087.0,32.000000
-27,-3,56,1623676087.0,32.000000
-27,-3,56,1623676087.0,32.000000
-27,-4,57,1623676087.0,32.000000
-27,-3,57,1623676087.0,32.000000
-28,-4,56,1623676087.0,32.000000
-28,-4,56,1623676087.0,32.000000
-28,-3,56,1623676087.0,32.000000
-27,-3,56,1623676087.0,32.000000
-28,-3,57,1623676087.0,32.000000
-28,-3,57,1623676087.0,32.000000
-28,-3,56,1623676087.0,32.000000
-28,-3,57,1623676087.0,32.000000
-28,-3,57,1623676087.0,32.000000
-27,-3,56,1623676087.0,32.000000
-28,-3,57,1623676087.0,32.000000
-27,-3,57,1623676087.0,32.000000
-27,-3,57,1623676087.0,32.000000
-27,-3,57,1623676087.0,32.000000
-27,-3,56,1623676087.0,32.000000
-27,-3,57,1623676087.0,32.000000
-28,-3,56,1623676087.0,32.000000
-28,-3,57,1623676087.0,32.000000
-27,-3,57,1623676087.0,32.000000
-27,-3,57,1623676087.0,32.000000
-28,-3,57,1623676087.0,32.000000
-27,-3,57,1623676087.0,32.000000
-27,-3,57,1623676087.0,32.000000
-27,-3,57,1623676087.0,32.000000
-27,-3,57,1623676087.0,32.000000
-27,-3,57,1623676087.0,32.000000
-28,-2,57,1623676087.0,32.000000
-27,-3,56,1623676087.0,32.000000
-27,-3,56,1623676087.0,32.000000
-27,-3,57,1623676087.0,32.000000
-27,-2,57,1623676087.0,32.000000
-27,-2,57,1623676087.0,32.000000
-27,-3,57,1623676087.0,32.000000
-27,-3,56,1623676087.0,32.000000
-27,-3,57,1623676087.0,32.000000
-27,-3,56,1623676087.0,32.000000
-27,-2,57,1623676087.0,32.000000
-27,-3,57,1623676087.0,32.000000
-27,-2,57,1623676087.0,32.000000
-28,-3,57,1623676087.0,32.000000
-28,-3,57,1623676087.0,32.000000
-27,-3,56,1623676087.0,32.000000
-27,-3,57,1623676087.0,32.000000
-27,-3,56,1623676087.0,32.000000
-27,-3,57,1623676087.0,32.000000
-27,-3,57,1623676087.0,32.000000
-27,-3,57,1623676087.0,32.000000
-27,-3,57,1623676087.0,32.000000
-27,-3,57,1623676087.0,32.000000
-28,-3,57,1623676087.0,32.000000
-27,-3,56,1623676087.0,32.000000
-27,-3,56,1623676087.0,32.000000
-27,-3,56,1623676087.0,32.000000
-27,-3,57,1623676087.0,32.000000
-27,-3,56,1623676087.0,32.000000
-28,-3,56,1623676087.0,32.000000
-28,-3,56,1623676087.0,32.000000
-27,-3,56,1623676087.0,32.000000
-27,-3,56,1623676087.0,32.000000
-28,-3,56,1623676087.0,32.000000
-28,-3,56,1623676087.0,32.000000
-28,-3,56,1623676087.0,32.000000
-27,-3,56,1623676087.0,32.000000
-28,-3,57,1623676087.0,32.000000
-28,-3,57,1623676087.0,32.000000
-28,-3,56,1623676087.0,32.000000
-28,-3,57,1623676087.0,32.000000
-28,-3,56,1623676087.0,32.000000
-28,-3,56,1623676087.0,32.000000
-28,-3,57,1623676087.0,32.000000
-27,-3,56,1623676087.0,32.000000
-28,-3,57,1623676087.0,32.000000
-28,-3,57,1623676087.0,32.000000
-28,-3,57,1623676087.0,32.000000
-27,-3,56,1623676087.0,32.000000
-27,-3,56,1623676087.0,32.000000
-28,-3,57,1623676087.0,32.000000
-27,-3,56,1623676087.0,32.000000
-27,-3,56,1623676087.0,32.000000
-27,-3,56,1623676087.0,32.000000
-27,-3,57,1623676087.0,32.000000
-27,-3,57,1623676087.0,32.000000
-27,-3,57,1623676087.0,32.000000
-27,-3,56,1623676087.0,32.000000
-28,-3,57,1623676087.0,32.000000
-27,-3,56,1623676087.0,32.000000
-28,-3,57,1623676087.0,32.000000
-29,-3,56,1623676087.0,32.000000
-27,-3,57,1623676087.0,32.000000
-27,-3,56,1623676087.0,32.000000
-27,-3,57,1623676087.0,32.000000
-28,-3,57,1623676087.0,32.000000
-27,-3,56,1623676087.0,32.000000
-27,-3,57,1623676087.0,32.000000
-27,-3,57,1623676087.0,32.000000
-27,-3,56,1623676087.0,32.000000
-28,-3,57,1623676087.0,32.000000
-28,-3,56,1623676087.0,32.000000
-28,-3,56,1623676087.0,32.000000
-28,-3,57,1623676087.0,32.000000
-28,-4,56,1623676087.0,32.000000
-28,-3,56,1623676087.0,32.000000
-28,-3,57,1623676087.0,32.000000
-28,-4,56,1623676087.0,32.000000
-28,-4,56,1623676087.0,32.000000
-28,-4,56,1623676087.0,32.000000
-28,-4,57,1623676087.0,32.000000
-29,-4,56,1623676087.0,32.000000
-27,-4,56,1623676087.0,32.000000
-28,-4,56,1623676087.0,32.000000
-28,-4,56,1623676087.0,32.000000
-28,-4,56,1623676087.0,32.000000
-28,-4,56,1623676087.0,32.000000
-28,-4,57,1623676087.0,32.000000
-28,-4,56,1623676087.0,32.000000
-27,-4,56,1623676087.0,32.000000
-28,-4,57,1623676087.0,32.000000
-28,-4,57,1623676087.0,32.000000
-28,-4,56,1623676087.0,32.000000
-28,-3,56,1623676087.0,32.000000
-28,-4,56,1623676087.0,32.000000
-27,-4,57,1623676087.0,32.000000
-28,-4,56,1623676087.0,32.000000
-27,-3,56,1623676087.0,32.000000
-28,-3,57,1623676087.0,32.000000
-27,-3,57,1623676087.0,32.000000
-28,-3,56,1623676087.0,32.000000
-27,-3,57,1623676087.0,32.000000
-27,-3,56,1623676087.0,32.000000
-28,-3,57,1623676087.0,32.000000
-27,-4,56,1623676087.0,32.000000
-27,-3,57,1623676087.0,32.000000
-27,-3,58,1623676087.0,32.000000
-26,-3,58,1623676087.0,32.000000
-29,-3,55,1623676087.0,32.000000
-28,-3,56,1623676087.0,32.000000
-28,-3,56,1623676087.0,32.000000
-27,-3,57,1623676087.0,32.000000
-28,-3,57,1623676087.0,32.000000
-27,-3,57,1623676087.0,32.000000
-27,-3,57,1623676087.0,32.000000
-28,-3,58,1623676087.0,32.000000
-27,-3,56,1623676087.0,32.000000
-27,-3,57,1623676087.0,32.000000
-27,-2,57,1623676087.0,32.000000
-27,-3,57,1623676087.0,32.000000
-27,-2,56,1623676087.0,32.000000
-26,-3,58,1623676087.0,32.000000
-25,-3,57,1623676087.0,32.000000
-26,-3,57,1623676087.0,32.000000
-26,-3,58,1623676087.0,32.000000
-26,-3,57,1623676087.0,32.000000
-27,-3,58,1623676087.0,32.000000
-26,-3,57,1623676087.0,32.000000
-27,-3,57,1623676087.0,32.000000
-27,-3,56,1623676087.0,32.000000
-26,-2,57,1623676087.0,32.000000
-26,-3,59,1623676087.0,32.000000
-25,-3,56,1623676087.0,32.000000
-26,-3,59,1623676087.0,32.000000
-26,-3,57,1623676087.0,32.000000
-26,-3,58,1623676087.0,32.000000
-26,-3,57,1623676087.0,32.000000
-26,-3,56,1623676087.0,32.000000
-27,-3,57,1623676087.0,32.000000
-27,-3,58,1623676087.0,32.000000
-26,-3,58,1623676087.0,32.000000
-26,-3,57,1623676087.0,32.000000
-27,-3,57,1623676087.0,32.000000
-27,-3,58,1623676087.0,32.000000
-27,-3,57,1623676087.0,32.000000
-27,-4,56,1623676087.0,32.000000
-26,-3,57,1623676087.0,32.000000
