ACC_X,ACC_Y,ACC_Z,start_time_unix,sampling_rate
-30,-47,29,1623718794.0,32.000000
-34,-49,24,1623718794.0,32.000000
-34,-51,26,1623718794.0,32.000000
-31,-51,26,1623718794.0,32.000000
-29,-52,25,1623718794.0,32.000000
-32,-50,27,1623718794.0,32.000000
-31,-46,29,1623718794.0,32.000000
-33,-43,29,1623718794.0,32.000000
-32,-47,27,1623718794.0,32.000000
-32,-46,23,1623718794.0,32.000000
-34,-44,23,1623718794.0,32.000000
-40,-44,21,1623718794.0,32.000000
-40,-50,16,1623718794.0,32.000000
-31,-49,23,1623718794.0,32.000000
-19,-48,30,1623718794.0,32.000000
-15,-51,37,1623718794.0,32.000000
-2,-51,43,1623718794.0,32.000000
9,-48,48,1623718794.0,32.000000
14,-42,55,1623718794.0,32.000000
5,-45,50,1623718794.0,32.000000
1,-42,45,1623718794.0,32.000000
0,-40,46,1623718794.0,32.000000
7,-41,45,1623718794.0,32.000000
4,-42,39,1623718794.0,32.000000
4,-44,42,1623718794.0,32.000000
0,-44,40,1623718794.0,32.000000
1,-43,39,1623718794.0,32.000000
-2,-44,41,1623718794.0,32.000000
1,-41,42,1623718794.0,32.000000
4,-39,43,1623718794.0,32.000000
4,-36,44,1623718794.0,32.000000
7,-39,45,1623718794.0,32.000000
16,-40,40,1623718794.0,32.000000
22,-38,38,1623718794.0,32.000000
23,-38,37,1623718794.0,32.000000
17,-34,39,1623718794.0,32.000000
6,-28,51,1623718794.0,32.000000
4,-28,55,1623718794.0,32.000000
-1,-25,55,1623718794.0,32.000000
-14,-22,47,1623718794.0,32.000000
-19,-17,60,1623718794.0,32.000000
-19,-18,67,1623718794.0,32.000000
-18,-15,62,1623718794.0,32.000000
-28,-7,80,1623718794.0,32.000000
-18,-7,73,1623718794.0,32.000000
-18,-2,72,1623718794.0,32.000000
-21,-6,77,1623718794.0,32.000000
-12,-4,73,1623718794.0,32.000000
-11,-4,70,1623718794.0,32.000000
-12,-4,61,1623718794.0,32.000000
-11,-4,60,1623718794.0,32.000000
-9,-2,64,1623718794.0,32.000000
-10,-4,64,1623718794.0,32.000000
-11,-5,62,1623718794.0,32.000000
-17,-4,64,1623718794.0,32.000000
-22,-4,64,1623718794.0,32.000000
-22,-5,62,1623718794.0,32.000000
-20,-4,59,1623718794.0,32.000000
-23,-4,60,1623718794.0,32.000000
-23,-5,59,1623718794.0,32.000000
-22,-5,57,1623718794.0,32.000000
-23,-5,59,1623718794.0,32.000000
-20,-5,60,1623718794.0,32.000000
-19,-4,61,1623718794.0,32.000000
-20,-3,61,1623718794.0,32.000000
-21,-4,59,1623718794.0,32.000000
-21,-4,59,1623718794.0,32.000000
-20,-3,60,1623718794.0,32.000000
-21,-3,60,1623718794.0,32.000000
-22,-3,60,1623718794.0,32.000000
-21,-4,61,1623718794.0,32.000000
-21,-4,60,1623718794.0,32.000000
-22,-3,59,1623718794.0,32.000000
-22,-2,60,1623718794.0,32.000000
-21,-3,60,1623718794.0,32.000000
-22,-3,60,1623718794.0,32.000000
-22,-3,60,1623718794.0,32.000000
-21,-3,60,1623718794.0,32.000000
-23,-4,60,1623718794.0,32.000000
-24,-4,60,1623718794.0,32.000000
-26,-5,61,1623718794.0,32.000000
-27,-6,61,1623718794.0,32.000000
-35,-9,62,1623718794.0,32.000000
-33,-7,67,1623718794.0,32.000000
-37,-7,59,1623718794.0,32.000000
-40,-9,55,1623718794.0,32.000000
-24,-5,57,1623718794.0,32.000000
-26,-8,56,1623718794.0,32.000000
-25,-9,61,1623718794.0,32.000000
-33,-7,55,1623718794.0,32.000000
-33,-11,57,1623718794.0,32.000000
-25,-11,57,1623718794.0,32.000000
-24,-11,55,1623718794.0,32.000000
-28,-10,50,1623718794.0,32.000000
-41,-12,37,1623718794.0,32.000000
-56,-9,26,1623718794.0,32.000000
-49,-5,32,1623718794.0,32.000000
-50,-3,33,1623718794.0,32.000000
-47,-1,36,1623718794.0,32.000000
-50,5,36,1623718794.0,32.000000
-50,5,36,1623718794.0,32.000000
-49,6,38,1623718794.0,32.000000
-52,4,37,1623718794.0,32.000000
-56,2,37,1623718794.0,32.000000
-61,1,34,1623718794.0,32.000000
-59,-4,31,1623718794.0,32.000000
-60,-5,31,1623718794.0,32.000000
-55,-5,30,1623718794.0,32.000000
-55,-4,30,1623718794.0,32.000000
-55,-3,31,1623718794.0,32.000000
-56,-4,34,1623718794.0,32.000000
-57,-7,31,1623718794.0,32.000000
-57,-7,30,1623718794.0,32.000000
-57,-9,29,1623718794.0,32.000000
-59,-9,29,1623718794.0,32.000000
-59,-7,27,1623718794.0,32.000000
-60,-8,26,1623718794.0,32.000000
-57,-9,26,1623718794.0,32.000000
-63,-10,26,1623718794.0,32.000000
-57,-10,22,1623718794.0,32.000000
-55,-9,24,1623718794.0,32.000000
-57,-9,27,1623718794.0,32.000000
-59,-8,26,1623718794.0,32.000000
-55,-8,26,1623718794.0,32.000000
-59,-6,20,1623718794.0,32.000000
-63,-8,18,1623718794.0,32.000000
-58,-14,33,1623718794.0,32.000000
-59,-13,30,1623718794.0,32.000000
-63,-14,13,1623718794.0,32.000000
-61,-13,13,1623718794.0,32.000000
-65,-5,36,1623718794.0,32.000000
-60,-4,24,1623718794.0,32.000000
-63,-9,15,1623718794.0,32.000000
-66,-13,26,1623718794.0,32.000000
-61,-19,13,1623718794.0,32.000000
-61,-17,7,1623718794.0,32.000000
-62,-6,28,1623718794.0,32.000000
-58,-4,24,1623718794.0,32.000000
-61,1,15,1623718794.0,32.000000
-64,4,18,1623718794.0,32.000000
-60,5,34,1623718794.0,32.000000
-61,3,32,1623718794.0,32.000000
-59,2,30,1623718794.0,32.000000
-51,-2,35,1623718794.0,32.000000
-54,-6,32,1623718794.0,32.000000
-52,-9,31,1623718794.0,32.000000
-50,-9,35,1623718794.0,32.000000
-49,-9,39,1623718794.0,32.000000
-55,-11,32,1623718794.0,32.000000
-56,-11,33,1623718794.0,32.000000
-54,-10,39,1623718794.0,32.000000
-52,-8,40,1623718794.0,32.000000
-51,-7,41,1623718794.0,32.000000
-50,-6,44,1623718794.0,32.000000
-51,-6,43,1623718794.0,32.000000
-47,-5,44,1623718794.0,32.000000
-44,-5,45,1623718794.0,32.000000
-42,-6,44,1623718794.0,32.000000
-43,-7,42,1623718794.0,32.000000
-39,-6,46,1623718794.0,32.000000
-39,-5,47,1623718794.0,32.000000
-40,-5,46,1623718794.0,32.000000
-40,-6,47,1623718794.0,32.000000
-38,-5,49,1623718794.0,32.000000
-38,-4,49,1623718794.0,32.000000
-38,-3,51,1623718794.0,32.000000
-39,-2,51,1623718794.0,32.000000
-39,-1,51,1623718794.0,32.000000
-38,-1,51,1623718794.0,32.000000
-38,-2,52,1623718794.0,32.000000
-38,0,55,1623718794.0,32.000000
-40,0,55,1623718794.0,32.000000
-38,1,57,1623718794.0,32.000000
-37,1,57,1623718794.0,32.000000
-37,0,54,1623718794.0,32.000000
-36,-1,53,1623718794.0,32.000000
-33,-2,54,1623718794.0,32.000000
-34,-1,54,1623718794.0,32.000000
-36,-1,52,1623718794.0,32.000000
-36,-1,52,1623718794.0,32.000000
-38,-1,52,1623718794.0,32.000000
-40,0,52,1623718794.0,32.000000
-39,-1,51,1623718794.0,32.000000
-39,-1,51,1623718794.0,32.000000
-37,-2,51,1623718794.0,32.000000
-36,-1,52,1623718794.0,32.000000
-37,-1,52,1623718794.0,32.000000
-37,-1,52,1623718794.0,32.000000
-37,-1,53,1623718794.0,32.000000
-37,0,53,1623718794.0,32.000000
-36,-1,53,1623718794.0,32.000000
-37,-1,52,1623718794.0,32.000000
-37,-1,53,1623718794.0,32.000000
-38,0,52,1623718794.0,32.000000
-37,0,53,1623718794.0,32.000000
-37,1,52,1623718794.0,32.000000
-37,0,52,1623718794.0,32.000000
-36,0,52,1623718794.0,32.000000
-37,-1,53,1623718794.0,32.000000
-39,1,55,1623718794.0,32.000000
-41,0,60,1623718794.0,32.000000
-44,1,66,1623718794.0,32.000000
-36,-1,63,1623718794.0,32.000000
-30,-3,48,1623718794.0,32.000000
-31,-3,45,1623718794.0,32.000000
-34,-3,45,1623718794.0,32.000000
-31,6,47,1623718794.0,32.000000
-24,-1,51,1623718794.0,32.000000
-24,-3,52,1623718794.0,32.000000
-22,-3,55,1623718794.0,32.000000
-22,-4,53,1623718794.0,32.000000
-24,-4,54,1623718794.0,32.000000
-27,-5,53,1623718794.0,32.000000
-29,-3,60,1623718794.0,32.000000
-29,-3,67,1623718794.0,32.000000
-28,-1,72,1623718794.0,32.000000
-28,-2,65,1623718794.0,32.000000
-23,-2,56,1623718794.0,32.000000
-25,-4,56,1623718794.0,32.000000
-24,-1,60,1623718794.0,32.000000
-25,-3,60,1623718794.0,32.000000
-26,-2,59,1623718794.0,32.000000
-25,-1,59,1623718794.0,32.000000
-24,-1,59,1623718794.0,32.000000
-22,-2,59,1623718794.0,32.000000
-23,-2,59,1623718794.0,32.000000
-26,0,59,1623718794.0,32.000000
-26,0,59,1623718794.0,32.000000
-26,0,59,1623718794.0,32.000000
-23,1,59,1623718794.0,32.000000
-27,-1,57,1623718794.0,32.000000
-22,-1,59,1623718794.0,32.000000
-26,-2,57,1623718794.0,32.000000
-25,-1,58,1623718794.0,32.000000
-25,-1,59,1623718794.0,32.000000
-25,-1,59,1623718794.0,32.000000
-25,-1,58,1623718794.0,32.000000
-25,-1,59,1623718794.0,32.000000
-25,-1,59,1623718794.0,32.000000
-25,-2,58,1623718794.0,32.000000
-25,-1,59,1623718794.0,32.000000
-25,-1,58,1623718794.0,32.000000
-25,-1,59,1623718794.0,32.000000
-25,-1,59,1623718794.0,32.000000
-26,-1,58,1623718794.0,32.000000
-26,-2,58,1623718794.0,32.000000
-25,-1,59,1623718794.0,32.000000
-25,-1,59,1623718794.0,32.000000
-25,-1,58,1623718794.0,32.000000
-25,-1,59,1623718794.0,32.000000
-25,-1,59,1623718794.0,32.000000
-26,-1,58,1623718794.0,32.000000
-26,-1,58,1623718794.0,32.000000
-25,-1,59,1623718794.0,32.000000
-25,-1,58,1623718794.0,32.000000
-26,-1,58,1623718794.0,32.000000
-26,-1,58,1623718794.0,32.000000
-25,-1,58,1623718794.0,32.000000
-26,-1,59,1623718794.0,32.000000
-26,-1,58,1623718794.0,32.000000
-26,-1,58,1623718794.0,32.000000
-25,-1,58,1623718794.0,32.000000
-25,-1,58,1623718794.0,32.000000
-26,-1,58,1623718794.0,32.000000
-26,-1,58,1623718794.0,32.000000
-26,-1,58,1623718794.0,32.000000
-26,-2,58,1623718794.0,32.000000
-26,-1,58,1623718794.0,32.000000
-26,-1,58,1623718794.0,32.000000
-26,-1,58,1623718794.0,32.000000
-26,-1,58,1623718794.0,32.000000
-25,-1,59,1623718794.0,32.000000
-25,-1,59,1623718794.0,32.000000
-25,-1,59,1623718794.0,32.000000
-26,-1,58,1623718794.0,32.000000
-26,-1,58,1623718794.0,32.000000
-26,-1,58,1623718794.0,32.000000
-26,-1,58,1623718794.0,32.000000
-25,-2,58,1623718794.0,32.000000
-28,-1,57,1623718794.0,32.000000
-25,-1,59,1623718794.0,32.000000
-25,0,59,1623718794.0,32.000000
-26,0,59,1623718794.0,32.000000
-27,-1,58,1623718794.0,32.000000
-26,-1,58,1623718794.0,32.000000
-26,-1,58,1623718794.0,32.000000
-27,-1,58,1623718794.0,32.000000
-26,-1,58,1623718794.0,32.000000
-26,-1,58,1623718794.0,32.000000
-27,-1,58,1623718794.0,32.000000
-26,-1,58,1623718794.0,32.000000
-25,-1,59,1623718794.0,32.000000
-27,-1,58,1623718794.0,32.000000
-26,-1,58,1623718794.0,32.000000
-26,-1,58,1623718794.0,32.000000
-25,-2,58,1623718794.0,32.000000
-25,1,61,1623718794.0,32.000000
-27,2,62,1623718794.0,32.000000
-39,2,62,1623718794.0,32.000000
-57,0,64,1623718794.0,32.000000
-55,-1,65,1623718794.0,32.000000
-42,-2,69,1623718794.0,32.000000
-47,-5,65,1623718794.0,32.000000
-48,-10,57,1623718794.0,32.000000
-42,-13,55,1623718794.0,32.000000
-40,-19,45,1623718794.0,32.000000
-43,-21,40,1623718794.0,32.000000
-11,-20,52,1623718794.0,32.000000
2,-21,50,1623718794.0,32.000000
-3,-25,48,1623718794.0,32.000000
-8,-25,48,1623718794.0,32.000000
-4,-27,52,1623718794.0,32.000000
-5,-29,54,1623718794.0,32.000000
-16,-33,49,1623718794.0,32.000000
-16,-34,49,1623718794.0,32.000000
-17,-34,46,1623718794.0,32.000000
-20,-34,45,1623718794.0,32.000000
-20,-36,41,1623718794.0,32.000000
-23,-35,40,1623718794.0,32.000000
-32,-37,38,1623718794.0,32.000000
-32,-37,40,1623718794.0,32.000000
-30,-39,44,1623718794.0,32.000000
-31,-39,44,1623718794.0,32.000000
-26,-40,44,1623718794.0,32.000000
-26,-41,43,1623718794.0,32.000000
-26,-41,42,1623718794.0,32.000000
-27,-41,42,1623718794.0,32.000000
-26,-41,42,1623718794.0,32.000000
-25,-40,42,1623718794.0,32.000000
-25,-40,41,1623718794.0,32.000000
-24,-40,41,1623718794.0,32.000000
-25,-39,42,1623718794.0,32.000000
-24,-39,40,1623718794.0,32.000000
-22,-38,40,1623718794.0,32.000000
-22,-37,40,1623718794.0,32.000000
-23,-36,41,1623718794.0,32.000000
-19,-38,48,1623718794.0,32.000000
-13,-38,55,1623718794.0,32.000000
-6,-39,51,1623718794.0,32.000000
-4,-39,47,1623718794.0,32.000000
-6,-37,43,1623718794.0,32.000000
-9,-35,45,1623718794.0,32.000000
-18,-31,48,1623718794.0,32.000000
-18,-31,43,1623718794.0,32.000000
-19,-25,42,1623718794.0,32.000000
-32,-19,48,1623718794.0,32.000000
-45,-19,48,1623718794.0,32.000000
-38,-19,44,1623718794.0,32.000000
-42,-7,45,1623718794.0,32.000000
-42,-6,54,1623718794.0,32.000000
-31,-6,60,1623718794.0,32.000000
-31,-10,77,1623718794.0,32.000000
-24,-16,76,1623718794.0,32.000000
-23,-11,64,1623718794.0,32.000000
-25,-8,58,1623718794.0,32.000000
-26,-7,68,1623718794.0,32.000000
-23,-7,62,1623718794.0,32.000000
-26,-8,58,1623718794.0,32.000000
-26,-9,60,1623718794.0,32.000000
-30,-9,54,1623718794.0,32.000000
-30,-9,55,1623718794.0,32.000000
-28,-7,57,1623718794.0,32.000000
-28,-7,56,1623718794.0,32.000000
-30,-7,55,1623718794.0,32.000000
-28,-7,58,1623718794.0,32.000000
-27,-4,64,1623718794.0,32.000000
-25,-7,61,1623718794.0,32.000000
-31,-8,55,1623718794.0,32.000000
-32,-7,55,1623718794.0,32.000000
-30,-8,54,1623718794.0,32.000000
-30,-8,54,1623718794.0,32.000000
-30,-7,56,1623718794.0,32.000000
-30,-7,56,1623718794.0,32.000000
-30,-8,56,1623718794.0,32.000000
-31,-8,56,1623718794.0,32.000000
-32,-7,55,1623718794.0,32.000000
-31,-7,56,1623718794.0,32.000000
-32,-7,55,1623718794.0,32.000000
-30,-7,55,1623718794.0,32.000000
-31,-7,55,1623718794.0,32.000000
-32,-7,55,1623718794.0,32.000000
-32,-7,55,1623718794.0,32.000000
-31,-7,55,1623718794.0,32.000000
-32,-7,55,1623718794.0,32.000000
-32,-7,55,1623718794.0,32.000000
-32,-7,55,1623718794.0,32.000000
-31,-7,55,1623718794.0,32.000000
-31,-7,55,1623718794.0,32.000000
-32,-7,55,1623718794.0,32.000000
-32,-7,55,1623718794.0,32.000000
-31,-7,55,1623718794.0,32.000000
-31,-7,55,1623718794.0,32.000000
-32,-7,55,1623718794.0,32.000000
-32,-7,55,1623718794.0,32.000000
-31,-7,55,1623718794.0,32.000000
-32,-7,55,1623718794.0,32.000000
-32,-7,55,1623718794.0,32.000000
-31,-7,55,1623718794.0,32.000000
-32,-7,55,1623718794.0,32.000000
-32,-7,55,1623718794.0,32.000000
-32,-7,55,1623718794.0,32.000000
-32,-7,55,1623718794.0,32.000000
-32,-7,55,1623718794.0,32.000000
-32,-7,55,1623718794.0,32.000000
-32,-7,55,1623718794.0,32.000000
-31,-7,55,1623718794.0,32.000000
-32,-7,55,1623718794.0,32.000000
-32,-7,55,1623718794.0,32.000000
-32,-7,55,1623718794.0,32.000000
-31,-7,55,1623718794.0,32.000000
-31,-7,55,1623718794.0,32.000000
-32,-7,55,1623718794.0,32.000000
-32,-7,55,1623718794.0,32.000000
-32,-7,55,1623718794.0,32.000000
-32,-7,55,1623718794.0,32.000000
-32,-7,55,1623718794.0,32.000000
-32,-7,55,1623718794.0,32.000000
-32,-7,55,1623718794.0,32.000000
-32,-7,55,1623718794.0,32.000000
-32,-7,55,1623718794.0,32.000000
-32,-7,55,1623718794.0,32.000000
-32,-8,55,1623718794.0,32.000000
-32,-7,55,1623718794.0,32.000000
-31,-7,54,1623718794.0,32.000000
-32,-7,54,1623718794.0,32.000000
-32,-8,55,1623718794.0,32.000000
-32,-8,55,1623718794.0,32.000000
-32,-7,55,1623718794.0,32.000000
-32,-7,55,1623718794.0,32.000000
-32,-7,55,1623718794.0,32.000000
-32,-7,55,1623718794.0,32.000000
-32,-7,55,1623718794.0,32.000000
-32,-7,55,1623718794.0,32.000000
-32,-7,55,1623718794.0,32.000000
-32,-7,55,1623718794.0,32.000000
-32,-7,55,1623718794.0,32.000000
-32,-7,55,1623718794.0,32.000000
-32,-7,55,1623718794.0,32.000000
-32,-7,55,1623718794.0,32.000000
-32,-7,54,1623718794.0,32.000000
-32,-7,55,1623718794.0,32.000000
-32,-7,55,1623718794.0,32.000000
-32,-7,55,1623718794.0,32.000000
-32,-7,55,1623718794.0,32.000000
-32,-7,55,1623718794.0,32.000000
-32,-7,55,1623718794.0,32.000000
-32,-7,55,1623718794.0,32.000000
-32,-7,55,1623718794.0,32.000000
-32,-7,55,1623718794.0,32.000000
-32,-7,55,1623718794.0,32.000000
-32,-7,55,1623718794.0,32.000000
-32,-8,55,1623718794.0,32.000000
-32,-7,55,1623718794.0,32.000000
-32,-7,55,1623718794.0,32.000000
-32,-7,55,1623718794.0,32.000000
-32,-7,55,1623718794.0,32.000000
-32,-7,55,1623718794.0,32.000000
-32,-7,55,1623718794.0,32.000000
-32,-7,55,1623718794.0,32.000000
-32,-7,55,1623718794.0,32.000000
-32,-7,55,1623718794.0,32.000000
-32,-7,55,1623718794.0,32.000000
-33,-7,55,1623718794.0,32.000000
-32,-7,55,1623718794.0,32.000000
-32,-7,55,1623718794.0,32.000000
-32,-8,54,1623718794.0,32.000000
-32,-7,55,1623718794.0,32.000000
-32,-7,55,1623718794.0,32.000000
-33,-7,54,1623718794.0,32.000000
-32,-7,55,1623718794.0,32.000000
-32,-7,55,1623718794.0,32.000000
-32,-7,55,1623718794.0,32.000000
-32,-7,55,1623718794.0,32.000000
-32,-7,55,1623718794.0,32.000000
-32,-7,55,1623718794.0,32.000000
-33,-7,54,1623718794.0,32.000000
-32,-7,54,1623718794.0,32.000000
-32,-7,55,1623718794.0,32.000000
-32,-8,55,1623718794.0,32.000000
-32,-7,55,1623718794.0,32.000000
-32,-7,55,1623718794.0,32.000000
-32,-8,55,1623718794.0,32.000000
-32,-7,55,1623718794.0,32.000000
-31,-7,55,1623718794.0,32.000000
-32,-8,55,1623718794.0,32.000000
-32,-7,55,1623718794.0,32.000000
-32,-7,55,1623718794.0,32.000000
-32,-7,54,1623718794.0,32.000000
-32,-7,55,1623718794.0,32.000000
-32,-7,55,1623718794.0,32.000000
-32,-8,54,1623718794.0,32.000000
-32,-7,55,1623718794.0,32.000000
-32,-7,55,1623718794.0,32.000000
-31,-7,55,1623718794.0,32.000000
-31,-7,55,1623718794.0,32.000000
-32,-7,55,1623718794.0,32.000000
-31,-7,55,1623718794.0,32.000000
-31,-7,54,1623718794.0,32.000000
-34,-7,55,1623718794.0,32.000000
-31,-8,54,1623718794.0,32.000000
-27,-6,57,1623718794.0,32.000000
-27,-6,57,1623718794.0,32.000000
-24,-7,57,1623718794.0,32.000000
-23,-6,58,1623718794.0,32.000000
-22,-5,60,1623718794.0,32.000000
-20,-5,59,1623718794.0,32.000000
-13,-5,62,1623718794.0,32.000000
-8,-5,63,1623718794.0,32.000000
-8,-5,64,1623718794.0,32.000000
-4,-4,63,1623718794.0,32.000000
-4,-4,62,1623718794.0,32.000000
-5,-5,63,1623718794.0,32.000000
0,-3,64,1623718794.0,32.000000
0,-3,64,1623718794.0,32.000000
2,-2,65,1623718794.0,32.000000
2,-2,64,1623718794.0,32.000000
2,-3,64,1623718794.0,32.000000
-1,-3,64,1623718794.0,32.000000
-3,-3,63,1623718794.0,32.000000
-3,-3,62,1623718794.0,32.000000
-4,-3,63,1623718794.0,32.000000
-9,-3,63,1623718794.0,32.000000
-7,-3,64,1623718794.0,32.000000
-6,-2,63,1623718794.0,32.000000
-9,-2,63,1623718794.0,32.000000
-7,-2,64,1623718794.0,32.000000
-7,-2,63,1623718794.0,32.000000
-7,-2,63,1623718794.0,32.000000
-8,-3,63,1623718794.0,32.000000
-9,-2,63,1623718794.0,32.000000
-9,-2,63,1623718794.0,32.000000
-8,-2,62,1623718794.0,32.000000
-7,-3,63,1623718794.0,32.000000
-8,-3,63,1623718794.0,32.000000
-8,-3,63,1623718794.0,32.000000
-8,-3,63,1623718794.0,32.000000
-9,-3,63,1623718794.0,32.000000
-9,-3,63,1623718794.0,32.000000
-8,-3,63,1623718794.0,32.000000
-8,-3,63,1623718794.0,32.000000
-10,-3,63,1623718794.0,32.000000
-9,-3,63,1623718794.0,32.000000
-10,-3,63,1623718794.0,32.000000
-10,-3,63,1623718794.0,32.000000
-9,-3,63,1623718794.0,32.000000
-10,-3,63,1623718794.0,32.000000
-10,-3,63,1623718794.0,32.000000
-10,-3,63,1623718794.0,32.000000
-11,-3,63,1623718794.0,32.000000
-10,-3,63,1623718794.0,32.000000
-10,-3,63,1623718794.0,32.000000
-10,-3,63,1623718794.0,32.000000
-10,-3,63,1623718794.0,32.000000
-9,-3,63,1623718794.0,32.000000
-11,-3,63,1623718794.0,32.000000
-10,-3,63,1623718794.0,32.000000
-10,-3,63,1623718794.0,32.000000
-10,-3,63,1623718794.0,32.000000
-10,-3,63,1623718794.0,32.000000
-10,-3,63,1623718794.0,32.000000
-10,-3,63,1623718794.0,32.000000
-11,-3,63,1623718794.0,32.000000
-11,-3,62,1623718794.0,32.000000
-11,-3,63,1623718794.0,32.000000
-11,-3,63,1623718794.0,32.000000
-12,-3,62,1623718794.0,32.000000
-11,-3,63,1623718794.0,32.000000
-11,-3,63,1623718794.0,32.000000
-11,-3,63,1623718794.0,32.000000
-11,-3,62,1623718794.0,32.000000
-11,-3,62,1623718794.0,32.000000
-11,-3,63,1623718794.0,32.000000
-11,-3,63,1623718794.0,32.000000
-11,-3,63,1623718794.0,32.000000
-11,-3,62,1623718794.0,32.000000
-11,-3,63,1623718794.0,32.000000
-10,-3,63,1623718794.0,32.000000
-11,-3,62,1623718794.0,32.000000
-11,-3,63,1623718794.0,32.000000
-10,-3,63,1623718794.0,32.000000
-10,-3,63,1623718794.0,32.000000
-11,-3,63,1623718794.0,32.000000
-10,-3,62,1623718794.0,32.000000
-11,-3,63,1623718794.0,32.000000
-11,-3,63,1623718794.0,32.000000
-11,-3,62,1623718794.0,32.000000
-11,-3,63,1623718794.0,32.000000
-11,-3,63,1623718794.0,32.000000
-11,-3,63,1623718794.0,32.000000
-11,-3,62,1623718794.0,32.000000
-10,-3,63,1623718794.0,32.000000
-10,-3,63,1623718794.0,32.000000
-11,-3,63,1623718794.0,32.000000
-11,-3,63,1623718794.0,32.000000
-10,-3,63,1623718794.0,32.000000
-11,-3,63,1623718794.0,32.000000
-11,-3,63,1623718794.0,32.000000
-11,-3,63,1623718794.0,32.000000
-11,-3,63,1623718794.0,32.000000
-11,-3,63,1623718794.0,32.000000
-11,-3,62,1623718794.0,32.000000
-10,-3,63,1623718794.0,32.000000
-11,-3,62,1623718794.0,32.000000
-11,-3,62,1623718794.0,32.000000
-10,-3,62,1623718794.0,32.000000
-11,-3,62,1623718794.0,32.000000
-11,-3,63,1623718794.0,32.000000
-11,-3,62,1623718794.0,32.000000
-11,-3,63,1623718794.0,32.000000
-11,-3,63,1623718794.0,32.000000
-11,-3,62,1623718794.0,32.000000
-11,-3,62,1623718794.0,32.000000
-11,-3,63,1623718794.0,32.000000
-11,-3,63,1623718794.0,32.000000
-11,-3,63,1623718794.0,32.000000
-11,-3,62,1623718794.0,32.000000
-11,-3,63,1623718794.0,32.000000
-11,-3,63,1623718794.0,32.000000
-11,-3,62,1623718794.0,32.000000
-11,-3,63,1623718794.0,32.000000
-11,-3,63,1623718794.0,32.000000
-11,-3,63,1623718794.0,32.000000
-11,-3,63,1623718794.0,32.000000
-11,-3,63,1623718794.0,32.000000
-11,-3,62,1623718794.0,32.000000
-11,-3,63,1623718794.0,32.000000
-11,-3,62,1623718794.0,32.000000
-11,-3,63,1623718794.0,32.000000
-11,-3,63,1623718794.0,32.000000
-11,-3,63,1623718794.0,32.000000
-11,-3,62,1623718794.0,32.000000
-11,-3,63,1623718794.0,32.000000
-11,-3,62,1623718794.0,32.000000
-11,-3,63,1623718794.0,32.000000
-12,-3,63,1623718794.0,32.000000
-11,-3,62,1623718794.0,32.000000
-11,-3,63,1623718794.0,32.000000
-11,-3,62,1623718794.0,32.000000
-11,-3,63,1623718794.0,32.000000
-11,-3,62,1623718794.0,32.000000
-11,-3,62,1623718794.0,32.000000
-11,-3,63,1623718794.0,32.000000
-12,-3,62,1623718794.0,32.000000
-11,-3,63,1623718794.0,32.000000
-12,-3,63,1623718794.0,32.000000
-11,-3,63,1623718794.0,32.000000
-11,-3,62,1623718794.0,32.000000
-11,-3,62,1623718794.0,32.000000
-12,-3,62,1623718794.0,32.000000
-11,-3,63,1623718794.0,32.000000
-11,-3,62,1623718794.0,32.000000
-11,-3,62,1623718794.0,32.000000
-11,-3,62,1623718794.0,32.000000
-12,-3,62,1623718794.0,32.000000
-12,-3,62,1623718794.0,32.000000
-12,-3,62,1623718794.0,32.000000
-11,-3,62,1623718794.0,32.000000
-11,-3,63,1623718794.0,32.000000
-12,-3,63,1623718794.0,32.000000
-11,-3,62,1623718794.0,32.000000
-12,-3,62,1623718794.0,32.000000
-12,-3,62,1623718794.0,32.000000
-12,-3,62,1623718794.0,32.000000
-11,-3,62,1623718794.0,32.000000
-12,-3,63,1623718794.0,32.000000
-12,-3,62,1623718794.0,32.000000
-12,-3,63,1623718794.0,32.000000
-12,-3,63,1623718794.0,32.000000
-11,-3,63,1623718794.0,32.000000
-12,-3,62,1623718794.0,32.000000
-12,-3,62,1623718794.0,32.000000
-11,-3,63,1623718794.0,32.000000
-12,-3,62,1623718794.0,32.000000
-11,-3,63,1623718794.0,32.000000
-11,-3,62,1623718794.0,32.000000
-11,-3,62,1623718794.0,32.000000
-11,-3,62,1623718794.0,32.000000
-11,-3,62,1623718794.0,32.000000
-11,-3,63,1623718794.0,32.000000
-11,-3,63,1623718794.0,32.000000
-11,-3,63,1623718794.0,32.000000
-12,-3,63,1623718794.0,32.000000
-11,-3,63,1623718794.0,32.000000
-11,-3,62,1623718794.0,32.000000
-11,-3,63,1623718794.0,32.000000
-11,-3,62,1623718794.0,32.000000
-11,-3,63,1623718794.0,32.000000
-12,-3,63,1623718794.0,32.000000
-11,-3,62,1623718794.0,32.000000
-11,-3,63,1623718794.0,32.000000
-11,-3,63,1623718794.0,32.000000
-11,-3,63,1623718794.0,32.000000
-11,-3,62,1623718794.0,32.000000
-11,-3,62,1623718794.0,32.000000
-11,-3,63,1623718794.0,32.000000
-11,-3,63,1623718794.0,32.000000
-11,-3,62,1623718794.0,32.000000
-11,-3,63,1623718794.0,32.000000
-11,-3,62,1623718794.0,32.000000
-11,-3,62,1623718794.0,32.000000
-11,-3,63,1623718794.0,32.000000
-11,-3,63,1623718794.0,32.000000
-11,-3,63,1623718794.0,32.000000
-11,-3,63,1623718794.0,32.000000
-11,-3,63,1623718794.0,32.000000
-11,-3,63,1623718794.0,32.000000
-11,-3,62,1623718794.0,32.000000
-11,-3,62,1623718794.0,32.000000
-11,-3,63,1623718794.0,32.000000
-11,-3,63,1623718794.0,32.000000
-11,-4,63,1623718794.0,32.000000
-11,-3,62,1623718794.0,32.000000
-11,-3,63,1623718794.0,32.000000
-10,-3,63,1623718794.0,32.000000
-15,-4,62,1623718794.0,32.000000
-13,-4,61,1623718794.0,32.000000
-17,-4,65,1623718794.0,32.000000
-23,-3,65,1623718794.0,32.000000
-28,-4,63,1623718794.0,32.000000
-46,-7,62,1623718794.0,32.000000
-44,-13,62,1623718794.0,32.000000
-39,-14,59,1623718794.0,32.000000
-41,-15,50,1623718794.0,32.000000
-37,-15,51,1623718794.0,32.000000
-29,-17,49,1623718794.0,32.000000
-24,-15,49,1623718794.0,32.000000
-30,-13,45,1623718794.0,32.000000
-4,-9,54,1623718794.0,32.000000
2,-9,57,1623718794.0,32.000000
5,-4,63,1623718794.0,32.000000
3,-1,63,1623718794.0,32.000000
9,5,63,1623718794.0,32.000000
9,6,65,1623718794.0,32.000000
2,9,67,1623718794.0,32.000000
2,8,69,1623718794.0,32.000000
0,5,66,1623718794.0,32.000000
-1,3,65,1623718794.0,32.000000
-1,0,64,1623718794.0,32.000000
-1,-1,64,1623718794.0,32.000000
-3,-2,66,1623718794.0,32.000000
-10,-5,63,1623718794.0,32.000000
-11,-5,63,1623718794.0,32.000000
-5,-5,64,1623718794.0,32.000000
-4,-4,61,1623718794.0,32.000000
-5,-1,57,1623718794.0,32.000000
-5,-2,58,1623718794.0,32.000000
-8,-3,61,1623718794.0,32.000000
-9,-2,61,1623718794.0,32.000000
-11,-2,62,1623718794.0,32.000000
-7,-2,64,1623718794.0,32.000000
-5,-1,65,1623718794.0,32.000000
-7,-1,67,1623718794.0,32.000000
-7,-3,67,1623718794.0,32.000000
-3,-3,64,1623718794.0,32.000000
-7,-1,60,1623718794.0,32.000000
-9,-1,63,1623718794.0,32.000000
-2,0,65,1623718794.0,32.000000
-6,1,69,1623718794.0,32.000000
-5,1,65,1623718794.0,32.000000
0,3,58,1623718794.0,32.000000
-2,6,66,1623718794.0,32.000000
-5,4,73,1623718794.0,32.000000
-12,0,62,1623718794.0,32.000000
-8,2,64,1623718794.0,32.000000
-7,3,59,1623718794.0,32.000000
2,3,74,1623718794.0,32.000000
-4,3,70,1623718794.0,32.000000
-13,4,64,1623718794.0,32.000000
-9,5,45,1623718794.0,32.000000
-5,7,64,1623718794.0,32.000000
-4,5,63,1623718794.0,32.000000
2,6,62,1623718794.0,32.000000
3,4,59,1623718794.0,32.000000
0,2,56,1623718794.0,32.000000
-3,2,57,1623718794.0,32.000000
-9,1,59,1623718794.0,32.000000
-11,0,58,1623718794.0,32.000000
-16,2,60,1623718794.0,32.000000
-19,0,64,1623718794.0,32.000000
-14,-1,60,1623718794.0,32.000000
-20,0,61,1623718794.0,32.000000
-19,-1,66,1623718794.0,32.000000
-15,-2,64,1623718794.0,32.000000
-18,-3,59,1623718794.0,32.000000
-19,-4,60,1623718794.0,32.000000
-16,-4,64,1623718794.0,32.000000
-14,-5,61,1623718794.0,32.000000
-14,-5,62,1623718794.0,32.000000
-14,-5,68,1623718794.0,32.000000
-21,-8,68,1623718794.0,32.000000
-21,5,66,1623718794.0,32.000000
-6,0,62,1623718794.0,32.000000
-6,3,63,1623718794.0,32.000000
-11,0,62,1623718794.0,32.000000
-2,7,66,1623718794.0,32.000000
-14,-2,60,1623718794.0,32.000000
-20,0,60,1623718794.0,32.000000
-19,1,60,1623718794.0,32.000000
-11,2,62,1623718794.0,32.000000
-16,1,64,1623718794.0,32.000000
-20,0,60,1623718794.0,32.000000
-17,1,61,1623718794.0,32.000000
-13,0,62,1623718794.0,32.000000
-13,1,62,1623718794.0,32.000000
-17,0,61,1623718794.0,32.000000
-15,2,62,1623718794.0,32.000000
-16,-1,61,1623718794.0,32.000000
-15,0,61,1623718794.0,32.000000
-15,1,61,1623718794.0,32.000000
-15,4,61,1623718794.0,32.000000
-19,7,61,1623718794.0,32.000000
-17,-2,61,1623718794.0,32.000000
-10,5,64,1623718794.0,32.000000
-7,4,64,1623718794.0,32.000000
-13,5,63,1623718794.0,32.000000
-12,3,62,1623718794.0,32.000000
-13,4,62,1623718794.0,32.000000
-15,4,60,1623718794.0,32.000000
-21,6,60,1623718794.0,32.000000
-17,5,61,1623718794.0,32.000000
-8,6,64,1623718794.0,32.000000
-7,0,64,1623718794.0,32.000000
-17,-1,65,1623718794.0,32.000000
-17,2,61,1623718794.0,32.000000
-21,4,60,1623718794.0,32.000000
-14,5,63,1623718794.0,32.000000
-19,3,59,1623718794.0,32.000000
-14,0,67,1623718794.0,32.000000
-13,4,68,1623718794.0,32.000000
-5,1,55,1623718794.0,32.000000
-32,13,53,1623718794.0,32.000000
-21,2,60,1623718794.0,32.000000
-17,3,62,1623718794.0,32.000000
-20,2,61,1623718794.0,32.000000
-19,1,61,1623718794.0,32.000000
-17,2,61,1623718794.0,32.000000
-16,4,64,1623718794.0,32.000000
-22,1,61,1623718794.0,32.000000
-15,2,67,1623718794.0,32.000000
-10,1,64,1623718794.0,32.000000
-12,2,62,1623718794.0,32.000000
-17,0,62,1623718794.0,32.000000
-16,-2,64,1623718794.0,32.000000
-16,-7,63,1623718794.0,32.000000
-18,-8,61,1623718794.0,32.000000
-26,-11,59,1623718794.0,32.000000
-27,-10,58,1623718794.0,32.000000
-30,-8,55,1623718794.0,32.000000
-30,-7,53,1623718794.0,32.000000
-27,-6,54,1623718794.0,32.000000
-20,-4,55,1623718794.0,32.000000
-16,-2,55,1623718794.0,32.000000
-8,-4,57,1623718794.0,32.000000
-10,-2,58,1623718794.0,32.000000
-15,0,62,1623718794.0,32.000000
-14,4,68,1623718794.0,32.000000
-19,-2,54,1623718794.0,32.000000
-16,-1,55,1623718794.0,32.000000
-17,0,61,1623718794.0,32.000000
-17,0,60,1623718794.0,32.000000
-25,0,62,1623718794.0,32.000000
-27,-2,66,1623718794.0,32.000000
-29,-5,70,1623718794.0,32.000000
-26,-6,63,1623718794.0,32.000000
-29,-6,52,1623718794.0,32.000000
-31,-4,51,1623718794.0,32.000000
-31,-2,55,1623718794.0,32.000000
-33,-3,56,1623718794.0,32.000000
-30,-4,57,1623718794.0,32.000000
-30,-4,57,1623718794.0,32.000000
-31,-5,56,1623718794.0,32.000000
-31,-5,56,1623718794.0,32.000000
-30,-5,55,1623718794.0,32.000000
-31,-5,55,1623718794.0,32.000000
-32,-5,55,1623718794.0,32.000000
-31,-4,55,1623718794.0,32.000000
-31,-4,56,1623718794.0,32.000000
-32,-4,55,1623718794.0,32.000000
-32,-5,55,1623718794.0,32.000000
-31,-5,55,1623718794.0,32.000000
-31,-4,55,1623718794.0,32.000000
-32,-4,55,1623718794.0,32.000000
-32,-4,55,1623718794.0,32.000000
-30,-4,56,1623718794.0,32.000000
-31,-5,56,1623718794.0,32.000000
-31,-5,56,1623718794.0,32.000000
-31,-4,56,1623718794.0,32.000000
-31,-4,55,1623718794.0,32.000000
-32,-5,55,1623718794.0,32.000000
-31,-4,56,1623718794.0,32.000000
-31,-5,55,1623718794.0,32.000000
-33,-5,55,1623718794.0,32.000000
-31,-4,56,1623718794.0,32.000000
-31,-4,56,1623718794.0,32.000000
-31,-4,55,1623718794.0,32.000000
-32,-4,55,1623718794.0,32.000000
-33,-4,55,1623718794.0,32.000000
-32,-5,55,1623718794.0,32.000000
-32,-5,55,1623718794.0,32.000000
-32,-5,55,1623718794.0,32.000000
-32,-5,55,1623718794.0,32.000000
-32,-5,55,1623718794.0,32.000000
-32,-5,55,1623718794.0,32.000000
-33,-5,55,1623718794.0,32.000000
-33,-5,55,1623718794.0,32.000000
-32,-5,54,1623718794.0,32.000000
-33,-5,55,1623718794.0,32.000000
-33,-5,55,1623718794.0,32.000000
-33,-5,54,1623718794.0,32.000000
-32,-5,55,1623718794.0,32.000000
-33,-5,55,1623718794.0,32.000000
-33,-5,55,1623718794.0,32.000000
-33,-5,54,1623718794.0,32.000000
-33,-5,54,1623718794.0,32.000000
-33,-5,55,1623718794.0,32.000000
-33,-5,55,1623718794.0,32.000000
-33,-5,54,1623718794.0,32.000000
-33,-5,54,1623718794.0,32.000000
-34,-5,55,1623718794.0,32.000000
-33,-5,55,1623718794.0,32.000000
-34,-5,54,1623718794.0,32.000000
-34,-6,54,1623718794.0,32.000000
-33,-5,54,1623718794.0,32.000000
-32,-5,55,1623718794.0,32.000000
-33,-5,54,1623718794.0,32.000000
-34,-5,54,1623718794.0,32.000000
-34,-5,55,1623718794.0,32.000000
-33,-5,55,1623718794.0,32.000000
-33,-5,54,1623718794.0,32.000000
-33,-5,54,1623718794.0,32.000000
-34,-5,54,1623718794.0,32.000000
-34,-5,54,1623718794.0,32.000000
-34,-5,56,1623718794.0,32.000000
-33,-5,54,1623718794.0,32.000000
-35,-5,55,1623718794.0,32.000000
-34,-5,54,1623718794.0,32.000000
-34,-5,54,1623718794.0,32.000000
-33,-5,54,1623718794.0,32.000000
-34,-6,55,1623718794.0,32.000000
-34,-5,54,1623718794.0,32.000000
-34,-5,54,1623718794.0,32.000000
-34,-5,54,1623718794.0,32.000000
-34,-5,53,1623718794.0,32.000000
-34,-6,54,1623718794.0,32.000000
-34,-5,54,1623718794.0,32.000000
-34,-5,54,1623718794.0,32.000000
-34,-5,54,1623718794.0,32.000000
-34,-6,54,1623718794.0,32.000000
-34,-5,53,1623718794.0,32.000000
-34,-5,54,1623718794.0,32.000000
-34,-5,54,1623718794.0,32.000000
-33,-6,54,1623718794.0,32.000000
-34,-5,54,1623718794.0,32.000000
-33,-5,54,1623718794.0,32.000000
-33,-5,55,1623718794.0,32.000000
-33,-5,55,1623718794.0,32.000000
-33,-5,54,1623718794.0,32.000000
-33,-5,54,1623718794.0,32.000000
-33,-5,55,1623718794.0,32.000000
-33,-5,55,1623718794.0,32.000000
-34,-5,54,1623718794.0,32.000000
-33,-5,54,1623718794.0,32.000000
-33,-5,54,1623718794.0,32.000000
-34,-5,54,1623718794.0,32.000000
-34,-5,55,1623718794.0,32.000000
-34,-5,55,1623718794.0,32.000000
-33,-5,55,1623718794.0,32.000000
-33,-5,55,1623718794.0,32.000000
-33,-5,54,1623718794.0,32.000000
-32,-5,54,1623718794.0,32.000000
-31,-5,55,1623718794.0,32.000000
-31,-6,54,1623718794.0,32.000000
-35,-6,53,1623718794.0,32.000000
-35,-6,53,1623718794.0,32.000000
-34,-6,54,1623718794.0,32.000000
-33,-6,54,1623718794.0,32.000000
-34,-6,54,1623718794.0,32.000000
-34,-6,54,1623718794.0,32.000000
-34,-6,54,1623718794.0,32.000000
-35,-6,53,1623718794.0,32.000000
-35,-6,52,1623718794.0,32.000000
-35,-6,53,1623718794.0,32.000000
-34,-6,53,1623718794.0,32.000000
-35,-6,53,1623718794.0,32.000000
-35,-7,53,1623718794.0,32.000000
-35,-6,53,1623718794.0,32.000000
-35,-6,53,1623718794.0,32.000000
-35,-6,53,1623718794.0,32.000000
-35,-6,53,1623718794.0,32.000000
-35,-6,53,1623718794.0,32.000000
-35,-6,53,1623718794.0,32.000000
-35,-6,53,1623718794.0,32.000000
-35,-6,53,1623718794.0,32.000000
-35,-6,53,1623718794.0,32.000000
-35,-6,53,1623718794.0,32.000000
-36,-6,53,1623718794.0,32.000000
-35,-6,54,1623718794.0,32.000000
-34,-7,55,1623718794.0,32.000000
-34,-6,54,1623718794.0,32.000000
-35,-6,51,1623718794.0,32.000000
-36,-6,51,1623718794.0,32.000000
-36,-6,52,1623718794.0,32.000000
-36,-7,51,1623718794.0,32.000000
-36,-7,51,1623718794.0,32.000000
-36,-5,53,1623718794.0,32.000000
-37,-5,52,1623718794.0,32.000000
-37,-5,54,1623718794.0,32.000000
-36,-5,54,1623718794.0,32.000000
-37,-5,53,1623718794.0,32.000000
-38,-5,51,1623718794.0,32.000000
-38,-4,52,1623718794.0,32.000000
-37,-4,53,1623718794.0,32.000000
-37,-4,52,1623718794.0,32.000000
-37,-4,50,1623718794.0,32.000000
-37,-5,51,1623718794.0,32.000000
-36,-4,52,1623718794.0,32.000000
-35,-5,53,1623718794.0,32.000000
-36,-5,52,1623718794.0,32.000000
-36,-4,53,1623718794.0,32.000000
-36,-3,53,1623718794.0,32.000000
-38,-3,52,1623718794.0,32.000000
-37,-2,53,1623718794.0,32.000000
-36,-2,55,1623718794.0,32.000000
-35,-4,53,1623718794.0,32.000000
-34,-4,54,1623718794.0,32.000000
-34,-3,54,1623718794.0,32.000000
-36,-4,53,1623718794.0,32.000000
-36,-4,54,1623718794.0,32.000000
-36,-4,53,1623718794.0,32.000000
-36,-4,53,1623718794.0,32.000000
-37,-4,52,1623718794.0,32.000000
-36,-4,53,1623718794.0,32.000000
-36,-4,53,1623718794.0,32.000000
-38,-5,52,1623718794.0,32.000000
-39,-6,51,1623718794.0,32.000000
-36,-5,51,1623718794.0,32.000000
-35,-5,51,1623718794.0,32.000000
-38,-6,51,1623718794.0,32.000000
-38,-6,51,1623718794.0,32.000000
-36,-6,53,1623718794.0,32.000000
-36,-6,52,1623718794.0,32.000000
-36,-6,52,1623718794.0,32.000000
-35,-6,51,1623718794.0,32.000000
-37,-6,52,1623718794.0,32.000000
-36,-6,53,1623718794.0,32.000000
-36,-6,53,1623718794.0,32.000000
-36,-6,53,1623718794.0,32.000000
-37,-6,50,1623718794.0,32.000000
-38,-6,50,1623718794.0,32.000000
-36,-5,54,1623718794.0,32.000000
-34,-5,54,1623718794.0,32.000000
-35,-5,54,1623718794.0,32.000000
-35,-5,54,1623718794.0,32.000000
-34,-6,54,1623718794.0,32.000000
-34,-5,53,1623718794.0,32.000000
-34,-5,55,1623718794.0,32.000000
-34,-6,54,1623718794.0,32.000000
-35,-6,53,1623718794.0,32.000000
-35,-5,53,1623718794.0,32.000000
-35,-5,54,1623718794.0,32.000000
-36,-6,53,1623718794.0,32.000000
-36,-5,52,1623718794.0,32.000000
-35,-5,53,1623718794.0,32.000000
-36,-5,53,1623718794.0,32.000000
-35,-6,54,1623718794.0,32.000000
-35,-6,53,1623718794.0,32.000000
-36,-5,52,1623718794.0,32.000000
-36,-5,53,1623718794.0,32.000000
-36,-6,53,1623718794.0,32.000000
-36,-6,53,1623718794.0,32.000000
-36,-5,53,1623718794.0,32.000000
-36,-5,52,1623718794.0,32.000000
-36,-5,52,1623718794.0,32.000000
-36,-6,52,1623718794.0,32.000000
-37,-6,52,1623718794.0,32.000000
-37,-6,52,1623718794.0,32.000000
-35,-5,53,1623718794.0,32.000000
-36,-6,53,1623718794.0,32.000000
-37,-6,51,1623718794.0,32.000000
-38,-7,51,1623718794.0,32.000000
-37,-6,52,1623718794.0,32.000000
-37,-6,52,1623718794.0,32.000000
-37,-6,52,1623718794.0,32.000000
-37,-6,51,1623718794.0,32.000000
-37,-6,52,1623718794.0,32.000000
-37,-7,52,1623718794.0,32.000000
-37,-6,52,1623718794.0,32.000000
-36,-6,52,1623718794.0,32.000000
-37,-7,52,1623718794.0,32.000000
-37,-6,51,1623718794.0,32.000000
-37,-6,51,1623718794.0,32.000000
-36,-6,52,1623718794.0,32.000000
-36,-6,52,1623718794.0,32.000000
-37,-7,51,1623718794.0,32.000000
-37,-6,51,1623718794.0,32.000000
-37,-6,50,1623718794.0,32.000000
-38,-6,52,1623718794.0,32.000000
-36,-6,56,1623718794.0,32.000000
-36,-6,56,1623718794.0,32.000000
-35,-6,51,1623718794.0,32.000000
-36,-5,49,1623718794.0,32.000000
-40,-7,50,1623718794.0,32.000000
-39,-7,50,1623718794.0,32.000000
-39,-7,51,1623718794.0,32.000000
-39,-7,51,1623718794.0,32.000000
-38,-6,51,1623718794.0,32.000000
-38,-6,51,1623718794.0,32.000000
-38,-7,50,1623718794.0,32.000000
-39,-7,50,1623718794.0,32.000000
-38,-7,50,1623718794.0,32.000000
-38,-7,51,1623718794.0,32.000000
-38,-7,51,1623718794.0,32.000000
-38,-7,51,1623718794.0,32.000000
-38,-7,51,1623718794.0,32.000000
-38,-7,50,1623718794.0,32.000000
-38,-7,51,1623718794.0,32.000000
-38,-7,51,1623718794.0,32.000000
-38,-7,51,1623718794.0,32.000000
-38,-7,51,1623718794.0,32.000000
-38,-7,51,1623718794.0,32.000000
-38,-7,51,1623718794.0,32.000000
-38,-7,51,1623718794.0,32.000000
-38,-7,51,1623718794.0,32.000000
-38,-7,51,1623718794.0,32.000000
-39,-7,50,1623718794.0,32.000000
-38,-7,51,1623718794.0,32.000000
-38,-7,50,1623718794.0,32.000000
-38,-7,51,1623718794.0,32.000000
-38,-7,51,1623718794.0,32.000000
-39,-7,50,1623718794.0,32.000000
-38,-7,50,1623718794.0,32.000000
-38,-7,50,1623718794.0,32.000000
-38,-7,50,1623718794.0,32.000000
-38,-7,50,1623718794.0,32.000000
-38,-7,50,1623718794.0,32.000000
-39,-8,51,1623718794.0,32.000000
-39,-7,50,1623718794.0,32.000000
-38,-7,50,1623718794.0,32.000000
-38,-7,50,1623718794.0,32.000000
-39,-7,50,1623718794.0,32.000000
-38,-8,50,1623718794.0,32.000000
-38,-7,51,1623718794.0,32.000000
-39,-7,50,1623718794.0,32.000000
-39,-7,50,1623718794.0,32.000000
-39,-7,50,1623718794.0,32.000000
-38,-8,50,1623718794.0,32.000000
-38,-7,50,1623718794.0,32.000000
-39,-7,50,1623718794.0,32.000000
-39,-7,51,1623718794.0,32.000000
-38,-7,51,1623718794.0,32.000000
-39,-8,51,1623718794.0,32.000000
-39,-8,50,1623718794.0,32.000000
-39,-7,50,1623718794.0,32.000000
-39,-7,50,1623718794.0,32.000000
-39,-7,50,1623718794.0,32.000000
-39,-7,50,1623718794.0,32.000000
-39,-7,51,1623718794.0,32.000000
-39,-7,51,1623718794.0,32.000000
-38,-7,51,1623718794.0,32.000000
-39,-7,50,1623718794.0,32.000000
-39,-7,50,1623718794.0,32.000000
-39,-7,50,1623718794.0,32.000000
-39,-7,50,1623718794.0,32.000000
-39,-7,50,1623718794.0,32.000000
-39,-7,50,1623718794.0,32.000000
-39,-7,50,1623718794.0,32.000000
-39,-8,51,1623718794.0,32.000000
-38,-8,50,1623718794.0,32.000000
-38,-7,50,1623718794.0,32.000000
-38,-7,50,1623718794.0,32.000000
-39,-7,50,1623718794.0,32.000000
-39,-7,50,1623718794.0,32.000000
-39,-7,50,1623718794.0,32.000000
-39,-7,50,1623718794.0,32.000000
-39,-7,50,1623718794.0,32.000000
-39,-7,50,1623718794.0,32.000000
-39,-7,50,1623718794.0,32.000000
-39,-7,50,1623718794.0,32.000000
-39,-8,51,1623718794.0,32.000000
-38,-8,51,1623718794.0,32.000000
-39,-7,50,1623718794.0,32.000000
-39,-7,50,1623718794.0,32.000000
-39,-7,50,1623718794.0,32.000000
-39,-8,50,1623718794.0,32.000000
-39,-7,50,1623718794.0,32.000000
-38,-7,51,1623718794.0,32.000000
-39,-7,51,1623718794.0,32.000000
-39,-8,50,1623718794.0,32.000000
-39,-8,50,1623718794.0,32.000000
-38,-7,50,1623718794.0,32.000000
-39,-8,50,1623718794.0,32.000000
-39,-8,50,1623718794.0,32.000000
-38,-7,50,1623718794.0,32.000000
-39,-8,50,1623718794.0,32.000000
-39,-7,50,1623718794.0,32.000000
-39,-7,50,1623718794.0,32.000000
-39,-7,50,1623718794.0,32.000000
-39,-8,51,1623718794.0,32.000000
-38,-8,50,1623718794.0,32.000000
-38,-7,50,1623718794.0,32.000000
-39,-7,50,1623718794.0,32.000000
-39,-7,50,1623718794.0,32.000000
-38,-7,50,1623718794.0,32.000000
-38,-8,50,1623718794.0,32.000000
-39,-7,50,1623718794.0,32.000000
-39,-8,50,1623718794.0,32.000000
-39,-8,50,1623718794.0,32.000000
-39,-7,50,1623718794.0,32.000000
-39,-8,50,1623718794.0,32.000000
-38,-7,50,1623718794.0,32.000000
-39,-7,50,1623718794.0,32.000000
-39,-7,50,1623718794.0,32.000000
-39,-7,51,1623718794.0,32.000000
-39,-7,50,1623718794.0,32.000000
-39,-7,50,1623718794.0,32.000000
-38,-7,50,1623718794.0,32.000000
-38,-7,50,1623718794.0,32.000000
-39,-7,50,1623718794.0,32.000000
-39,-8,50,1623718794.0,32.000000
-39,-8,50,1623718794.0,32.000000
-38,-7,51,1623718794.0,32.000000
-38,-8,50,1623718794.0,32.000000
-38,-7,50,1623718794.0,32.000000
-39,-7,51,1623718794.0,32.000000
-38,-8,51,1623718794.0,32.000000
-38,-8,50,1623718794.0,32.000000
-39,-7,50,1623718794.0,32.000000
-39,-8,50,1623718794.0,32.000000
-39,-8,50,1623718794.0,32.000000
-39,-8,50,1623718794.0,32.000000
-39,-8,50,1623718794.0,32.000000
-39,-8,50,1623718794.0,32.000000
-38,-7,50,1623718794.0,32.000000
-38,-8,50,1623718794.0,32.000000
-39,-8,50,1623718794.0,32.000000
-39,-8,50,1623718794.0,32.000000
-38,-7,51,1623718794.0,32.000000
-39,-7,50,1623718794.0,32.000000
-39,-7,50,1623718794.0,32.000000
-38,-8,51,1623718794.0,32.000000
-39,-8,50,1623718794.0,32.000000
-39,-7,50,1623718794.0,32.000000
-38,-7,50,1623718794.0,32.000000
-39,-7,50,1623718794.0,32.000000
-39,-7,50,1623718794.0,32.000000
-39,-8,50,1623718794.0,32.000000
-39,-7,50,1623718794.0,32.000000
-39,-7,50,1623718794.0,32.000000
-39,-7,50,1623718794.0,32.000000
-39,-8,50,1623718794.0,32.000000
-39,-7,50,1623718794.0,32.000000
-39,-7,50,1623718794.0,32.000000
-39,-7,50,1623718794.0,32.000000
-39,-7,50,1623718794.0,32.000000
-39,-7,50,1623718794.0,32.000000
-39,-8,50,1623718794.0,32.000000
-39,-8,50,1623718794.0,32.000000
-39,-7,51,1623718794.0,32.000000
-39,-7,50,1623718794.0,32.000000
-39,-8,51,1623718794.0,32.000000
-38,-7,51,1623718794.0,32.000000
-39,-7,50,1623718794.0,32.000000
-39,-7,50,1623718794.0,32.000000
-39,-8,50,1623718794.0,32.000000
-39,-8,50,1623718794.0,32.000000
-38,-7,50,1623718794.0,32.000000
-39,-8,50,1623718794.0,32.000000
-39,-8,50,1623718794.0,32.000000
-39,-8,50,1623718794.0,32.000000
-39,-7,50,1623718794.0,32.000000
-39,-7,50,1623718794.0,32.000000
-39,-8,50,1623718794.0,32.000000
-39,-8,50,1623718794.0,32.000000
-38,-7,50,1623718794.0,32.000000
-38,-8,51,1623718794.0,32.000000
-39,-8,50,1623718794.0,32.000000
-38,-7,51,1623718794.0,32.000000
-38,-7,51,1623718794.0,32.000000
-40,-7,50,1623718794.0,32.000000
-40,-7,50,1623718794.0,32.000000
-40,-7,50,1623718794.0,32.000000
-39,-8,50,1623718794.0,32.000000
-38,-8,50,1623718794.0,32.000000
-38,-8,50,1623718794.0,32.000000
-38,-8,50,1623718794.0,32.000000
-39,-8,50,1623718794.0,32.000000
-39,-8,50,1623718794.0,32.000000
-39,-8,50,1623718794.0,32.000000
-39,-8,50,1623718794.0,32.000000
-39,-8,50,1623718794.0,32.000000
-39,-8,50,1623718794.0,32.000000
-39,-8,50,1623718794.0,32.000000
-39,-8,50,1623718794.0,32.000000
-39,-8,50,1623718794.0,32.000000
-39,-8,50,1623718794.0,32.000000
-39,-8,50,1623718794.0,32.000000
-39,-8,50,1623718794.0,32.000000
-39,-8,50,1623718794.0,32.000000
-39,-8,50,1623718794.0,32.000000
-39,-8,50,1623718794.0,32.000000
-39,-8,50,1623718794.0,32.000000
-40,-8,50,1623718794.0,32.000000
-39,-8,50,1623718794.0,32.000000
-39,-8,50,1623718794.0,32.000000
-39,-8,50,1623718794.0,32.000000
-39,-8,50,1623718794.0,32.000000
-39,-8,50,1623718794.0,32.000000
-40,-8,50,1623718794.0,32.000000
-40,-8,50,1623718794.0,32.000000
-39,-8,49,1623718794.0,32.000000
-39,-8,49,1623718794.0,32.000000
-38,-8,50,1623718794.0,32.000000
-39,-8,50,1623718794.0,32.000000
-40,-8,50,1623718794.0,32.000000
-40,-8,50,1623718794.0,32.000000
-39,-8,50,1623718794.0,32.000000
-39,-8,50,1623718794.0,32.000000
-39,-8,50,1623718794.0,32.000000
-39,-8,50,1623718794.0,32.000000
-39,-8,50,1623718794.0,32.000000
-40,-8,50,1623718794.0,32.000000
-39,-8,50,1623718794.0,32.000000
-39,-8,50,1623718794.0,32.000000
-39,-8,50,1623718794.0,32.000000
-40,-8,50,1623718794.0,32.000000
-39,-8,50,1623718794.0,32.000000
-39,-8,50,1623718794.0,32.000000
-39,-8,50,1623718794.0,32.000000
-39,-8,50,1623718794.0,32.000000
-40,-8,50,1623718794.0,32.000000
-39,-8,50,1623718794.0,32.000000
-40,-8,50,1623718794.0,32.000000
-39,-8,50,1623718794.0,32.000000
-40,-8,50,1623718794.0,32.000000
-39,-8,50,1623718794.0,32.000000
-39,-8,50,1623718794.0,32.000000
-40,-8,50,1623718794.0,32.000000
-39,-8,50,1623718794.0,32.000000
-39,-8,50,1623718794.0,32.000000
-39,-8,50,1623718794.0,32.000000
-40,-8,50,1623718794.0,32.000000
-39,-8,50,1623718794.0,32.000000
-39,-8,50,1623718794.0,32.000000
-39,-8,50,1623718794.0,32.000000
-40,-8,50,1623718794.0,32.000000
-40,-8,49,1623718794.0,32.000000
-39,-8,50,1623718794.0,32.000000
-39,-8,50,1623718794.0,32.000000
-39,-8,50,1623718794.0,32.000000
-39,-8,50,1623718794.0,32.000000
-39,-8,50,1623718794.0,32.000000
-39,-8,50,1623718794.0,32.000000
-39,-8,50,1623718794.0,32.000000
-39,-8,50,1623718794.0,32.000000
-39,-8,50,1623718794.0,32.000000
-40,-8,50,1623718794.0,32.000000
-39,-8,50,1623718794.0,32.000000
-39,-8,50,1623718794.0,32.000000
-39,-8,50,1623718794.0,32.000000
-40,-8,50,1623718794.0,32.000000
-40,-8,50,1623718794.0,32.000000
-39,-8,50,1623718794.0,32.000000
-39,-8,50,1623718794.0,32.000000
-39,-8,50,1623718794.0,32.000000
-39,-8,50,1623718794.0,32.000000
-39,-8,50,1623718794.0,32.000000
-39,-8,50,1623718794.0,32.000000
-39,-8,49,1623718794.0,32.000000
-40,-8,49,1623718794.0,32.000000
-39,-8,50,1623718794.0,32.000000
-39,-8,50,1623718794.0,32.000000
-40,-8,50,1623718794.0,32.000000
-39,-8,50,1623718794.0,32.000000
-39,-8,50,1623718794.0,32.000000
-39,-8,50,1623718794.0,32.000000
-39,-8,50,1623718794.0,32.000000
-39,-8,50,1623718794.0,32.000000
-39,-8,50,1623718794.0,32.000000
-40,-8,50,1623718794.0,32.000000
-40,-8,50,1623718794.0,32.000000
-39,-8,50,1623718794.0,32.000000
-39,-8,50,1623718794.0,32.000000
-39,-8,50,1623718794.0,32.000000
-39,-8,50,1623718794.0,32.000000
-39,-8,50,1623718794.0,32.000000
-40,-8,50,1623718794.0,32.000000
-39,-8,50,1623718794.0,32.000000
-39,-8,50,1623718794.0,32.000000
-39,-8,50,1623718794.0,32.000000
-39,-8,50,1623718794.0,32.000000
-39,-8,50,1623718794.0,32.000000
-40,-8,50,1623718794.0,32.000000
-39,-8,50,1623718794.0,32.000000
-39,-8,50,1623718794.0,32.000000
-39,-8,50,1623718794.0,32.000000
-39,-8,50,1623718794.0,32.000000
-39,-8,50,1623718794.0,32.000000
-39,-8,50,1623718794.0,32.000000
-39,-8,50,1623718794.0,32.000000
-39,-8,50,1623718794.0,32.000000
-40,-8,50,1623718794.0,32.000000
-39,-8,50,1623718794.0,32.000000
-40,-8,50,1623718794.0,32.000000
-39,-8,50,1623718794.0,32.000000
-39,-8,50,1623718794.0,32.000000
-40,-8,49,1623718794.0,32.000000
-39,-8,50,1623718794.0,32.000000
-39,-8,50,1623718794.0,32.000000
-40,-8,49,1623718794.0,32.000000
-40,-8,50,1623718794.0,32.000000
-39,-8,50,1623718794.0,32.000000
-39,-8,50,1623718794.0,32.000000
-40,-8,50,1623718794.0,32.000000
-40,-8,50,1623718794.0,32.000000
-40,-8,49,1623718794.0,32.000000
-39,-8,50,1623718794.0,32.000000
-39,-8,50,1623718794.0,32.000000
-40,-8,49,1623718794.0,32.000000
-40,-8,49,1623718794.0,32.000000
-39,-8,50,1623718794.0,32.000000
-39,-8,50,1623718794.0,32.000000
-39,-8,50,1623718794.0,32.000000
-39,-8,50,1623718794.0,32.000000
-39,-8,50,1623718794.0,32.000000
-39,-8,50,1623718794.0,32.000000
-39,-8,50,1623718794.0,32.000000
-39,-8,50,1623718794.0,32.000000
-40,-8,50,1623718794.0,32.000000
-40,-8,50,1623718794.0,32.000000
-39,-8,50,1623718794.0,32.000000
-39,-8,50,1623718794.0,32.000000
-40,-8,50,1623718794.0,32.000000
-39,-8,50,1623718794.0,32.000000
-39,-8,49,1623718794.0,32.000000
-39,-8,50,1623718794.0,32.000000
-39,-8,50,1623718794.0,32.000000
-40,-8,50,1623718794.0,32.000000
-39,-8,50,1623718794.0,32.000000
-40,-8,49,1623718794.0,32.000000
-39,-8,50,1623718794.0,32.000000
-40,-8,50,1623718794.0,32.000000
-40,-8,50,1623718794.0,32.000000
-39,-8,50,1623718794.0,32.000000
-40,-8,50,1623718794.0,32.000000
-39,-8,50,1623718794.0,32.000000
-39,-8,50,1623718794.0,32.000000
-39,-8,50,1623718794.0,32.000000
-39,-8,50,1623718794.0,32.000000
-39,-8,50,1623718794.0,32.000000
-39,-8,50,1623718794.0,32.000000
-40,-8,50,1623718794.0,32.000000
-39,-8,50,1623718794.0,32.000000
-39,-8,50,1623718794.0,32.000000
-39,-8,50,1623718794.0,32.000000
-39,-8,50,1623718794.0,32.000000
-39,-8,50,1623718794.0,32.000000
-39,-8,50,1623718794.0,32.000000
-40,-8,50,1623718794.0,32.000000
-40,-8,49,1623718794.0,32.000000
-39,-8,50,1623718794.0,32.000000
-39,-8,50,1623718794.0,32.000000
-39,-8,50,1623718794.0,32.000000
-39,-8,50,1623718794.0,32.000000
-40,-9,50,1623718794.0,32.000000
-39,-8,49,1623718794.0,32.000000
-40,-7,50,1623718794.0,32.000000
-39,-8,50,1623718794.0,32.000000
-40,-8,50,1623718794.0,32.000000
-40,-8,49,1623718794.0,32.000000
-39,-8,50,1623718794.0,32.000000
-39,-8,50,1623718794.0,32.000000
-39,-8,50,1623718794.0,32.000000
-39,-8,49,1623718794.0,32.000000
-40,-8,50,1623718794.0,32.000000
-40,-8,50,1623718794.0,32.000000
-39,-8,50,1623718794.0,32.000000
-39,-8,50,1623718794.0,32.000000
-40,-8,50,1623718794.0,32.000000
-39,-8,50,1623718794.0,32.000000
-40,-8,50,1623718794.0,32.000000
-39,-8,50,1623718794.0,32.000000
-39,-8,50,1623718794.0,32.000000
-40,-8,49,1623718794.0,32.000000
-40,-8,50,1623718794.0,32.000000
-39,-8,50,1623718794.0,32.000000
-40,-8,50,1623718794.0,32.000000
-40,-8,50,1623718794.0,32.000000
-40,-8,50,1623718794.0,32.000000
-39,-8,49,1623718794.0,32.000000
-39,-8,49,1623718794.0,32.000000
-40,-8,50,1623718794.0,32.000000
-40,-8,50,1623718794.0,32.000000
-40,-8,50,1623718794.0,32.000000
-40,-8,50,1623718794.0,32.000000
-39,-8,50,1623718794.0,32.000000
-40,-8,50,1623718794.0,32.000000
-39,-8,50,1623718794.0,32.000000
-40,-8,50,1623718794.0,32.000000
-40,-8,50,1623718794.0,32.000000
-40,-8,49,1623718794.0,32.000000
-39,-8,50,1623718794.0,32.000000
-39,-8,50,1623718794.0,32.000000
-40,-8,49,1623718794.0,32.000000
-39,-8,50,1623718794.0,32.000000
-40,-8,49,1623718794.0,32.000000
-39,-8,50,1623718794.0,32.000000
-40,-8,50,1623718794.0,32.000000
-39,-8,50,1623718794.0,32.000000
-39,-8,50,1623718794.0,32.000000
-40,-8,50,1623718794.0,32.000000
-40,-8,50,1623718794.0,32.000000
-40,-8,50,1623718794.0,32.000000
-40,-8,50,1623718794.0,32.000000
-40,-8,50,1623718794.0,32.000000
-39,-8,50,1623718794.0,32.000000
-39,-8,50,1623718794.0,32.000000
-40,-8,50,1623718794.0,32.000000
-39,-8,50,1623718794.0,32.000000
-39,-8,50,1623718794.0,32.000000
-40,-8,49,1623718794.0,32.000000
-40,-8,50,1623718794.0,32.000000
-39,-8,50,1623718794.0,32.000000
-39,-8,50,1623718794.0,32.000000
-39,-8,49,1623718794.0,32.000000
-40,-8,50,1623718794.0,32.000000
-40,-8,50,1623718794.0,32.000000
-40,-8,49,1623718794.0,32.000000
-39,-8,50,1623718794.0,32.000000
-40,-8,50,1623718794.0,32.000000
-39,-8,50,1623718794.0,32.000000
-39,-8,50,1623718794.0,32.000000
-39,-8,50,1623718794.0,32.000000
-40,-8,50,1623718794.0,32.000000
-40,-8,49,1623718794.0,32.000000
-39,-8,50,1623718794.0,32.000000
-39,-8,50,1623718794.0,32.000000
-39,-8,50,1623718794.0,32.000000
-39,-8,50,1623718794.0,32.000000
-40,-8,49,1623718794.0,32.000000
-40,-8,50,1623718794.0,32.000000
-39,-8,50,1623718794.0,32.000000
-39,-8,49,1623718794.0,32.000000
-39,-8,50,1623718794.0,32.000000
-40,-8,50,1623718794.0,32.000000
-40,-8,50,1623718794.0,32.000000
-39,-8,50,1623718794.0,32.000000
-39,-8,50,1623718794.0,32.000000
-39,-8,50,1623718794.0,32.000000
-39,-8,50,1623718794.0,32.000000
-39,-8,50,1623718794.0,32.000000
-39,-8,50,1623718794.0,32.000000
-39,-8,50,1623718794.0,32.000000
-40,-8,50,1623718794.0,32.000000
-39,-8,50,1623718794.0,32.000000
-39,-8,50,1623718794.0,32.000000
-40,-8,49,1623718794.0,32.000000
-39,-8,50,1623718794.0,32.000000
-40,-8,49,1623718794.0,32.000000
-40,-8,49,1623718794.0,32.000000
-39,-8,50,1623718794.0,32.000000
-39,-8,50,1623718794.0,32.000000
-40,-8,50,1623718794.0,32.000000
-40,-8,50,1623718794.0,32.000000
-40,-8,50,1623718794.0,32.000000
-39,-8,50,1623718794.0,32.000000
-39,-8,50,1623718794.0,32.000000
-39,-8,50,1623718794.0,32.000000
-40,-8,50,1623718794.0,32.000000
-39,-8,50,1623718794.0,32.000000
-40,-8,50,1623718794.0,32.000000
-40,-8,50,1623718794.0,32.000000
-39,-8,50,1623718794.0,32.000000
-40,-8,50,1623718794.0,32.000000
-40,-8,50,1623718794.0,32.000000
-39,-8,50,1623718794.0,32.000000
-40,-8,49,1623718794.0,32.000000
-40,-8,49,1623718794.0,32.000000
-39,-8,50,1623718794.0,32.000000
-39,-8,50,1623718794.0,32.000000
-39,-8,49,1623718794.0,32.000000
-40,-8,50,1623718794.0,32.000000
-40,-8,50,1623718794.0,32.000000
-39,-8,50,1623718794.0,32.000000
-39,-8,50,1623718794.0,32.000000
-40,-8,50,1623718794.0,32.000000
-39,-8,50,1623718794.0,32.000000
-40,-8,50,1623718794.0,32.000000
-39,-8,50,1623718794.0,32.000000
-39,-8,50,1623718794.0,32.000000
-40,-8,49,1623718794.0,32.000000
-40,-8,50,1623718794.0,32.000000
-40,-8,50,1623718794.0,32.000000
-40,-8,50,1623718794.0,32.000000
-39,-8,50,1623718794.0,32.000000
-40,-8,49,1623718794.0,32.000000
-40,-8,49,1623718794.0,32.000000
-40,-8,50,1623718794.0,32.000000
-40,-8,49,1623718794.0,32.000000
-39,-8,50,1623718794.0,32.000000
-39,-7,50,1623718794.0,32.000000
-40,-8,50,1623718794.0,32.000000
-39,-8,50,1623718794.0,32.000000
-39,-8,50,1623718794.0,32.000000
-39,-8,50,1623718794.0,32.000000
-39,-8,50,1623718794.0,32.000000
-39,-8,50,1623718794.0,32.000000
-39,-8,50,1623718794.0,32.000000
-39,-8,50,1623718794.0,32.000000
-39,-8,50,1623718794.0,32.000000
-39,-8,50,1623718794.0,32.000000
-39,-8,50,1623718794.0,32.000000
-40,-8,50,1623718794.0,32.000000
-39,-8,50,1623718794.0,32.000000
-40,-8,49,1623718794.0,32.000000
-40,-8,49,1623718794.0,32.000000
-39,-8,50,1623718794.0,32.000000
-39,-8,50,1623718794.0,32.000000
-39,-8,50,1623718794.0,32.000000
-39,-8,50,1623718794.0,32.000000
-39,-8,50,1623718794.0,32.000000
-39,-8,50,1623718794.0,32.000000
-39,-8,50,1623718794.0,32.000000
-39,-8,50,1623718794.0,32.000000
-40,-8,50,1623718794.0,32.000000
-39,-8,50,1623718794.0,32.000000
-39,-8,50,1623718794.0,32.000000
-39,-8,50,1623718794.0,32.000000
-40,-8,50,1623718794.0,32.000000
-39,-8,50,1623718794.0,32.000000
-39,-8,50,1623718794.0,32.000000
-39,-8,50,1623718794.0,32.000000
-40,-8,50,1623718794.0,32.000000
-40,-8,49,1623718794.0,32.000000
-40,-8,50,1623718794.0,32.000000
-39,-8,50,1623718794.0,32.000000
-40,-8,49,1623718794.0,32.000000
-39,-8,50,1623718794.0,32.000000
-40,-8,50,1623718794.0,32.000000
-40,-8,50,1623718794.0,32.000000
-40,-8,50,1623718794.0,32.000000
-39,-8,50,1623718794.0,32.000000
-39,-7,49,1623718794.0,32.000000
-40,-8,50,1623718794.0,32.000000
-40,-8,50,1623718794.0,32.000000
-39,-7,49,1623718794.0,32.000000
-40,-8,49,1623718794.0,32.000000
-39,-7,50,1623718794.0,32.000000
-39,-7,50,1623718794.0,32.000000
-39,-8,49,1623718794.0,32.000000
-40,-8,49,1623718794.0,32.000000
-39,-7,50,1623718794.0,32.000000
-39,-8,50,1623718794.0,32.000000
-39,-8,49,1623718794.0,32.000000
-40,-8,49,1623718794.0,32.000000
-39,-8,50,1623718794.0,32.000000
-40,-8,50,1623718794.0,32.000000
-39,-8,50,1623718794.0,32.000000
-39,-8,50,1623718794.0,32.000000
-39,-8,50,1623718794.0,32.000000
-39,-8,50,1623718794.0,32.000000
-40,-8,50,1623718794.0,32.000000
-40,-8,50,1623718794.0,32.000000
-40,-8,50,1623718794.0,32.000000
-39,-8,50,1623718794.0,32.000000
-39,-8,49,1623718794.0,32.000000
-39,-8,50,1623718794.0,32.000000
-40,-8,50,1623718794.0,32.000000
-39,-8,50,1623718794.0,32.000000
-39,-8,50,1623718794.0,32.000000
-40,-8,50,1623718794.0,32.000000
-39,-8,50,1623718794.0,32.000000
-40,-8,50,1623718794.0,32.000000
-39,-8,49,1623718794.0,32.000000
-39,-8,50,1623718794.0,32.000000
-39,-8,50,1623718794.0,32.000000
-39,-8,50,1623718794.0,32.000000
-39,-8,50,1623718794.0,32.000000
-39,-8,50,1623718794.0,32.000000
-40,-8,50,1623718794.0,32.000000
-39,-8,50,1623718794.0,32.000000
-39,-8,50,1623718794.0,32.000000
-40,-8,50,1623718794.0,32.000000
-39,-8,50,1623718794.0,32.000000
-39,-8,50,1623718794.0,32.000000
-39,-8,50,1623718794.0,32.000000
-40,-8,50,1623718794.0,32.000000
-40,-8,49,1623718794.0,32.000000
-40,-8,49,1623718794.0,32.000000
-39,-8,50,1623718794.0,32.000000
-39,-8,50,1623718794.0,32.000000
-39,-8,50,1623718794.0,32.000000
-39,-8,50,1623718794.0,32.000000
-40,-8,50,1623718794.0,32.000000
-39,-8,50,1623718794.0,32.000000
-40,-8,50,1623718794.0,32.000000
-40,-8,50,1623718794.0,32.000000
-39,-7,50,1623718794.0,32.000000
-39,-7,49,1623718794.0,32.000000
-39,-8,50,1623718794.0,32.000000
-39,-7,50,1623718794.0,32.000000
-40,-8,49,1623718794.0,32.000000
-40,-8,50,1623718794.0,32.000000
-38,-8,49,1623718794.0,32.000000
-39,-7,50,1623718794.0,32.000000
-40,-8,49,1623718794.0,32.000000
-40,-8,49,1623718794.0,32.000000
-39,-8,50,1623718794.0,32.000000
-39,-8,50,1623718794.0,32.000000
-40,-8,49,1623718794.0,32.000000
-39,-8,50,1623718794.0,32.000000
-40,-8,50,1623718794.0,32.000000
-39,-8,50,1623718794.0,32.000000
-40,-8,50,1623718794.0,32.000000
-39,-8,50,1623718794.0,32.000000
-39,-8,50,1623718794.0,32.000000
-39,-8,50,1623718794.0,32.000000
-39,-8,50,1623718794.0,32.000000
-40,-8,50,1623718794.0,32.000000
-40,-8,50,1623718794.0,32.000000
-39,-8,50,1623718794.0,32.000000
-39,-8,50,1623718794.0,32.000000
-40,-8,50,1623718794.0,32.000000
-40,-8,50,1623718794.0,32.000000
-40,-8,49,1623718794.0,32.000000
-39,-8,50,1623718794.0,32.000000
-39,-8,50,1623718794.0,32.000000
-39,-8,50,1623718794.0,32.000000
-39,-8,50,1623718794.0,32.000000
-40,-8,50,1623718794.0,32.000000
-40,-8,50,1623718794.0,32.000000
-39,-8,50,1623718794.0,32.000000
-39,-8,50,1623718794.0,32.000000
-39,-8,50,1623718794.0,32.000000
-40,-8,50,1623718794.0,32.000000
-39,-8,50,1623718794.0,32.000000
-39,-8,50,1623718794.0,32.000000
-40,-8,50,1623718794.0,32.000000
-40,-8,50,1623718794.0,32.000000
-39,-8,50,1623718794.0,32.000000
-40,-8,50,1623718794.0,32.000000
-40,-8,50,1623718794.0,32.000000
-40,-8,49,1623718794.0,32.000000
-39,-8,50,1623718794.0,32.000000
-39,-8,50,1623718794.0,32.000000
-39,-8,50,1623718794.0,32.000000
-39,-8,50,1623718794.0,32.000000
-40,-8,49,1623718794.0,32.000000
-39,-8,50,1623718794.0,32.000000
-39,-8,50,1623718794.0,32.000000
-39,-8,50,1623718794.0,32.000000
-40,-8,50,1623718794.0,32.000000
-39,-8,50,1623718794.0,32.000000
-39,-8,50,1623718794.0,32.000000
-39,-8,50,1623718794.0,32.000000
-40,-8,50,1623718794.0,32.000000
-39,-8,50,1623718794.0,32.000000
-39,-8,50,1623718794.0,32.000000
-40,-8,49,1623718794.0,32.000000
-40,-8,50,1623718794.0,32.000000
-40,-8,50,1623718794.0,32.000000
-40,-8,50,1623718794.0,32.000000
-39,-8,50,1623718794.0,32.000000
-39,-8,50,1623718794.0,32.000000
-39,-7,50,1623718794.0,32.000000
-40,-8,50,1623718794.0,32.000000
-40,-8,50,1623718794.0,32.000000
-39,-8,50,1623718794.0,32.000000
-40,-8,49,1623718794.0,32.000000
-40,-8,50,1623718794.0,32.000000
-39,-8,49,1623718794.0,32.000000
-40,-8,50,1623718794.0,32.000000
-39,-7,50,1623718794.0,32.000000
-39,-8,50,1623718794.0,32.000000
-40,-8,50,1623718794.0,32.000000
-39,-8,50,1623718794.0,32.000000
-39,-8,50,1623718794.0,32.000000
-40,-8,50,1623718794.0,32.000000
-40,-8,50,1623718794.0,32.000000
-40,-7,50,1623718794.0,32.000000
-40,-8,50,1623718794.0,32.000000
-39,-8,50,1623718794.0,32.000000
-39,-8,50,1623718794.0,32.000000
-40,-8,50,1623718794.0,32.000000
-40,-8,50,1623718794.0,32.000000
-40,-8,49,1623718794.0,32.000000
-39,-8,50,1623718794.0,32.000000
-39,-8,49,1623718794.0,32.000000
-39,-8,50,1623718794.0,32.000000
-39,-8,50,1623718794.0,32.000000
-39,-8,50,1623718794.0,32.000000
-39,-8,50,1623718794.0,32.000000
-40,-8,50,1623718794.0,32.000000
-39,-8,50,1623718794.0,32.000000
-39,-8,50,1623718794.0,32.000000
-40,-8,50,1623718794.0,32.000000
-39,-8,50,1623718794.0,32.000000
-39,-7,50,1623718794.0,32.000000
-40,-8,49,1623718794.0,32.000000
-39,-8,50,1623718794.0,32.000000
-39,-8,50,1623718794.0,32.000000
-39,-8,50,1623718794.0,32.000000
-39,-8,50,1623718794.0,32.000000
-40,-8,50,1623718794.0,32.000000
-40,-8,50,1623718794.0,32.000000
-39,-8,50,1623718794.0,32.000000
-40,-8,50,1623718794.0,32.000000
-39,-8,50,1623718794.0,32.000000
-39,-8,50,1623718794.0,32.000000
-39,-8,50,1623718794.0,32.000000
-39,-8,50,1623718794.0,32.000000
-39,-8,50,1623718794.0,32.000000
-39,-8,50,1623718794.0,32.000000
-40,-8,50,1623718794.0,32.000000
-39,-8,50,1623718794.0,32.000000
-39,-8,50,1623718794.0,32.000000
-39,-8,50,1623718794.0,32.000000
-40,-8,49,1623718794.0,32.000000
-39,-8,50,1623718794.0,32.000000
-39,-8,50,1623718794.0,32.000000
-40,-8,50,1623718794.0,32.000000
-39,-8,50,1623718794.0,32.000000
-40,-8,50,1623718794.0,32.000000
-39,-8,50,1623718794.0,32.000000
-39,-8,50,1623718794.0,32.000000
-39,-8,50,1623718794.0,32.000000
-40,-8,50,1623718794.0,32.000000
-40,-8,50,1623718794.0,32.000000
-39,-7,50,1623718794.0,32.000000
-40,-8,50,1623718794.0,32.000000
-39,-8,50,1623718794.0,32.000000
-39,-8,50,1623718794.0,32.000000
-39,-7,50,1623718794.0,32.000000
-40,-8,51,1623718794.0,32.000000
-40,-8,49,1623718794.0,32.000000
-40,-8,50,1623718794.0,32.000000
-39,-7,49,1623718794.0,32.000000
-39,-7,50,1623718794.0,32.000000
-39,-8,50,1623718794.0,32.000000
-40,-8,49,1623718794.0,32.000000
-39,-7,50,1623718794.0,32.000000
-39,-8,50,1623718794.0,32.000000
-39,-8,50,1623718794.0,32.000000
-40,-8,50,1623718794.0,32.000000
-40,-8,50,1623718794.0,32.000000
-39,-8,50,1623718794.0,32.000000
-39,-7,50,1623718794.0,32.000000
-39,-8,50,1623718794.0,32.000000
-40,-8,50,1623718794.0,32.000000
-40,-8,50,1623718794.0,32.000000
-39,-8,50,1623718794.0,32.000000
-39,-8,50,1623718794.0,32.000000
-39,-8,50,1623718794.0,32.000000
-39,-8,50,1623718794.0,32.000000
-39,-8,50,1623718794.0,32.000000
-39,-8,50,1623718794.0,32.000000
-40,-8,50,1623718794.0,32.000000
-40,-8,50,1623718794.0,32.000000
-39,-8,50,1623718794.0,32.000000
-39,-8,50,1623718794.0,32.000000
-39,-8,50,1623718794.0,32.000000
-40,-8,50,1623718794.0,32.000000
-40,-8,50,1623718794.0,32.000000
-40,-8,50,1623718794.0,32.000000
-40,-8,50,1623718794.0,32.000000
-39,-8,50,1623718794.0,32.000000
-39,-8,50,1623718794.0,32.000000
-40,-8,50,1623718794.0,32.000000
-39,-8,50,1623718794.0,32.000000
-39,-8,50,1623718794.0,32.000000
-40,-8,49,1623718794.0,32.000000
-39,-8,50,1623718794.0,32.000000
-40,-8,50,1623718794.0,32.000000
-40,-8,49,1623718794.0,32.000000
-40,-8,50,1623718794.0,32.000000
-40,-8,49,1623718794.0,32.000000
-39,-8,50,1623718794.0,32.000000
-39,-8,50,1623718794.0,32.000000
-39,-8,49,1623718794.0,32.000000
-39,-8,50,1623718794.0,32.000000
-40,-8,50,1623718794.0,32.000000
-40,-8,50,1623718794.0,32.000000
-39,-8,50,1623718794.0,32.000000
-39,-8,50,1623718794.0,32.000000
-39,-8,50,1623718794.0,32.000000
-40,-8,50,1623718794.0,32.000000
-39,-8,50,1623718794.0,32.000000
-39,-8,50,1623718794.0,32.000000
-40,-8,49,1623718794.0,32.000000
-40,-8,50,1623718794.0,32.000000
-39,-8,49,1623718794.0,32.000000
-39,-7,49,1623718794.0,32.000000
-40,-7,50,1623718794.0,32.000000
-39,-8,50,1623718794.0,32.000000
-39,-8,49,1623718794.0,32.000000
-39,-7,50,1623718794.0,32.000000
-40,-8,51,1623718794.0,32.000000
-40,-8,49,1623718794.0,32.000000
-40,-8,50,1623718794.0,32.000000
-39,-8,50,1623718794.0,32.000000
-40,-7,50,1623718794.0,32.000000
-40,-8,50,1623718794.0,32.000000
-40,-8,50,1623718794.0,32.000000
-39,-8,50,1623718794.0,32.000000
-39,-8,50,1623718794.0,32.000000
-39,-8,50,1623718794.0,32.000000
-40,-8,50,1623718794.0,32.000000
-40,-8,50,1623718794.0,32.000000
-39,-8,50,1623718794.0,32.000000
-39,-8,50,1623718794.0,32.000000
-39,-8,50,1623718794.0,32.000000
-40,-8,50,1623718794.0,32.000000
-40,-8,50,1623718794.0,32.000000
-39,-8,50,1623718794.0,32.000000
-40,-8,49,1623718794.0,32.000000
-39,-8,50,1623718794.0,32.000000
-39,-8,50,1623718794.0,32.000000
-40,-8,49,1623718794.0,32.000000
-39,-8,50,1623718794.0,32.000000
-39,-8,50,1623718794.0,32.000000
-39,-8,50,1623718794.0,32.000000
-39,-8,50,1623718794.0,32.000000
-39,-8,51,1623718794.0,32.000000
-39,-8,50,1623718794.0,32.000000
-39,-7,50,1623718794.0,32.000000
-39,-7,51,1623718794.0,32.000000
-40,-7,50,1623718794.0,32.000000
-41,-7,49,1623718794.0,32.000000
-40,-8,50,1623718794.0,32.000000
-38,-8,50,1623718794.0,32.000000
-38,-8,50,1623718794.0,32.000000
-38,-8,49,1623718794.0,32.000000
-39,-8,50,1623718794.0,32.000000
-39,-8,50,1623718794.0,32.000000
-40,-8,50,1623718794.0,32.000000
-39,-8,50,1623718794.0,32.000000
-40,-8,49,1623718794.0,32.000000
-40,-8,49,1623718794.0,32.000000
-40,-8,49,1623718794.0,32.000000
-40,-8,50,1623718794.0,32.000000
-40,-8,50,1623718794.0,32.000000
-39,-8,50,1623718794.0,32.000000
-39,-8,50,1623718794.0,32.000000
-39,-8,50,1623718794.0,32.000000
-39,-8,50,1623718794.0,32.000000
-40,-8,50,1623718794.0,32.000000
-40,-8,50,1623718794.0,32.000000
-39,-8,50,1623718794.0,32.000000
-39,-8,50,1623718794.0,32.000000
-40,-8,50,1623718794.0,32.000000
-39,-8,50,1623718794.0,32.000000
-39,-8,50,1623718794.0,32.000000
-40,-8,50,1623718794.0,32.000000
-39,-8,50,1623718794.0,32.000000
-39,-7,50,1623718794.0,32.000000
-39,-8,50,1623718794.0,32.000000
-39,-8,50,1623718794.0,32.000000
-40,-8,50,1623718794.0,32.000000
-40,-8,50,1623718794.0,32.000000
-39,-8,50,1623718794.0,32.000000
-40,-8,50,1623718794.0,32.000000
-39,-8,49,1623718794.0,32.000000
-40,-8,49,1623718794.0,32.000000
-40,-8,50,1623718794.0,32.000000
-39,-8,50,1623718794.0,32.000000
-39,-8,50,1623718794.0,32.000000
-39,-8,50,1623718794.0,32.000000
-39,-8,50,1623718794.0,32.000000
-40,-8,50,1623718794.0,32.000000
-39,-8,50,1623718794.0,32.000000
-39,-8,50,1623718794.0,32.000000
-40,-8,49,1623718794.0,32.000000
-40,-8,50,1623718794.0,32.000000
-39,-8,50,1623718794.0,32.000000
-39,-8,50,1623718794.0,32.000000
-39,-8,50,1623718794.0,32.000000
-40,-8,50,1623718794.0,32.000000
-40,-8,50,1623718794.0,32.000000
-40,-8,50,1623718794.0,32.000000
-40,-8,49,1623718794.0,32.000000
-39,-8,49,1623718794.0,32.000000
-40,-8,49,1623718794.0,32.000000
-39,-8,50,1623718794.0,32.000000
-39,-8,50,1623718794.0,32.000000
-39,-8,50,1623718794.0,32.000000
-40,-8,50,1623718794.0,32.000000
-39,-8,50,1623718794.0,32.000000
-40,-8,50,1623718794.0,32.000000
-39,-8,50,1623718794.0,32.000000
-40,-8,50,1623718794.0,32.000000
-40,-8,49,1623718794.0,32.000000
-39,-8,50,1623718794.0,32.000000
-39,-8,49,1623718794.0,32.000000
-40,-8,49,1623718794.0,32.000000
-39,-8,50,1623718794.0,32.000000
-40,-8,50,1623718794.0,32.000000
-40,-8,50,1623718794.0,32.000000
-39,-8,50,1623718794.0,32.000000
-39,-8,50,1623718794.0,32.000000
-39,-8,50,1623718794.0,32.000000
-40,-8,49,1623718794.0,32.000000
-39,-8,50,1623718794.0,32.000000
-40,-8,50,1623718794.0,32.000000
-39,-8,50,1623718794.0,32.000000
-39,-8,50,1623718794.0,32.000000
-39,-8,50,1623718794.0,32.000000
-39,-8,50,1623718794.0,32.000000
-39,-8,50,1623718794.0,32.000000
-40,-8,49,1623718794.0,32.000000
-40,-8,49,1623718794.0,32.000000
-39,-8,50,1623718794.0,32.000000
-39,-8,50,1623718794.0,32.000000
-39,-8,49,1623718794.0,32.000000
-39,-8,50,1623718794.0,32.000000
-40,-8,50,1623718794.0,32.000000
-40,-8,50,1623718794.0,32.000000
-40,-8,50,1623718794.0,32.000000
-39,-8,50,1623718794.0,32.000000
-40,-8,50,1623718794.0,32.000000
-39,-8,50,1623718794.0,32.000000
-39,-8,50,1623718794.0,32.000000
-40,-8,49,1623718794.0,32.000000
-40,-8,50,1623718794.0,32.000000
-40,-8,50,1623718794.0,32.000000
-39,-8,50,1623718794.0,32.000000
-40,-8,50,1623718794.0,32.000000
-39,-8,50,1623718794.0,32.000000
-39,-8,49,1623718794.0,32.000000
-39,-8,50,1623718794.0,32.000000
-39,-8,50,1623718794.0,32.000000
-39,-8,49,1623718794.0,32.000000
-39,-8,50,1623718794.0,32.000000
-40,-8,49,1623718794.0,32.000000
-40,-8,49,1623718794.0,32.000000
-40,-8,50,1623718794.0,32.000000
-39,-8,50,1623718794.0,32.000000
-39,-8,49,1623718794.0,32.000000
-39,-8,50,1623718794.0,32.000000
-39,-8,50,1623718794.0,32.000000
-40,-8,50,1623718794.0,32.000000
-40,-8,50,1623718794.0,32.000000
-39,-8,50,1623718794.0,32.000000
-39,-8,49,1623718794.0,32.000000
-40,-8,50,1623718794.0,32.000000
-39,-8,50,1623718794.0,32.000000
-39,-8,50,1623718794.0,32.000000
-40,-8,50,1623718794.0,32.000000
-40,-8,49,1623718794.0,32.000000
-40,-8,49,1623718794.0,32.000000
-39,-8,50,1623718794.0,32.000000
-40,-8,49,1623718794.0,32.000000
-39,-8,50,1623718794.0,32.000000
-39,-8,50,1623718794.0,32.000000
-40,-8,50,1623718794.0,32.000000
-39,-8,50,1623718794.0,32.000000
-39,-8,50,1623718794.0,32.000000
-40,-8,49,1623718794.0,32.000000
-39,-8,50,1623718794.0,32.000000
-39,-8,50,1623718794.0,32.000000
-40,-8,50,1623718794.0,32.000000
-40,-8,50,1623718794.0,32.000000
-40,-8,50,1623718794.0,32.000000
-40,-8,50,1623718794.0,32.000000
-40,-8,50,1623718794.0,32.000000
-40,-8,50,1623718794.0,32.000000
-40,-8,50,1623718794.0,32.000000
-40,-8,49,1623718794.0,32.000000
-39,-8,50,1623718794.0,32.000000
-39,-8,50,1623718794.0,32.000000
-40,-8,50,1623718794.0,32.000000
-39,-8,50,1623718794.0,32.000000
-40,-8,50,1623718794.0,32.000000
-39,-8,50,1623718794.0,32.000000
-39,-8,50,1623718794.0,32.000000
-39,-8,50,1623718794.0,32.000000
-40,-8,49,1623718794.0,32.000000
-39,-8,50,1623718794.0,32.000000
-39,-8,50,1623718794.0,32.000000
-40,-8,50,1623718794.0,32.000000
-40,-8,50,1623718794.0,32.000000
-39,-8,49,1623718794.0,32.000000
-40,-8,50,1623718794.0,32.000000
-39,-8,50,1623718794.0,32.000000
-39,-8,49,1623718794.0,32.000000
-39,-8,50,1623718794.0,32.000000
-40,-8,50,1623718794.0,32.000000
-39,-8,50,1623718794.0,32.000000
-39,-8,50,1623718794.0,32.000000
-39,-8,49,1623718794.0,32.000000
-39,-8,49,1623718794.0,32.000000
-40,-8,50,1623718794.0,32.000000
-40,-8,50,1623718794.0,32.000000
-40,-8,49,1623718794.0,32.000000
-40,-8,50,1623718794.0,32.000000
-40,-8,50,1623718794.0,32.000000
-40,-8,50,1623718794.0,32.000000
-39,-8,50,1623718794.0,32.000000
-39,-8,50,1623718794.0,32.000000
-40,-8,49,1623718794.0,32.000000
-39,-8,50,1623718794.0,32.000000
-40,-8,50,1623718794.0,32.000000
-39,-8,50,1623718794.0,32.000000
-40,-8,49,1623718794.0,32.000000
-40,-8,50,1623718794.0,32.000000
-40,-8,49,1623718794.0,32.000000
-39,-8,50,1623718794.0,32.000000
-39,-8,50,1623718794.0,32.000000
-39,-8,49,1623718794.0,32.000000
-39,-8,50,1623718794.0,32.000000
-40,-8,50,1623718794.0,32.000000
-40,-8,50,1623718794.0,32.000000
-40,-8,50,1623718794.0,32.000000
-40,-8,50,1623718794.0,32.000000
-40,-8,50,1623718794.0,32.000000
-40,-8,49,1623718794.0,32.000000
-39,-8,50,1623718794.0,32.000000
-40,-8,50,1623718794.0,32.000000
-40,-8,50,1623718794.0,32.000000
-39,-8,50,1623718794.0,32.000000
-40,-8,50,1623718794.0,32.000000
-40,-8,50,1623718794.0,32.000000
-39,-8,50,1623718794.0,32.000000
-39,-8,50,1623718794.0,32.000000
-40,-8,49,1623718794.0,32.000000
-39,-8,50,1623718794.0,32.000000
-40,-8,50,1623718794.0,32.000000
-39,-8,50,1623718794.0,32.000000
-39,-8,50,1623718794.0,32.000000
-40,-8,50,1623718794.0,32.000000
-40,-8,50,1623718794.0,32.000000
-39,-8,50,1623718794.0,32.000000
-40,-8,50,1623718794.0,32.000000
-40,-8,49,1623718794.0,32.000000
-40,-8,49,1623718794.0,32.000000
-39,-8,50,1623718794.0,32.000000
-39,-8,50,1623718794.0,32.000000
-40,-8,50,1623718794.0,32.000000
-39,-8,49,1623718794.0,32.000000
-40,-8,50,1623718794.0,32.000000
-39,-8,50,1623718794.0,32.000000
-39,-8,49,1623718794.0,32.000000
-39,-8,50,1623718794.0,32.000000
-41,-8,49,1623718794.0,32.000000
-40,-8,49,1623718794.0,32.000000
-39,-7,50,1623718794.0,32.000000
-39,-8,50,1623718794.0,32.000000
-39,-8,50,1623718794.0,32.000000
-39,-8,50,1623718794.0,32.000000
-40,-9,49,1623718794.0,32.000000
-40,-8,49,1623718794.0,32.000000
-39,-7,50,1623718794.0,32.000000
-39,-8,50,1623718794.0,32.000000
-40,-8,49,1623718794.0,32.000000
-40,-8,50,1623718794.0,32.000000
-40,-8,50,1623718794.0,32.000000
-39,-8,50,1623718794.0,32.000000
-39,-8,50,1623718794.0,32.000000
-40,-8,49,1623718794.0,32.000000
-40,-8,49,1623718794.0,32.000000
-39,-8,50,1623718794.0,32.000000
-39,-8,50,1623718794.0,32.000000
-40,-8,50,1623718794.0,32.000000
-40,-8,49,1623718794.0,32.000000
-39,-8,50,1623718794.0,32.000000
-39,-8,50,1623718794.0,32.000000
-39,-8,50,1623718794.0,32.000000
-39,-8,50,1623718794.0,32.000000
-40,-8,50,1623718794.0,32.000000
-40,-8,50,1623718794.0,32.000000
-39,-8,50,1623718794.0,32.000000
-40,-8,50,1623718794.0,32.000000
-40,-8,50,1623718794.0,32.000000
-40,-8,49,1623718794.0,32.000000
-40,-8,50,1623718794.0,32.000000
-40,-8,50,1623718794.0,32.000000
-40,-8,50,1623718794.0,32.000000
-39,-8,50,1623718794.0,32.000000
-40,-8,50,1623718794.0,32.000000
-39,-8,50,1623718794.0,32.000000
-40,-8,50,1623718794.0,32.000000
-39,-8,50,1623718794.0,32.000000
-39,-8,50,1623718794.0,32.000000
-40,-8,49,1623718794.0,32.000000
-39,-8,50,1623718794.0,32.000000
-39,-8,49,1623718794.0,32.000000
-40,-8,50,1623718794.0,32.000000
-39,-8,50,1623718794.0,32.000000
-40,-8,50,1623718794.0,32.000000
-39,-8,50,1623718794.0,32.000000
-39,-8,50,1623718794.0,32.000000
-40,-8,50,1623718794.0,32.000000
-40,-8,50,1623718794.0,32.000000
-40,-8,50,1623718794.0,32.000000
-40,-8,50,1623718794.0,32.000000
-40,-8,49,1623718794.0,32.000000
-40,-8,50,1623718794.0,32.000000
-40,-8,50,1623718794.0,32.000000
-40,-8,50,1623718794.0,32.000000
-39,-8,50,1623718794.0,32.000000
-40,-8,49,1623718794.0,32.000000
-40,-8,50,1623718794.0,32.000000
-40,-8,49,1623718794.0,32.000000
-39,-8,50,1623718794.0,32.000000
-39,-8,50,1623718794.0,32.000000
-39,-8,49,1623718794.0,32.000000
-39,-8,50,1623718794.0,32.000000
-40,-8,50,1623718794.0,32.000000
-40,-8,50,1623718794.0,32.000000
-40,-8,50,1623718794.0,32.000000
-40,-8,50,1623718794.0,32.000000
-40,-8,50,1623718794.0,32.000000
-40,-8,50,1623718794.0,32.000000
-39,-8,50,1623718794.0,32.000000
-40,-8,50,1623718794.0,32.000000
-39,-8,49,1623718794.0,32.000000
-40,-8,50,1623718794.0,32.000000
-39,-8,50,1623718794.0,32.000000
-40,-8,50,1623718794.0,32.000000
-39,-8,50,1623718794.0,32.000000
-39,-8,49,1623718794.0,32.000000
-40,-8,49,1623718794.0,32.000000
-39,-8,50,1623718794.0,32.000000
-39,-8,50,1623718794.0,32.000000
-40,-8,49,1623718794.0,32.000000
-39,-8,50,1623718794.0,32.000000
-39,-8,50,1623718794.0,32.000000
-40,-8,50,1623718794.0,32.000000
-40,-8,50,1623718794.0,32.000000
-40,-8,49,1623718794.0,32.000000
-39,-8,50,1623718794.0,32.000000
-39,-8,50,1623718794.0,32.000000
-39,-8,50,1623718794.0,32.000000
-40,-8,50,1623718794.0,32.000000
-40,-8,50,1623718794.0,32.000000
-40,-8,50,1623718794.0,32.000000
-39,-8,50,1623718794.0,32.000000
-39,-8,50,1623718794.0,32.000000
-40,-8,50,1623718794.0,32.000000
-40,-8,50,1623718794.0,32.000000
-40,-8,49,1623718794.0,32.000000
-40,-8,50,1623718794.0,32.000000
-40,-8,49,1623718794.0,32.000000
-40,-8,50,1623718794.0,32.000000
-39,-8,50,1623718794.0,32.000000
-39,-8,49,1623718794.0,32.000000
-40,-8,50,1623718794.0,32.000000
-40,-8,49,1623718794.0,32.000000
-40,-8,49,1623718794.0,32.000000
-39,-8,50,1623718794.0,32.000000
-39,-8,50,1623718794.0,32.000000
-40,-8,50,1623718794.0,32.000000
-40,-8,50,1623718794.0,32.000000
-39,-8,50,1623718794.0,32.000000
-40,-8,50,1623718794.0,32.000000
-40,-8,49,1623718794.0,32.000000
-39,-8,50,1623718794.0,32.000000
-40,-8,49,1623718794.0,32.000000
-40,-8,50,1623718794.0,32.000000
-39,-8,50,1623718794.0,32.000000
-39,-8,50,1623718794.0,32.000000
-39,-8,50,1623718794.0,32.000000
-40,-8,49,1623718794.0,32.000000
-40,-8,50,1623718794.0,32.000000
-39,-8,50,1623718794.0,32.000000
-40,-8,49,1623718794.0,32.000000
-39,-8,50,1623718794.0,32.000000
-40,-8,50,1623718794.0,32.000000
-39,-8,50,1623718794.0,32.000000
-40,-8,50,1623718794.0,32.000000
-39,-8,50,1623718794.0,32.000000
-39,-8,50,1623718794.0,32.000000
-40,-8,49,1623718794.0,32.000000
-40,-8,50,1623718794.0,32.000000
-40,-8,49,1623718794.0,32.000000
-40,-8,50,1623718794.0,32.000000
-39,-8,49,1623718794.0,32.000000
-39,-8,50,1623718794.0,32.000000
-40,-8,50,1623718794.0,32.000000
-40,-8,49,1623718794.0,32.000000
-39,-8,50,1623718794.0,32.000000
-40,-8,50,1623718794.0,32.000000
-40,-8,50,1623718794.0,32.000000
-39,-8,50,1623718794.0,32.000000
-40,-8,49,1623718794.0,32.000000
-40,-8,50,1623718794.0,32.000000
-40,-8,49,1623718794.0,32.000000
-39,-8,50,1623718794.0,32.000000
-39,-8,50,1623718794.0,32.000000
-40,-8,50,1623718794.0,32.000000
-40,-8,50,1623718794.0,32.000000
-40,-8,50,1623718794.0,32.000000
-39,-8,50,1623718794.0,32.000000
-40,-8,50,1623718794.0,32.000000
-40,-8,50,1623718794.0,32.000000
-39,-8,50,1623718794.0,32.000000
-40,-8,50,1623718794.0,32.000000
-40,-8,50,1623718794.0,32.000000
-40,-8,50,1623718794.0,32.000000
-40,-8,50,1623718794.0,32.000000
-39,-8,50,1623718794.0,32.000000
-40,-8,49,1623718794.0,32.000000
-40,-8,49,1623718794.0,32.000000
-39,-8,50,1623718794.0,32.000000
-40,-8,49,1623718794.0,32.000000
-39,-8,50,1623718794.0,32.000000
-40,-8,50,1623718794.0,32.000000
-40,-8,50,1623718794.0,32.000000
-39,-8,50,1623718794.0,32.000000
-39,-8,50,1623718794.0,32.000000
-39,-8,50,1623718794.0,32.000000
-39,-8,49,1623718794.0,32.000000
-40,-8,50,1623718794.0,32.000000
-40,-8,50,1623718794.0,32.000000
-40,-8,50,1623718794.0,32.000000
-39,-8,50,1623718794.0,32.000000
-40,-8,50,1623718794.0,32.000000
-40,-8,50,1623718794.0,32.000000
-40,-8,50,1623718794.0,32.000000
-40,-8,50,1623718794.0,32.000000
-39,-8,50,1623718794.0,32.000000
-40,-8,50,1623718794.0,32.000000
-40,-8,49,1623718794.0,32.000000
-39,-8,50,1623718794.0,32.000000
-39,-8,50,1623718794.0,32.000000
-40,-8,50,1623718794.0,32.000000
-39,-7,50,1623718794.0,32.000000
-40,-8,49,1623718794.0,32.000000
-40,-8,49,1623718794.0,32.000000
-39,-7,50,1623718794.0,32.000000
-40,-8,50,1623718794.0,32.000000
-40,-8,50,1623718794.0,32.000000
-40,-8,49,1623718794.0,32.000000
-39,-8,49,1623718794.0,32.000000
-40,-8,50,1623718794.0,32.000000
-40,-8,49,1623718794.0,32.000000
-40,-8,50,1623718794.0,32.000000
-39,-8,49,1623718794.0,32.000000
-40,-8,50,1623718794.0,32.000000
-40,-8,50,1623718794.0,32.000000
-40,-8,50,1623718794.0,32.000000
-39,-8,50,1623718794.0,32.000000
-40,-8,49,1623718794.0,32.000000
-40,-8,50,1623718794.0,32.000000
-40,-8,50,1623718794.0,32.000000
-40,-8,49,1623718794.0,32.000000
-40,-8,49,1623718794.0,32.000000
-40,-8,49,1623718794.0,32.000000
-40,-8,50,1623718794.0,32.000000
-40,-8,50,1623718794.0,32.000000
-40,-8,49,1623718794.0,32.000000
-40,-8,49,1623718794.0,32.000000
-40,-8,49,1623718794.0,32.000000
-40,-8,50,1623718794.0,32.000000
-40,-8,50,1623718794.0,32.000000
-40,-8,49,1623718794.0,32.000000
-40,-8,50,1623718794.0,32.000000
-40,-8,50,1623718794.0,32.000000
-40,-8,49,1623718794.0,32.000000
-40,-8,50,1623718794.0,32.000000
-40,-8,50,1623718794.0,32.000000
-40,-8,49,1623718794.0,32.000000
-40,-8,49,1623718794.0,32.000000
-40,-8,49,1623718794.0,32.000000
-40,-8,49,1623718794.0,32.000000
-40,-8,49,1623718794.0,32.000000
-40,-8,49,1623718794.0,32.000000
-40,-8,50,1623718794.0,32.000000
-40,-8,49,1623718794.0,32.000000
-40,-8,49,1623718794.0,32.000000
-39,-8,49,1623718794.0,32.000000
-40,-8,50,1623718794.0,32.000000
-40,-8,49,1623718794.0,32.000000
-40,-8,49,1623718794.0,32.000000
-40,-8,50,1623718794.0,32.000000
-40,-8,49,1623718794.0,32.000000
-40,-8,49,1623718794.0,32.000000
-40,-8,49,1623718794.0,32.000000
-40,-8,50,1623718794.0,32.000000
-40,-8,49,1623718794.0,32.000000
-40,-8,49,1623718794.0,32.000000
-40,-8,49,1623718794.0,32.000000
-39,-8,50,1623718794.0,32.000000
-39,-8,50,1623718794.0,32.000000
-40,-8,50,1623718794.0,32.000000
-40,-8,50,1623718794.0,32.000000
-40,-8,50,1623718794.0,32.000000
-40,-8,49,1623718794.0,32.000000
-40,-8,49,1623718794.0,32.000000
-39,-8,50,1623718794.0,32.000000
-40,-8,50,1623718794.0,32.000000
-40,-8,49,1623718794.0,32.000000
-39,-8,50,1623718794.0,32.000000
-40,-8,50,1623718794.0,32.000000
-40,-8,49,1623718794.0,32.000000
-39,-8,49,1623718794.0,32.000000
-40,-8,49,1623718794.0,32.000000
-40,-8,49,1623718794.0,32.000000
-40,-8,49,1623718794.0,32.000000
-39,-8,49,1623718794.0,32.000000
-40,-7,49,1623718794.0,32.000000
-40,-9,50,1623718794.0,32.000000
-39,-8,49,1623718794.0,32.000000
-40,-8,50,1623718794.0,32.000000
-39,-8,50,1623718794.0,32.000000
-40,-8,50,1623718794.0,32.000000
-40,-8,49,1623718794.0,32.000000
-40,-8,50,1623718794.0,32.000000
-40,-8,49,1623718794.0,32.000000
-39,-8,49,1623718794.0,32.000000
-40,-8,49,1623718794.0,32.000000
-40,-8,49,1623718794.0,32.000000
-40,-8,50,1623718794.0,32.000000
-40,-8,49,1623718794.0,32.000000
-40,-8,49,1623718794.0,32.000000
-40,-8,49,1623718794.0,32.000000
-40,-8,50,1623718794.0,32.000000
-40,-8,49,1623718794.0,32.000000
-40,-8,50,1623718794.0,32.000000
-40,-8,49,1623718794.0,32.000000
-40,-8,49,1623718794.0,32.000000
-40,-8,50,1623718794.0,32.000000
-39,-8,49,1623718794.0,32.000000
-40,-8,50,1623718794.0,32.000000
-40,-8,49,1623718794.0,32.000000
-40,-8,50,1623718794.0,32.000000
-40,-8,50,1623718794.0,32.000000
-40,-8,49,1623718794.0,32.000000
-40,-8,50,1623718794.0,32.000000
-40,-8,50,1623718794.0,32.000000
-40,-8,49,1623718794.0,32.000000
-40,-8,50,1623718794.0,32.000000
-40,-8,50,1623718794.0,32.000000
-40,-8,49,1623718794.0,32.000000
-40,-8,50,1623718794.0,32.000000
-40,-8,49,1623718794.0,32.000000
-40,-8,50,1623718794.0,32.000000
-39,-8,50,1623718794.0,32.000000
-40,-8,49,1623718794.0,32.000000
-40,-8,50,1623718794.0,32.000000
-39,-8,50,1623718794.0,32.000000
-40,-8,49,1623718794.0,32.000000
-40,-8,49,1623718794.0,32.000000
-40,-8,49,1623718794.0,32.000000
-40,-8,49,1623718794.0,32.000000
-40,-8,50,1623718794.0,32.000000
-40,-8,50,1623718794.0,32.000000
-40,-8,50,1623718794.0,32.000000
-40,-8,50,1623718794.0,32.000000
-40,-8,50,1623718794.0,32.000000
-40,-8,50,1623718794.0,32.000000
-40,-8,50,1623718794.0,32.000000
-40,-8,49,1623718794.0,32.000000
-40,-8,49,1623718794.0,32.000000
-40,-8,49,1623718794.0,32.000000
-40,-8,49,1623718794.0,32.000000
-40,-8,50,1623718794.0,32.000000
-40,-8,49,1623718794.0,32.000000
-40,-8,49,1623718794.0,32.000000
-39,-8,50,1623718794.0,32.000000
-40,-8,50,1623718794.0,32.000000
-40,-8,49,1623718794.0,32.000000
-39,-8,50,1623718794.0,32.000000
-40,-8,50,1623718794.0,32.000000
-40,-8,50,1623718794.0,32.000000
-40,-8,49,1623718794.0,32.000000
-40,-8,49,1623718794.0,32.000000
-40,-8,50,1623718794.0,32.000000
-39,-8,50,1623718794.0,32.000000
-40,-8,50,1623718794.0,32.000000
-39,-8,50,1623718794.0,32.000000
-40,-8,50,1623718794.0,32.000000
-39,-8,49,1623718794.0,32.000000
-40,-8,49,1623718794.0,32.000000
-40,-8,49,1623718794.0,32.000000
-40,-8,49,1623718794.0,32.000000
-40,-8,49,1623718794.0,32.000000
-39,-8,50,1623718794.0,32.000000
-40,-8,49,1623718794.0,32.000000
-40,-8,49,1623718794.0,32.000000
-39,-8,50,1623718794.0,32.000000
-40,-8,50,1623718794.0,32.000000
-40,-8,49,1623718794.0,32.000000
-40,-8,49,1623718794.0,32.000000
-40,-8,50,1623718794.0,32.000000
-40,-8,50,1623718794.0,32.000000
-40,-8,50,1623718794.0,32.000000
-39,-8,50,1623718794.0,32.000000
-40,-8,49,1623718794.0,32.000000
-40,-8,49,1623718794.0,32.000000
-40,-8,50,1623718794.0,32.000000
-40,-8,50,1623718794.0,32.000000
-40,-8,50,1623718794.0,32.000000
-40,-8,50,1623718794.0,32.000000
-40,-8,49,1623718794.0,32.000000
-40,-8,50,1623718794.0,32.000000
-40,-8,50,1623718794.0,32.000000
-40,-8,50,1623718794.0,32.000000
-40,-8,49,1623718794.0,32.000000
-40,-8,49,1623718794.0,32.000000
-40,-8,50,1623718794.0,32.000000
-40,-8,49,1623718794.0,32.000000
-40,-8,49,1623718794.0,32.000000
-39,-8,50,1623718794.0,32.000000
-40,-8,50,1623718794.0,32.000000
-39,-8,50,1623718794.0,32.000000
-40,-8,50,1623718794.0,32.000000
-40,-8,50,1623718794.0,32.000000
-40,-8,50,1623718794.0,32.000000
-40,-8,50,1623718794.0,32.000000
-40,-8,50,1623718794.0,32.000000
-40,-8,49,1623718794.0,32.000000
-40,-8,49,1623718794.0,32.000000
-40,-8,50,1623718794.0,32.000000
-40,-8,50,1623718794.0,32.000000
-40,-8,50,1623718794.0,32.000000
-40,-8,50,1623718794.0,32.000000
-40,-8,50,1623718794.0,32.000000
-39,-8,50,1623718794.0,32.000000
-40,-8,49,1623718794.0,32.000000
-40,-8,50,1623718794.0,32.000000
-39,-8,50,1623718794.0,32.000000
-40,-8,49,1623718794.0,32.000000
-39,-8,50,1623718794.0,32.000000
-39,-8,50,1623718794.0,32.000000
-40,-8,50,1623718794.0,32.000000
-40,-8,50,1623718794.0,32.000000
-40,-8,50,1623718794.0,32.000000
-40,-8,50,1623718794.0,32.000000
-40,-8,50,1623718794.0,32.000000
-40,-8,50,1623718794.0,32.000000
-39,-8,50,1623718794.0,32.000000
-39,-8,49,1623718794.0,32.000000
-40,-8,49,1623718794.0,32.000000
-39,-8,49,1623718794.0,32.000000
-40,-8,50,1623718794.0,32.000000
-39,-8,49,1623718794.0,32.000000
-40,-7,49,1623718794.0,32.000000
-39,-8,50,1623718794.0,32.000000
-39,-8,50,1623718794.0,32.000000
-40,-8,50,1623718794.0,32.000000
-39,-9,49,1623718794.0,32.000000
-41,-7,50,1623718794.0,32.000000
-39,-8,50,1623718794.0,32.000000
-39,-8,50,1623718794.0,32.000000
-39,-8,49,1623718794.0,32.000000
-40,-8,49,1623718794.0,32.000000
-40,-8,50,1623718794.0,32.000000
-40,-8,50,1623718794.0,32.000000
-39,-8,50,1623718794.0,32.000000
-39,-8,49,1623718794.0,32.000000
-40,-8,50,1623718794.0,32.000000
-40,-8,50,1623718794.0,32.000000
-40,-8,50,1623718794.0,32.000000
-40,-8,50,1623718794.0,32.000000
-40,-8,50,1623718794.0,32.000000
-40,-8,50,1623718794.0,32.000000
-39,-8,50,1623718794.0,32.000000
-39,-8,50,1623718794.0,32.000000
-40,-8,49,1623718794.0,32.000000
-40,-8,50,1623718794.0,32.000000
-40,-8,50,1623718794.0,32.000000
-39,-8,50,1623718794.0,32.000000
-40,-8,49,1623718794.0,32.000000
-40,-8,49,1623718794.0,32.000000
-39,-8,50,1623718794.0,32.000000
-39,-8,50,1623718794.0,32.000000
-39,-8,50,1623718794.0,32.000000
-40,-8,50,1623718794.0,32.000000
-40,-8,50,1623718794.0,32.000000
-40,-8,50,1623718794.0,32.000000
-39,-8,49,1623718794.0,32.000000
-40,-8,50,1623718794.0,32.000000
-39,-8,50,1623718794.0,32.000000
-40,-8,49,1623718794.0,32.000000
-39,-8,50,1623718794.0,32.000000
-40,-8,50,1623718794.0,32.000000
-40,-8,50,1623718794.0,32.000000
-40,-8,50,1623718794.0,32.000000
-40,-8,50,1623718794.0,32.000000
-40,-8,50,1623718794.0,32.000000
-39,-8,50,1623718794.0,32.000000
-39,-8,50,1623718794.0,32.000000
-40,-8,49,1623718794.0,32.000000
-40,-8,49,1623718794.0,32.000000
-40,-8,50,1623718794.0,32.000000
-39,-8,50,1623718794.0,32.000000
-40,-8,50,1623718794.0,32.000000
-39,-8,50,1623718794.0,32.000000
-40,-8,50,1623718794.0,32.000000
-39,-8,50,1623718794.0,32.000000
-39,-8,50,1623718794.0,32.000000
-40,-8,50,1623718794.0,32.000000
-40,-8,50,1623718794.0,32.000000
-40,-7,49,1623718794.0,32.000000
-39,-7,50,1623718794.0,32.000000
-39,-8,50,1623718794.0,32.000000
-40,-8,50,1623718794.0,32.000000
-40,-8,50,1623718794.0,32.000000
-39,-8,49,1623718794.0,32.000000
-40,-8,50,1623718794.0,32.000000
-39,-8,50,1623718794.0,32.000000
-40,-8,49,1623718794.0,32.000000
-40,-8,50,1623718794.0,32.000000
-40,-8,50,1623718794.0,32.000000
-39,-8,50,1623718794.0,32.000000
-39,-8,50,1623718794.0,32.000000
-40,-8,50,1623718794.0,32.000000
-40,-8,50,1623718794.0,32.000000
-40,-8,50,1623718794.0,32.000000
-40,-8,50,1623718794.0,32.000000
-40,-8,49,1623718794.0,32.000000
-40,-8,49,1623718794.0,32.000000
-39,-8,50,1623718794.0,32.000000
-39,-8,50,1623718794.0,32.000000
-39,-8,50,1623718794.0,32.000000
-39,-8,50,1623718794.0,32.000000
-40,-8,50,1623718794.0,32.000000
-40,-8,49,1623718794.0,32.000000
-39,-8,50,1623718794.0,32.000000
-40,-8,50,1623718794.0,32.000000
-40,-8,49,1623718794.0,32.000000
-40,-8,50,1623718794.0,32.000000
-40,-8,50,1623718794.0,32.000000
-39,-8,50,1623718794.0,32.000000
-40,-8,50,1623718794.0,32.000000
-40,-8,49,1623718794.0,32.000000
-39,-8,50,1623718794.0,32.000000
-40,-8,50,1623718794.0,32.000000
-39,-8,50,1623718794.0,32.000000
-40,-8,50,1623718794.0,32.000000
-40,-8,50,1623718794.0,32.000000
-39,-8,50,1623718794.0,32.000000
-39,-8,50,1623718794.0,32.000000
-39,-8,50,1623718794.0,32.000000
-40,-8,49,1623718794.0,32.000000
-39,-8,50,1623718794.0,32.000000
-40,-8,50,1623718794.0,32.000000
-40,-8,49,1623718794.0,32.000000
-40,-8,50,1623718794.0,32.000000
-40,-8,50,1623718794.0,32.000000
-40,-8,49,1623718794.0,32.000000
-40,-8,50,1623718794.0,32.000000
-39,-8,50,1623718794.0,32.000000
-39,-8,50,1623718794.0,32.000000
-39,-8,50,1623718794.0,32.000000
-40,-8,49,1623718794.0,32.000000
-40,-8,50,1623718794.0,32.000000
-39,-8,50,1623718794.0,32.000000
-40,-8,49,1623718794.0,32.000000
-40,-8,50,1623718794.0,32.000000
-40,-8,50,1623718794.0,32.000000
-40,-8,50,1623718794.0,32.000000
-40,-8,50,1623718794.0,32.000000
-40,-8,49,1623718794.0,32.000000
-40,-8,50,1623718794.0,32.000000
-39,-8,50,1623718794.0,32.000000
-40,-8,50,1623718794.0,32.000000
-40,-8,50,1623718794.0,32.000000
-40,-8,50,1623718794.0,32.000000
-40,-8,50,1623718794.0,32.000000
-39,-8,49,1623718794.0,32.000000
-40,-8,50,1623718794.0,32.000000
-40,-8,50,1623718794.0,32.000000
-39,-8,50,1623718794.0,32.000000
-39,-8,50,1623718794.0,32.000000
-40,-8,49,1623718794.0,32.000000
-39,-8,50,1623718794.0,32.000000
-39,-8,50,1623718794.0,32.000000
-40,-8,49,1623718794.0,32.000000
-39,-8,50,1623718794.0,32.000000
-40,-8,50,1623718794.0,32.000000
-40,-8,50,1623718794.0,32.000000
-40,-8,50,1623718794.0,32.000000
-40,-8,50,1623718794.0,32.000000
-39,-8,50,1623718794.0,32.000000
-39,-8,50,1623718794.0,32.000000
-39,-8,50,1623718794.0,32.000000
-40,-8,50,1623718794.0,32.000000
-40,-8,50,1623718794.0,32.000000
-39,-8,50,1623718794.0,32.000000
-40,-8,50,1623718794.0,32.000000
-40,-8,50,1623718794.0,32.000000
-39,-8,50,1623718794.0,32.000000
-39,-8,50,1623718794.0,32.000000
-39,-8,50,1623718794.0,32.000000
-40,-8,49,1623718794.0,32.000000
-40,-8,50,1623718794.0,32.000000
-40,-8,50,1623718794.0,32.000000
-40,-8,49,1623718794.0,32.000000
-39,-8,50,1623718794.0,32.000000
-39,-8,50,1623718794.0,32.000000
-40,-8,50,1623718794.0,32.000000
-39,-8,50,1623718794.0,32.000000
-39,-8,50,1623718794.0,32.000000
-40,-8,50,1623718794.0,32.000000
-39,-8,50,1623718794.0,32.000000
-39,-8,50,1623718794.0,32.000000
-40,-8,49,1623718794.0,32.000000
-40,-8,50,1623718794.0,32.000000
-39,-8,50,1623718794.0,32.000000
-40,-8,50,1623718794.0,32.000000
-40,-8,50,1623718794.0,32.000000
-40,-8,50,1623718794.0,32.000000
-40,-8,50,1623718794.0,32.000000
-40,-8,50,1623718794.0,32.000000
-40,-8,49,1623718794.0,32.000000
-40,-8,50,1623718794.0,32.000000
-39,-8,50,1623718794.0,32.000000
-39,-8,49,1623718794.0,32.000000
-39,-8,49,1623718794.0,32.000000
-39,-8,50,1623718794.0,32.000000
-40,-8,50,1623718794.0,32.000000
-40,-8,50,1623718794.0,32.000000
-40,-8,50,1623718794.0,32.000000
-40,-8,50,1623718794.0,32.000000
-40,-8,50,1623718794.0,32.000000
-40,-8,50,1623718794.0,32.000000
-39,-8,49,1623718794.0,32.000000
-39,-8,50,1623718794.0,32.000000
-40,-8,49,1623718794.0,32.000000
-39,-8,50,1623718794.0,32.000000
-39,-8,50,1623718794.0,32.000000
-40,-8,50,1623718794.0,32.000000
-39,-8,50,1623718794.0,32.000000
-40,-8,49,1623718794.0,32.000000
-40,-8,50,1623718794.0,32.000000
-39,-8,50,1623718794.0,32.000000
-40,-8,49,1623718794.0,32.000000
-40,-8,49,1623718794.0,32.000000
-40,-8,50,1623718794.0,32.000000
-40,-8,50,1623718794.0,32.000000
-40,-8,50,1623718794.0,32.000000
-39,-8,50,1623718794.0,32.000000
-40,-8,50,1623718794.0,32.000000
-40,-8,50,1623718794.0,32.000000
-39,-8,50,1623718794.0,32.000000
-40,-8,50,1623718794.0,32.000000
-40,-8,50,1623718794.0,32.000000
-39,-8,50,1623718794.0,32.000000
-39,-8,50,1623718794.0,32.000000
-40,-8,49,1623718794.0,32.000000
-39,-8,50,1623718794.0,32.000000
-40,-8,49,1623718794.0,32.000000
-40,-8,50,1623718794.0,32.000000
-39,-8,50,1623718794.0,32.000000
-39,-8,49,1623718794.0,32.000000
-39,-8,49,1623718794.0,32.000000
-40,-8,50,1623718794.0,32.000000
-40,-8,50,1623718794.0,32.000000
-40,-8,50,1623718794.0,32.000000
-40,-8,50,1623718794.0,32.000000
-40,-8,50,1623718794.0,32.000000
-40,-8,50,1623718794.0,32.000000
-40,-8,50,1623718794.0,32.000000
-39,-8,50,1623718794.0,32.000000
-40,-8,50,1623718794.0,32.000000
-40,-8,49,1623718794.0,32.000000
-39,-8,50,1623718794.0,32.000000
-40,-8,50,1623718794.0,32.000000
-40,-8,49,1623718794.0,32.000000
-40,-8,49,1623718794.0,32.000000
-40,-8,49,1623718794.0,32.000000
-39,-8,50,1623718794.0,32.000000
-40,-8,50,1623718794.0,32.000000
-39,-8,50,1623718794.0,32.000000
-40,-8,50,1623718794.0,32.000000
-40,-8,50,1623718794.0,32.000000
-40,-8,49,1623718794.0,32.000000
-39,-8,50,1623718794.0,32.000000
-39,-8,50,1623718794.0,32.000000
-40,-8,50,1623718794.0,32.000000
-40,-8,50,1623718794.0,32.000000
-40,-8,50,1623718794.0,32.000000
-39,-8,50,1623718794.0,32.000000
-40,-8,50,1623718794.0,32.000000
-39,-8,50,1623718794.0,32.000000
-40,-8,49,1623718794.0,32.000000
-40,-8,50,1623718794.0,32.000000
-40,-8,49,1623718794.0,32.000000
-40,-8,50,1623718794.0,32.000000
-39,-8,50,1623718794.0,32.000000
-39,-8,49,1623718794.0,32.000000
-39,-8,49,1623718794.0,32.000000
-40,-8,50,1623718794.0,32.000000
-40,-8,50,1623718794.0,32.000000
-40,-8,49,1623718794.0,32.000000
-39,-8,49,1623718794.0,32.000000
-39,-8,50,1623718794.0,32.000000
-39,-8,49,1623718794.0,32.000000
-40,-8,49,1623718794.0,32.000000
-40,-8,50,1623718794.0,32.000000
-39,-8,50,1623718794.0,32.000000
-39,-8,50,1623718794.0,32.000000
-40,-8,50,1623718794.0,32.000000
-40,-8,50,1623718794.0,32.000000
-40,-8,50,1623718794.0,32.000000
-39,-8,50,1623718794.0,32.000000
-40,-8,49,1623718794.0,32.000000
-40,-8,49,1623718794.0,32.000000
-39,-8,50,1623718794.0,32.000000
-40,-8,50,1623718794.0,32.000000
-39,-8,50,1623718794.0,32.000000
-39,-8,50,1623718794.0,32.000000
-40,-8,50,1623718794.0,32.000000
-39,-8,49,1623718794.0,32.000000
-40,-8,50,1623718794.0,32.000000
-39,-8,50,1623718794.0,32.000000
-40,-8,50,1623718794.0,32.000000
-40,-8,49,1623718794.0,32.000000
-40,-8,50,1623718794.0,32.000000
-40,-8,50,1623718794.0,32.000000
-40,-8,50,1623718794.0,32.000000
-40,-8,49,1623718794.0,32.000000
-40,-8,50,1623718794.0,32.000000
-40,-8,50,1623718794.0,32.000000
-39,-8,50,1623718794.0,32.000000
-40,-8,49,1623718794.0,32.000000
-40,-8,49,1623718794.0,32.000000
-39,-8,50,1623718794.0,32.000000
-39,-8,50,1623718794.0,32.000000
-39,-8,50,1623718794.0,32.000000
-39,-8,50,1623718794.0,32.000000
-40,-8,50,1623718794.0,32.000000
-40,-8,50,1623718794.0,32.000000
-40,-8,50,1623718794.0,32.000000
-39,-8,50,1623718794.0,32.000000
-39,-8,50,1623718794.0,32.000000
-40,-8,50,1623718794.0,32.000000
-39,-8,50,1623718794.0,32.000000
-40,-8,50,1623718794.0,32.000000
-40,-8,49,1623718794.0,32.000000
-40,-8,50,1623718794.0,32.000000
-39,-8,50,1623718794.0,32.000000
-40,-8,50,1623718794.0,32.000000
-39,-8,50,1623718794.0,32.000000
-40,-8,50,1623718794.0,32.000000
-40,-8,49,1623718794.0,32.000000
-40,-8,50,1623718794.0,32.000000
-39,-8,50,1623718794.0,32.000000
-40,-8,49,1623718794.0,32.000000
-40,-8,50,1623718794.0,32.000000
-40,-8,50,1623718794.0,32.000000
-40,-8,50,1623718794.0,32.000000
-40,-8,50,1623718794.0,32.000000
-40,-8,49,1623718794.0,32.000000
-40,-8,50,1623718794.0,32.000000
-39,-7,50,1623718794.0,32.000000
-40,-8,50,1623718794.0,32.000000
-40,-8,50,1623718794.0,32.000000
-40,-8,49,1623718794.0,32.000000
-40,-8,50,1623718794.0,32.000000
-39,-8,50,1623718794.0,32.000000
-40,-8,50,1623718794.0,32.000000
-40,-8,50,1623718794.0,32.000000
-40,-8,50,1623718794.0,32.000000
-39,-8,50,1623718794.0,32.000000
-39,-8,50,1623718794.0,32.000000
-40,-8,49,1623718794.0,32.000000
-40,-8,50,1623718794.0,32.000000
-40,-8,50,1623718794.0,32.000000
-39,-8,50,1623718794.0,32.000000
-39,-8,50,1623718794.0,32.000000
-40,-8,50,1623718794.0,32.000000
-40,-8,50,1623718794.0,32.000000
-39,-8,50,1623718794.0,32.000000
-39,-8,50,1623718794.0,32.000000
-40,-8,49,1623718794.0,32.000000
-40,-8,50,1623718794.0,32.000000
-39,-8,50,1623718794.0,32.000000
-40,-8,49,1623718794.0,32.000000
-40,-8,50,1623718794.0,32.000000
-40,-8,50,1623718794.0,32.000000
-40,-8,50,1623718794.0,32.000000
-40,-8,50,1623718794.0,32.000000
-40,-8,50,1623718794.0,32.000000
-39,-8,50,1623718794.0,32.000000
-40,-8,50,1623718794.0,32.000000
-39,-8,49,1623718794.0,32.000000
-40,-8,49,1623718794.0,32.000000
-40,-8,49,1623718794.0,32.000000
-39,-8,50,1623718794.0,32.000000
-39,-8,50,1623718794.0,32.000000
-40,-8,49,1623718794.0,32.000000
-39,-8,50,1623718794.0,32.000000
-40,-8,50,1623718794.0,32.000000
-40,-8,50,1623718794.0,32.000000
-39,-8,50,1623718794.0,32.000000
-40,-8,50,1623718794.0,32.000000
-39,-8,50,1623718794.0,32.000000
-40,-8,50,1623718794.0,32.000000
-40,-8,50,1623718794.0,32.000000
-40,-8,50,1623718794.0,32.000000
-40,-8,49,1623718794.0,32.000000
-40,-8,50,1623718794.0,32.000000
-39,-8,50,1623718794.0,32.000000
-40,-8,50,1623718794.0,32.000000
-40,-8,49,1623718794.0,32.000000
-39,-8,50,1623718794.0,32.000000
-39,-8,50,1623718794.0,32.000000
-40,-8,50,1623718794.0,32.000000
-39,-8,50,1623718794.0,32.000000
-40,-8,49,1623718794.0,32.000000
-39,-8,50,1623718794.0,32.000000
-40,-8,50,1623718794.0,32.000000
-40,-8,50,1623718794.0,32.000000
-39,-7,50,1623718794.0,32.000000
-40,-7,50,1623718794.0,32.000000
-39,-8,50,1623718794.0,32.000000
-39,-8,50,1623718794.0,32.000000
-40,-8,50,1623718794.0,32.000000
-40,-8,50,1623718794.0,32.000000
-40,-8,49,1623718794.0,32.000000
-39,-8,50,1623718794.0,32.000000
-40,-8,49,1623718794.0,32.000000
-40,-8,49,1623718794.0,32.000000
-40,-8,50,1623718794.0,32.000000
-39,-8,50,1623718794.0,32.000000
-39,-8,50,1623718794.0,32.000000
-40,-8,49,1623718794.0,32.000000
-40,-8,50,1623718794.0,32.000000
-39,-8,50,1623718794.0,32.000000
-39,-8,50,1623718794.0,32.000000
-40,-8,50,1623718794.0,32.000000
-40,-8,49,1623718794.0,32.000000
-39,-8,50,1623718794.0,32.000000
-39,-8,50,1623718794.0,32.000000
-39,-8,49,1623718794.0,32.000000
-39,-8,50,1623718794.0,32.000000
-40,-8,50,1623718794.0,32.000000
-40,-8,50,1623718794.0,32.000000
-39,-8,49,1623718794.0,32.000000
-40,-8,49,1623718794.0,32.000000
-40,-8,49,1623718794.0,32.000000
-40,-8,49,1623718794.0,32.000000
-39,-8,50,1623718794.0,32.000000
-39,-8,50,1623718794.0,32.000000
-39,-8,50,1623718794.0,32.000000
-40,-8,50,1623718794.0,32.000000
-40,-8,50,1623718794.0,32.000000
-39,-8,50,1623718794.0,32.000000
-40,-8,50,1623718794.0,32.000000
-40,-8,50,1623718794.0,32.000000
-39,-8,50,1623718794.0,32.000000
-40,-8,50,1623718794.0,32.000000
-39,-8,50,1623718794.0,32.000000
-40,-8,49,1623718794.0,32.000000
-40,-8,49,1623718794.0,32.000000
-39,-8,50,1623718794.0,32.000000
-40,-8,49,1623718794.0,32.000000
-39,-8,50,1623718794.0,32.000000
-39,-8,50,1623718794.0,32.000000
-40,-8,50,1623718794.0,32.000000
-39,-8,50,1623718794.0,32.000000
-40,-8,49,1623718794.0,32.000000
-40,-8,50,1623718794.0,32.000000
-40,-8,50,1623718794.0,32.000000
-40,-8,50,1623718794.0,32.000000
-39,-8,50,1623718794.0,32.000000
-40,-8,50,1623718794.0,32.000000
-40,-8,50,1623718794.0,32.000000
-39,-8,50,1623718794.0,32.000000
-39,-8,50,1623718794.0,32.000000
-40,-8,50,1623718794.0,32.000000
-40,-8,50,1623718794.0,32.000000
-39,-8,50,1623718794.0,32.000000
-39,-8,50,1623718794.0,32.000000
-40,-8,50,1623718794.0,32.000000
-40,-8,49,1623718794.0,32.000000
-39,-8,50,1623718794.0,32.000000
-40,-8,50,1623718794.0,32.000000
-39,-7,49,1623718794.0,32.000000
-40,-7,50,1623718794.0,32.000000
-39,-8,50,1623718794.0,32.000000
-39,-8,50,1623718794.0,32.000000
-40,-8,50,1623718794.0,32.000000
-39,-8,49,1623718794.0,32.000000
-39,-8,50,1623718794.0,32.000000
-39,-8,50,1623718794.0,32.000000
-39,-8,50,1623718794.0,32.000000
-40,-8,49,1623718794.0,32.000000
-40,-8,50,1623718794.0,32.000000
-39,-8,50,1623718794.0,32.000000
-39,-8,50,1623718794.0,32.000000
-39,-8,50,1623718794.0,32.000000
-40,-8,50,1623718794.0,32.000000
-39,-8,50,1623718794.0,32.000000
-40,-8,50,1623718794.0,32.000000
-40,-8,49,1623718794.0,32.000000
-40,-8,49,1623718794.0,32.000000
-39,-8,50,1623718794.0,32.000000
-39,-8,50,1623718794.0,32.000000
-39,-8,50,1623718794.0,32.000000
-40,-8,50,1623718794.0,32.000000
-39,-8,50,1623718794.0,32.000000
-39,-8,50,1623718794.0,32.000000
-39,-8,50,1623718794.0,32.000000
-39,-8,50,1623718794.0,32.000000
-39,-8,50,1623718794.0,32.000000
-39,-8,50,1623718794.0,32.000000
-40,-8,50,1623718794.0,32.000000
-40,-8,50,1623718794.0,32.000000
-39,-8,50,1623718794.0,32.000000
-39,-8,50,1623718794.0,32.000000
-40,-8,50,1623718794.0,32.000000
-40,-8,50,1623718794.0,32.000000
-39,-8,50,1623718794.0,32.000000
-39,-8,50,1623718794.0,32.000000
-40,-8,49,1623718794.0,32.000000
-39,-8,50,1623718794.0,32.000000
-40,-8,49,1623718794.0,32.000000
-39,-8,50,1623718794.0,32.000000
-40,-8,50,1623718794.0,32.000000
-40,-8,50,1623718794.0,32.000000
-40,-8,50,1623718794.0,32.000000
-40,-8,49,1623718794.0,32.000000
-39,-8,50,1623718794.0,32.000000
-39,-8,50,1623718794.0,32.000000
-40,-8,49,1623718794.0,32.000000
-39,-8,50,1623718794.0,32.000000
-39,-8,50,1623718794.0,32.000000
-39,-8,50,1623718794.0,32.000000
-39,-8,50,1623718794.0,32.000000
-40,-8,50,1623718794.0,32.000000
-40,-8,50,1623718794.0,32.000000
-39,-8,50,1623718794.0,32.000000
-39,-8,50,1623718794.0,32.000000
-40,-8,49,1623718794.0,32.000000
-40,-8,49,1623718794.0,32.000000
-39,-8,50,1623718794.0,32.000000
-40,-8,50,1623718794.0,32.000000
-39,-8,50,1623718794.0,32.000000
-39,-8,50,1623718794.0,32.000000
-40,-8,50,1623718794.0,32.000000
-39,-8,50,1623718794.0,32.000000
-40,-8,50,1623718794.0,32.000000
-39,-8,50,1623718794.0,32.000000
-40,-8,50,1623718794.0,32.000000
-39,-8,50,1623718794.0,32.000000
-39,-8,50,1623718794.0,32.000000
-40,-8,50,1623718794.0,32.000000
-40,-8,50,1623718794.0,32.000000
-40,-8,50,1623718794.0,32.000000
-39,-8,49,1623718794.0,32.000000
-40,-8,50,1623718794.0,32.000000
-39,-8,50,1623718794.0,32.000000
-39,-8,50,1623718794.0,32.000000
-40,-8,49,1623718794.0,32.000000
-40,-8,49,1623718794.0,32.000000
-39,-8,50,1623718794.0,32.000000
-39,-8,50,1623718794.0,32.000000
-39,-8,50,1623718794.0,32.000000
-40,-8,50,1623718794.0,32.000000
-40,-8,50,1623718794.0,32.000000
-39,-8,50,1623718794.0,32.000000
-40,-8,50,1623718794.0,32.000000
-39,-8,50,1623718794.0,32.000000
-40,-8,50,1623718794.0,32.000000
-40,-8,50,1623718794.0,32.000000
-40,-8,50,1623718794.0,32.000000
-40,-8,50,1623718794.0,32.000000
-40,-8,49,1623718794.0,32.000000
-39,-8,50,1623718794.0,32.000000
-40,-8,50,1623718794.0,32.000000
-40,-8,50,1623718794.0,32.000000
-39,-8,50,1623718794.0,32.000000
-39,-8,50,1623718794.0,32.000000
-40,-8,50,1623718794.0,32.000000
-40,-8,49,1623718794.0,32.000000
-39,-8,50,1623718794.0,32.000000
-39,-8,50,1623718794.0,32.000000
-40,-8,50,1623718794.0,32.000000
-39,-8,50,1623718794.0,32.000000
-40,-8,50,1623718794.0,32.000000
-39,-8,50,1623718794.0,32.000000
-40,-8,49,1623718794.0,32.000000
-40,-8,50,1623718794.0,32.000000
-40,-8,50,1623718794.0,32.000000
-39,-8,50,1623718794.0,32.000000
-40,-8,50,1623718794.0,32.000000
-40,-8,50,1623718794.0,32.000000
-40,-8,50,1623718794.0,32.000000
-40,-8,50,1623718794.0,32.000000
-40,-8,49,1623718794.0,32.000000
-40,-8,49,1623718794.0,32.000000
-39,-8,50,1623718794.0,32.000000
-40,-8,50,1623718794.0,32.000000
-40,-8,49,1623718794.0,32.000000
-41,-8,49,1623718794.0,32.000000
-39,-8,50,1623718794.0,32.000000
-39,-8,50,1623718794.0,32.000000
-39,-7,49,1623718794.0,32.000000
-39,-7,50,1623718794.0,32.000000
-39,-8,50,1623718794.0,32.000000
-40,-7,50,1623718794.0,32.000000
-39,-8,50,1623718794.0,32.000000
-39,-7,51,1623718794.0,32.000000
-39,-8,50,1623718794.0,32.000000
-40,-8,50,1623718794.0,32.000000
-39,-7,50,1623718794.0,32.000000
-39,-7,50,1623718794.0,32.000000
-39,-7,51,1623718794.0,32.000000
-39,-7,49,1623718794.0,32.000000
-39,-6,50,1623718794.0,32.000000
-39,-8,51,1623718794.0,32.000000
-39,-8,50,1623718794.0,32.000000
-39,-6,49,1623718794.0,32.000000
-40,-7,50,1623718794.0,32.000000
-40,-8,50,1623718794.0,32.000000
-41,-7,48,1623718794.0,32.000000
-40,-7,50,1623718794.0,32.000000
-39,-8,50,1623718794.0,32.000000
-40,-8,49,1623718794.0,32.000000
-39,-7,49,1623718794.0,32.000000
-40,-8,50,1623718794.0,32.000000
-40,-8,50,1623718794.0,32.000000
-40,-7,49,1623718794.0,32.000000
-39,-8,50,1623718794.0,32.000000
-39,-8,49,1623718794.0,32.000000
-40,-7,49,1623718794.0,32.000000
-40,-7,50,1623718794.0,32.000000
-40,-8,50,1623718794.0,32.000000
-40,-7,50,1623718794.0,32.000000
-40,-8,49,1623718794.0,32.000000
-40,-7,50,1623718794.0,32.000000
-40,-7,49,1623718794.0,32.000000
-40,-7,49,1623718794.0,32.000000
-40,-7,50,1623718794.0,32.000000
-40,-8,50,1623718794.0,32.000000
-40,-8,49,1623718794.0,32.000000
-40,-7,49,1623718794.0,32.000000
-40,-7,49,1623718794.0,32.000000
-40,-7,49,1623718794.0,32.000000
-40,-8,50,1623718794.0,32.000000
-39,-7,50,1623718794.0,32.000000
-40,-7,49,1623718794.0,32.000000
-40,-7,49,1623718794.0,32.000000
-40,-7,50,1623718794.0,32.000000
-40,-8,50,1623718794.0,32.000000
-40,-7,49,1623718794.0,32.000000
-40,-7,49,1623718794.0,32.000000
-40,-7,50,1623718794.0,32.000000
-40,-8,50,1623718794.0,32.000000
-40,-8,50,1623718794.0,32.000000
-40,-8,49,1623718794.0,32.000000
-40,-7,49,1623718794.0,32.000000
-40,-7,50,1623718794.0,32.000000
-40,-8,49,1623718794.0,32.000000
-40,-7,49,1623718794.0,32.000000
-40,-7,50,1623718794.0,32.000000
-40,-7,49,1623718794.0,32.000000
-40,-7,50,1623718794.0,32.000000
-40,-7,50,1623718794.0,32.000000
-40,-7,50,1623718794.0,32.000000
-40,-7,49,1623718794.0,32.000000
-40,-7,49,1623718794.0,32.000000
-40,-7,49,1623718794.0,32.000000
-40,-8,49,1623718794.0,32.000000
-40,-7,49,1623718794.0,32.000000
-40,-7,49,1623718794.0,32.000000
-40,-7,49,1623718794.0,32.000000
-40,-7,49,1623718794.0,32.000000
-40,-8,49,1623718794.0,32.000000
-40,-8,49,1623718794.0,32.000000
-40,-7,49,1623718794.0,32.000000
-40,-7,49,1623718794.0,32.000000
-40,-8,49,1623718794.0,32.000000
-40,-8,50,1623718794.0,32.000000
-40,-8,49,1623718794.0,32.000000
-40,-8,49,1623718794.0,32.000000
-40,-7,50,1623718794.0,32.000000
-40,-8,50,1623718794.0,32.000000
-40,-8,50,1623718794.0,32.000000
-40,-7,49,1623718794.0,32.000000
-40,-7,49,1623718794.0,32.000000
-40,-8,50,1623718794.0,32.000000
-40,-8,49,1623718794.0,32.000000
-40,-7,49,1623718794.0,32.000000
-40,-7,49,1623718794.0,32.000000
-40,-7,50,1623718794.0,32.000000
-40,-7,50,1623718794.0,32.000000
-40,-8,49,1623718794.0,32.000000
-40,-8,49,1623718794.0,32.000000
-40,-7,50,1623718794.0,32.000000
-40,-7,50,1623718794.0,32.000000
-40,-8,49,1623718794.0,32.000000
-40,-8,49,1623718794.0,32.000000
-40,-7,49,1623718794.0,32.000000
-40,-8,49,1623718794.0,32.000000
-40,-8,50,1623718794.0,32.000000
-40,-8,50,1623718794.0,32.000000
-40,-8,49,1623718794.0,32.000000
-40,-8,49,1623718794.0,32.000000
-40,-8,49,1623718794.0,32.000000
-40,-8,49,1623718794.0,32.000000
-40,-7,49,1623718794.0,32.000000
-40,-7,49,1623718794.0,32.000000
-40,-8,49,1623718794.0,32.000000
-40,-8,50,1623718794.0,32.000000
-40,-8,49,1623718794.0,32.000000
-40,-8,49,1623718794.0,32.000000
-40,-8,49,1623718794.0,32.000000
-40,-8,49,1623718794.0,32.000000
-40,-8,49,1623718794.0,32.000000
-40,-8,49,1623718794.0,32.000000
-40,-8,50,1623718794.0,32.000000
-40,-8,49,1623718794.0,32.000000
-40,-8,49,1623718794.0,32.000000
-40,-8,50,1623718794.0,32.000000
-40,-8,50,1623718794.0,32.000000
-40,-8,50,1623718794.0,32.000000
-40,-8,49,1623718794.0,32.000000
-40,-8,49,1623718794.0,32.000000
-40,-8,50,1623718794.0,32.000000
-40,-8,49,1623718794.0,32.000000
-40,-8,49,1623718794.0,32.000000
-40,-8,49,1623718794.0,32.000000
-40,-8,49,1623718794.0,32.000000
-40,-8,49,1623718794.0,32.000000
-40,-7,49,1623718794.0,32.000000
-40,-8,50,1623718794.0,32.000000
-40,-8,49,1623718794.0,32.000000
-40,-8,49,1623718794.0,32.000000
-40,-8,49,1623718794.0,32.000000
-40,-8,49,1623718794.0,32.000000
-40,-8,49,1623718794.0,32.000000
-40,-8,49,1623718794.0,32.000000
-40,-8,49,1623718794.0,32.000000
-40,-8,49,1623718794.0,32.000000
-40,-8,50,1623718794.0,32.000000
-40,-8,50,1623718794.0,32.000000
-40,-8,49,1623718794.0,32.000000
-40,-8,49,1623718794.0,32.000000
-40,-8,49,1623718794.0,32.000000
-40,-8,49,1623718794.0,32.000000
-40,-8,50,1623718794.0,32.000000
-40,-8,49,1623718794.0,32.000000
-40,-8,49,1623718794.0,32.000000
-40,-8,50,1623718794.0,32.000000
-40,-8,49,1623718794.0,32.000000
-40,-8,49,1623718794.0,32.000000
-40,-8,50,1623718794.0,32.000000
-40,-8,50,1623718794.0,32.000000
-40,-8,49,1623718794.0,32.000000
-40,-8,49,1623718794.0,32.000000
-40,-8,49,1623718794.0,32.000000
-40,-8,49,1623718794.0,32.000000
-40,-8,50,1623718794.0,32.000000
-40,-8,50,1623718794.0,32.000000
-40,-8,49,1623718794.0,32.000000
-40,-8,50,1623718794.0,32.000000
-40,-8,50,1623718794.0,32.000000
-40,-8,49,1623718794.0,32.000000
-40,-8,50,1623718794.0,32.000000
-40,-8,49,1623718794.0,32.000000
-40,-8,50,1623718794.0,32.000000
-40,-8,49,1623718794.0,32.000000
-40,-8,49,1623718794.0,32.000000
-40,-8,50,1623718794.0,32.000000
-40,-8,50,1623718794.0,32.000000
-40,-8,50,1623718794.0,32.000000
-40,-8,49,1623718794.0,32.000000
-40,-8,49,1623718794.0,32.000000
-40,-8,50,1623718794.0,32.000000
-40,-8,49,1623718794.0,32.000000
-40,-8,50,1623718794.0,32.000000
-40,-8,49,1623718794.0,32.000000
-40,-8,49,1623718794.0,32.000000
-40,-8,50,1623718794.0,32.000000
-40,-8,49,1623718794.0,32.000000
-40,-8,49,1623718794.0,32.000000
-40,-8,50,1623718794.0,32.000000
-40,-8,49,1623718794.0,32.000000
-40,-8,49,1623718794.0,32.000000
-40,-8,49,1623718794.0,32.000000
-40,-8,50,1623718794.0,32.000000
-40,-8,49,1623718794.0,32.000000
-40,-8,50,1623718794.0,32.000000
-40,-8,49,1623718794.0,32.000000
-40,-8,50,1623718794.0,32.000000
-40,-8,49,1623718794.0,32.000000
-40,-8,49,1623718794.0,32.000000
-40,-8,49,1623718794.0,32.000000
-40,-8,49,1623718794.0,32.000000
-39,-8,50,1623718794.0,32.000000
-40,-8,49,1623718794.0,32.000000
-40,-8,49,1623718794.0,32.000000
-39,-8,50,1623718794.0,32.000000
-40,-8,49,1623718794.0,32.000000
-40,-8,49,1623718794.0,32.000000
-39,-8,50,1623718794.0,32.000000
-40,-8,49,1623718794.0,32.000000
-40,-8,50,1623718794.0,32.000000
-40,-8,49,1623718794.0,32.000000
-40,-8,49,1623718794.0,32.000000
-40,-8,50,1623718794.0,32.000000
-40,-8,49,1623718794.0,32.000000
-40,-8,50,1623718794.0,32.000000
-40,-8,50,1623718794.0,32.000000
-40,-8,49,1623718794.0,32.000000
-40,-8,49,1623718794.0,32.000000
-40,-8,50,1623718794.0,32.000000
-40,-8,49,1623718794.0,32.000000
-40,-8,50,1623718794.0,32.000000
-40,-8,50,1623718794.0,32.000000
-40,-8,50,1623718794.0,32.000000
-40,-8,50,1623718794.0,32.000000
-40,-8,49,1623718794.0,32.000000
-40,-8,50,1623718794.0,32.000000
-40,-8,49,1623718794.0,32.000000
-40,-8,50,1623718794.0,32.000000
-39,-8,50,1623718794.0,32.000000
-40,-8,49,1623718794.0,32.000000
-40,-8,49,1623718794.0,32.000000
-40,-8,49,1623718794.0,32.000000
-40,-8,50,1623718794.0,32.000000
-40,-8,49,1623718794.0,32.000000
-40,-8,49,1623718794.0,32.000000
-40,-8,50,1623718794.0,32.000000
-40,-8,49,1623718794.0,32.000000
-40,-8,49,1623718794.0,32.000000
-40,-8,49,1623718794.0,32.000000
-40,-8,49,1623718794.0,32.000000
-40,-8,49,1623718794.0,32.000000
-39,-8,50,1623718794.0,32.000000
-40,-8,49,1623718794.0,32.000000
-40,-8,49,1623718794.0,32.000000
-40,-8,50,1623718794.0,32.000000
-40,-8,50,1623718794.0,32.000000
-39,-8,50,1623718794.0,32.000000
-40,-8,49,1623718794.0,32.000000
-40,-8,49,1623718794.0,32.000000
-40,-8,49,1623718794.0,32.000000
-39,-8,49,1623718794.0,32.000000
-40,-8,50,1623718794.0,32.000000
-40,-8,49,1623718794.0,32.000000
-40,-8,50,1623718794.0,32.000000
-40,-8,50,1623718794.0,32.000000
-40,-8,50,1623718794.0,32.000000
-40,-8,49,1623718794.0,32.000000
-40,-8,49,1623718794.0,32.000000
-40,-8,50,1623718794.0,32.000000
-40,-8,49,1623718794.0,32.000000
-40,-8,49,1623718794.0,32.000000
-40,-8,50,1623718794.0,32.000000
-40,-8,49,1623718794.0,32.000000
-40,-8,50,1623718794.0,32.000000
-40,-8,49,1623718794.0,32.000000
-40,-8,49,1623718794.0,32.000000
-40,-8,49,1623718794.0,32.000000
-40,-8,49,1623718794.0,32.000000
-40,-8,50,1623718794.0,32.000000
-40,-8,49,1623718794.0,32.000000
-40,-8,49,1623718794.0,32.000000
-40,-8,50,1623718794.0,32.000000
-40,-8,49,1623718794.0,32.000000
-39,-8,50,1623718794.0,32.000000
-40,-8,50,1623718794.0,32.000000
-40,-8,50,1623718794.0,32.000000
-40,-8,50,1623718794.0,32.000000
-40,-8,49,1623718794.0,32.000000
-40,-8,49,1623718794.0,32.000000
-40,-8,49,1623718794.0,32.000000
-40,-8,50,1623718794.0,32.000000
-40,-8,50,1623718794.0,32.000000
-40,-8,49,1623718794.0,32.000000
-40,-8,50,1623718794.0,32.000000
-40,-8,50,1623718794.0,32.000000
-40,-8,49,1623718794.0,32.000000
-40,-8,50,1623718794.0,32.000000
-39,-8,50,1623718794.0,32.000000
-40,-8,49,1623718794.0,32.000000
-40,-8,50,1623718794.0,32.000000
-40,-8,49,1623718794.0,32.000000
-40,-8,50,1623718794.0,32.000000
-39,-8,50,1623718794.0,32.000000
-40,-8,49,1623718794.0,32.000000
-39,-8,49,1623718794.0,32.000000
-40,-8,50,1623718794.0,32.000000
-40,-8,49,1623718794.0,32.000000
-40,-8,50,1623718794.0,32.000000
-40,-8,49,1623718794.0,32.000000
-40,-8,50,1623718794.0,32.000000
-40,-8,50,1623718794.0,32.000000
-40,-8,49,1623718794.0,32.000000
-40,-8,50,1623718794.0,32.000000
-40,-8,50,1623718794.0,32.000000
-40,-8,49,1623718794.0,32.000000
-40,-8,50,1623718794.0,32.000000
-40,-8,49,1623718794.0,32.000000
-40,-8,50,1623718794.0,32.000000
-40,-8,50,1623718794.0,32.000000
-39,-8,49,1623718794.0,32.000000
-40,-8,49,1623718794.0,32.000000
-40,-8,49,1623718794.0,32.000000
-39,-8,50,1623718794.0,32.000000
-40,-8,50,1623718794.0,32.000000
-40,-8,49,1623718794.0,32.000000
-39,-8,50,1623718794.0,32.000000
-40,-8,50,1623718794.0,32.000000
-40,-8,50,1623718794.0,32.000000
-40,-8,49,1623718794.0,32.000000
-40,-8,50,1623718794.0,32.000000
-40,-8,49,1623718794.0,32.000000
-40,-8,50,1623718794.0,32.000000
-40,-8,50,1623718794.0,32.000000
-40,-8,49,1623718794.0,32.000000
-40,-8,49,1623718794.0,32.000000
-40,-8,49,1623718794.0,32.000000
-40,-8,50,1623718794.0,32.000000
-40,-8,49,1623718794.0,32.000000
-40,-8,50,1623718794.0,32.000000
-40,-8,49,1623718794.0,32.000000
-40,-8,49,1623718794.0,32.000000
-39,-8,50,1623718794.0,32.000000
-40,-8,49,1623718794.0,32.000000
-40,-8,50,1623718794.0,32.000000
-40,-8,49,1623718794.0,32.000000
-40,-8,49,1623718794.0,32.000000
-40,-8,50,1623718794.0,32.000000
-40,-8,49,1623718794.0,32.000000
-40,-8,49,1623718794.0,32.000000
-40,-8,50,1623718794.0,32.000000
-40,-8,49,1623718794.0,32.000000
-40,-8,50,1623718794.0,32.000000
-40,-8,50,1623718794.0,32.000000
-40,-8,49,1623718794.0,32.000000
-40,-8,49,1623718794.0,32.000000
-40,-8,49,1623718794.0,32.000000
-40,-8,49,1623718794.0,32.000000
-40,-8,49,1623718794.0,32.000000
-40,-8,50,1623718794.0,32.000000
-40,-8,50,1623718794.0,32.000000
-40,-8,49,1623718794.0,32.000000
-40,-8,50,1623718794.0,32.000000
-40,-8,49,1623718794.0,32.000000
-40,-8,49,1623718794.0,32.000000
-40,-8,49,1623718794.0,32.000000
-40,-8,49,1623718794.0,32.000000
-40,-8,49,1623718794.0,32.000000
-40,-8,49,1623718794.0,32.000000
-40,-8,50,1623718794.0,32.000000
-40,-8,49,1623718794.0,32.000000
-40,-8,50,1623718794.0,32.000000
-40,-8,50,1623718794.0,32.000000
-40,-8,49,1623718794.0,32.000000
-40,-8,49,1623718794.0,32.000000
-40,-8,49,1623718794.0,32.000000
-40,-8,49,1623718794.0,32.000000
-40,-8,50,1623718794.0,32.000000
-40,-8,49,1623718794.0,32.000000
-39,-8,50,1623718794.0,32.000000
-40,-8,49,1623718794.0,32.000000
-40,-8,50,1623718794.0,32.000000
-40,-8,49,1623718794.0,32.000000
-40,-8,49,1623718794.0,32.000000
-40,-8,49,1623718794.0,32.000000
-40,-8,49,1623718794.0,32.000000
-40,-8,49,1623718794.0,32.000000
-40,-8,49,1623718794.0,32.000000
-40,-8,49,1623718794.0,32.000000
-40,-8,49,1623718794.0,32.000000
-40,-8,49,1623718794.0,32.000000
-40,-8,50,1623718794.0,32.000000
-40,-8,49,1623718794.0,32.000000
-40,-8,50,1623718794.0,32.000000
-40,-8,49,1623718794.0,32.000000
-40,-8,49,1623718794.0,32.000000
-40,-8,50,1623718794.0,32.000000
-40,-8,49,1623718794.0,32.000000
-40,-8,50,1623718794.0,32.000000
-40,-8,49,1623718794.0,32.000000
-41,-8,49,1623718794.0,32.000000
-40,-8,50,1623718794.0,32.000000
-40,-8,49,1623718794.0,32.000000
-40,-8,49,1623718794.0,32.000000
-40,-8,49,1623718794.0,32.000000
-40,-8,49,1623718794.0,32.000000
-40,-8,49,1623718794.0,32.000000
-40,-8,49,1623718794.0,32.000000
-40,-8,49,1623718794.0,32.000000
-40,-8,49,1623718794.0,32.000000
-40,-8,49,1623718794.0,32.000000
-40,-8,50,1623718794.0,32.000000
-40,-8,49,1623718794.0,32.000000
-40,-8,49,1623718794.0,32.000000
-40,-8,49,1623718794.0,32.000000
-40,-8,49,1623718794.0,32.000000
-40,-8,49,1623718794.0,32.000000
-40,-8,49,1623718794.0,32.000000
-40,-8,49,1623718794.0,32.000000
-40,-8,49,1623718794.0,32.000000
-40,-8,49,1623718794.0,32.000000
-40,-8,50,1623718794.0,32.000000
-40,-8,49,1623718794.0,32.000000
-40,-8,49,1623718794.0,32.000000
-40,-8,49,1623718794.0,32.000000
-40,-8,49,1623718794.0,32.000000
-40,-8,50,1623718794.0,32.000000
-40,-8,49,1623718794.0,32.000000
-40,-8,49,1623718794.0,32.000000
-40,-8,49,1623718794.0,32.000000
-40,-8,50,1623718794.0,32.000000
-40,-8,50,1623718794.0,32.000000
-40,-8,49,1623718794.0,32.000000
-40,-8,49,1623718794.0,32.000000
-40,-8,49,1623718794.0,32.000000
-40,-8,49,1623718794.0,32.000000
-40,-8,49,1623718794.0,32.000000
-40,-8,49,1623718794.0,32.000000
-40,-8,49,1623718794.0,32.000000
-40,-8,49,1623718794.0,32.000000
-40,-8,49,1623718794.0,32.000000
-40,-8,49,1623718794.0,32.000000
-40,-8,50,1623718794.0,32.000000
-40,-8,49,1623718794.0,32.000000
-40,-8,49,1623718794.0,32.000000
-40,-8,50,1623718794.0,32.000000
-40,-8,49,1623718794.0,32.000000
-40,-8,49,1623718794.0,32.000000
-41,-8,49,1623718794.0,32.000000
-39,-8,49,1623718794.0,32.000000
-40,-8,50,1623718794.0,32.000000
-39,-8,49,1623718794.0,32.000000
-40,-8,50,1623718794.0,32.000000
-40,-9,49,1623718794.0,32.000000
-41,-8,49,1623718794.0,32.000000
-39,-8,49,1623718794.0,32.000000
-40,-8,50,1623718794.0,32.000000
-40,-8,49,1623718794.0,32.000000
-40,-8,49,1623718794.0,32.000000
-40,-8,50,1623718794.0,32.000000
-40,-8,49,1623718794.0,32.000000
-39,-8,50,1623718794.0,32.000000
-40,-8,49,1623718794.0,32.000000
-41,-8,49,1623718794.0,32.000000
-40,-8,49,1623718794.0,32.000000
-40,-8,49,1623718794.0,32.000000
-40,-8,49,1623718794.0,32.000000
-40,-8,49,1623718794.0,32.000000
-40,-8,49,1623718794.0,32.000000
-40,-8,50,1623718794.0,32.000000
-40,-8,49,1623718794.0,32.000000
-40,-8,49,1623718794.0,32.000000
-40,-8,50,1623718794.0,32.000000
-40,-8,49,1623718794.0,32.000000
-40,-8,49,1623718794.0,32.000000
-40,-8,49,1623718794.0,32.000000
-40,-8,49,1623718794.0,32.000000
-40,-8,50,1623718794.0,32.000000
-40,-8,50,1623718794.0,32.000000
-40,-8,49,1623718794.0,32.000000
-40,-8,49,1623718794.0,32.000000
-40,-8,49,1623718794.0,32.000000
-40,-8,49,1623718794.0,32.000000
-40,-8,49,1623718794.0,32.000000
-40,-8,50,1623718794.0,32.000000
-40,-8,49,1623718794.0,32.000000
-40,-8,50,1623718794.0,32.000000
-40,-8,49,1623718794.0,32.000000
-40,-8,49,1623718794.0,32.000000
-40,-8,49,1623718794.0,32.000000
-40,-8,49,1623718794.0,32.000000
-40,-8,49,1623718794.0,32.000000
-40,-8,49,1623718794.0,32.000000
-40,-8,49,1623718794.0,32.000000
-40,-8,49,1623718794.0,32.000000
-40,-8,50,1623718794.0,32.000000
-40,-8,49,1623718794.0,32.000000
-40,-8,49,1623718794.0,32.000000
-40,-8,49,1623718794.0,32.000000
-40,-8,49,1623718794.0,32.000000
-40,-8,49,1623718794.0,32.000000
-40,-8,49,1623718794.0,32.000000
-40,-8,49,1623718794.0,32.000000
-40,-8,49,1623718794.0,32.000000
-40,-8,49,1623718794.0,32.000000
-40,-8,50,1623718794.0,32.000000
-40,-8,49,1623718794.0,32.000000
-40,-8,50,1623718794.0,32.000000
-40,-8,49,1623718794.0,32.000000
-40,-8,49,1623718794.0,32.000000
-40,-8,49,1623718794.0,32.000000
-39,-8,49,1623718794.0,32.000000
-40,-8,49,1623718794.0,32.000000
-40,-8,50,1623718794.0,32.000000
-40,-8,49,1623718794.0,32.000000
-40,-8,49,1623718794.0,32.000000
-40,-8,50,1623718794.0,32.000000
-40,-8,49,1623718794.0,32.000000
-40,-8,49,1623718794.0,32.000000
-40,-8,49,1623718794.0,32.000000
-40,-8,49,1623718794.0,32.000000
-40,-8,49,1623718794.0,32.000000
-40,-8,49,1623718794.0,32.000000
-40,-8,49,1623718794.0,32.000000
-40,-8,49,1623718794.0,32.000000
-39,-8,50,1623718794.0,32.000000
-40,-8,49,1623718794.0,32.000000
-40,-8,50,1623718794.0,32.000000
-40,-8,49,1623718794.0,32.000000
-40,-8,50,1623718794.0,32.000000
-40,-8,50,1623718794.0,32.000000
-40,-8,49,1623718794.0,32.000000
-39,-8,50,1623718794.0,32.000000
-40,-8,49,1623718794.0,32.000000
-40,-8,49,1623718794.0,32.000000
-40,-8,49,1623718794.0,32.000000
-40,-8,49,1623718794.0,32.000000
-40,-8,49,1623718794.0,32.000000
-40,-8,49,1623718794.0,32.000000
-40,-8,49,1623718794.0,32.000000
-40,-8,49,1623718794.0,32.000000
-40,-8,49,1623718794.0,32.000000
-40,-8,49,1623718794.0,32.000000
-40,-8,50,1623718794.0,32.000000
-40,-8,49,1623718794.0,32.000000
-40,-8,49,1623718794.0,32.000000
-40,-8,50,1623718794.0,32.000000
-40,-8,49,1623718794.0,32.000000
-40,-8,49,1623718794.0,32.000000
-40,-8,49,1623718794.0,32.000000
-40,-8,49,1623718794.0,32.000000
-39,-8,50,1623718794.0,32.000000
-40,-8,49,1623718794.0,32.000000
-40,-8,49,1623718794.0,32.000000
-40,-8,49,1623718794.0,32.000000
-40,-8,49,1623718794.0,32.000000
-40,-8,49,1623718794.0,32.000000
-40,-8,49,1623718794.0,32.000000
-40,-8,49,1623718794.0,32.000000
-40,-8,49,1623718794.0,32.000000
-40,-8,49,1623718794.0,32.000000
-40,-8,50,1623718794.0,32.000000
-40,-8,49,1623718794.0,32.000000
-40,-8,49,1623718794.0,32.000000
-40,-8,49,1623718794.0,32.000000
-40,-8,49,1623718794.0,32.000000
-40,-8,50,1623718794.0,32.000000
-39,-8,50,1623718794.0,32.000000
-40,-8,50,1623718794.0,32.000000
