ACC_X,ACC_Y,ACC_Z,start_time_unix,sampling_rate
-29,-2,56,1624890619.0,32.000000
-29,-2,56,1624890619.0,32.000000
-29,-2,56,1624890619.0,32.000000
-29,-2,56,1624890619.0,32.000000
-29,-3,56,1624890619.0,32.000000
-29,-2,56,1624890619.0,32.000000
-29,-2,56,1624890619.0,32.000000
-28,-2,56,1624890619.0,32.000000
-28,-1,55,1624890619.0,32.000000
-29,-1,56,1624890619.0,32.000000
-29,-2,55,1624890619.0,32.000000
-30,-1,55,1624890619.0,32.000000
-29,-2,57,1624890619.0,32.000000
-29,-1,55,1624890619.0,32.000000
-29,-2,55,1624890619.0,32.000000
-28,0,57,1624890619.0,32.000000
-30,-1,56,1624890619.0,32.000000
-31,-1,56,1624890619.0,32.000000
-32,-1,52,1624890619.0,32.000000
-27,0,56,1624890619.0,32.000000
-26,-2,59,1624890619.0,32.000000
-29,0,58,1624890619.0,32.000000
-28,-1,59,1624890619.0,32.000000
-23,-1,60,1624890619.0,32.000000
-23,1,59,1624890619.0,32.000000
-24,1,58,1624890619.0,32.000000
-22,5,57,1624890619.0,32.000000
-21,5,58,1624890619.0,32.000000
-22,6,57,1624890619.0,32.000000
-25,6,57,1624890619.0,32.000000
-26,6,56,1624890619.0,32.000000
-21,4,60,1624890619.0,32.000000
-21,5,59,1624890619.0,32.000000
-22,4,59,1624890619.0,32.000000
-19,5,60,1624890619.0,32.000000
-18,5,62,1624890619.0,32.000000
-18,4,61,1624890619.0,32.000000
-19,4,59,1624890619.0,32.000000
-20,4,60,1624890619.0,32.000000
-23,4,60,1624890619.0,32.000000
-23,4,60,1624890619.0,32.000000
-23,4,58,1624890619.0,32.000000
-21,5,60,1624890619.0,32.000000
-20,4,59,1624890619.0,32.000000
-20,4,60,1624890619.0,32.000000
-21,4,60,1624890619.0,32.000000
-26,4,57,1624890619.0,32.000000
-26,4,57,1624890619.0,32.000000
-25,4,57,1624890619.0,32.000000
-25,4,58,1624890619.0,32.000000
-25,4,57,1624890619.0,32.000000
-26,4,57,1624890619.0,32.000000
-26,4,58,1624890619.0,32.000000
-26,4,58,1624890619.0,32.000000
-26,3,58,1624890619.0,32.000000
-26,3,59,1624890619.0,32.000000
-25,3,57,1624890619.0,32.000000
-25,4,58,1624890619.0,32.000000
-24,5,57,1624890619.0,32.000000
-25,4,57,1624890619.0,32.000000
-25,4,57,1624890619.0,32.000000
-26,3,58,1624890619.0,32.000000
-26,4,58,1624890619.0,32.000000
-26,4,58,1624890619.0,32.000000
-25,4,58,1624890619.0,32.000000
-26,4,58,1624890619.0,32.000000
-25,4,57,1624890619.0,32.000000
-25,4,58,1624890619.0,32.000000
-25,4,58,1624890619.0,32.000000
-26,4,58,1624890619.0,32.000000
-25,4,57,1624890619.0,32.000000
-26,4,58,1624890619.0,32.000000
-25,4,58,1624890619.0,32.000000
-26,3,57,1624890619.0,32.000000
-26,3,58,1624890619.0,32.000000
-26,4,57,1624890619.0,32.000000
-26,4,57,1624890619.0,32.000000
-25,4,58,1624890619.0,32.000000
-26,4,58,1624890619.0,32.000000
-26,4,58,1624890619.0,32.000000
-25,3,58,1624890619.0,32.000000
-26,4,58,1624890619.0,32.000000
-25,4,57,1624890619.0,32.000000
-25,4,58,1624890619.0,32.000000
-26,3,57,1624890619.0,32.000000
-26,3,58,1624890619.0,32.000000
-26,4,58,1624890619.0,32.000000
-26,4,57,1624890619.0,32.000000
-25,4,57,1624890619.0,32.000000
-25,4,57,1624890619.0,32.000000
-25,4,58,1624890619.0,32.000000
-25,3,58,1624890619.0,32.000000
-26,3,58,1624890619.0,32.000000
-26,4,58,1624890619.0,32.000000
-25,4,58,1624890619.0,32.000000
-25,4,57,1624890619.0,32.000000
-25,4,57,1624890619.0,32.000000
-25,4,58,1624890619.0,32.000000
-26,3,58,1624890619.0,32.000000
-26,4,58,1624890619.0,32.000000
-26,4,58,1624890619.0,32.000000
-26,4,57,1624890619.0,32.000000
-26,3,58,1624890619.0,32.000000
-26,4,58,1624890619.0,32.000000
-26,4,58,1624890619.0,32.000000
-26,4,58,1624890619.0,32.000000
-26,4,58,1624890619.0,32.000000
-25,4,58,1624890619.0,32.000000
-25,4,57,1624890619.0,32.000000
-26,3,58,1624890619.0,32.000000
-26,3,58,1624890619.0,32.000000
-26,3,58,1624890619.0,32.000000
-26,3,57,1624890619.0,32.000000
-26,4,58,1624890619.0,32.000000
-26,4,57,1624890619.0,32.000000
-26,5,56,1624890619.0,32.000000
-24,5,59,1624890619.0,32.000000
-26,5,58,1624890619.0,32.000000
-27,5,57,1624890619.0,32.000000
-26,6,55,1624890619.0,32.000000
-26,6,57,1624890619.0,32.000000
-25,4,58,1624890619.0,32.000000
-29,4,54,1624890619.0,32.000000
-30,2,51,1624890619.0,32.000000
-28,-6,62,1624890619.0,32.000000
-29,-5,64,1624890619.0,32.000000
-28,-2,56,1624890619.0,32.000000
-26,1,55,1624890619.0,32.000000
-25,1,56,1624890619.0,32.000000
-24,0,58,1624890619.0,32.000000
-26,0,59,1624890619.0,32.000000
-29,0,57,1624890619.0,32.000000
-31,1,57,1624890619.0,32.000000
-27,1,58,1624890619.0,32.000000
-29,2,56,1624890619.0,32.000000
-26,3,58,1624890619.0,32.000000
-27,2,60,1624890619.0,32.000000
-24,3,57,1624890619.0,32.000000
-21,2,51,1624890619.0,32.000000
-29,4,54,1624890619.0,32.000000
-29,4,59,1624890619.0,32.000000
-31,0,59,1624890619.0,32.000000
-30,2,52,1624890619.0,32.000000
-28,-1,56,1624890619.0,32.000000
-29,-2,61,1624890619.0,32.000000
-25,-1,62,1624890619.0,32.000000
-26,-3,59,1624890619.0,32.000000
-27,-2,57,1624890619.0,32.000000
-30,0,55,1624890619.0,32.000000
-29,0,55,1624890619.0,32.000000
-27,0,55,1624890619.0,32.000000
-27,1,55,1624890619.0,32.000000
-27,1,55,1624890619.0,32.000000
-29,0,55,1624890619.0,32.000000
-30,-3,58,1624890619.0,32.000000
-30,-5,59,1624890619.0,32.000000
-33,-2,55,1624890619.0,32.000000
-33,-2,54,1624890619.0,32.000000
-30,-2,55,1624890619.0,32.000000
-29,-1,56,1624890619.0,32.000000
-27,-2,56,1624890619.0,32.000000
-26,-1,57,1624890619.0,32.000000
-27,-2,56,1624890619.0,32.000000
-28,-2,56,1624890619.0,32.000000
-29,-2,55,1624890619.0,32.000000
-31,-1,55,1624890619.0,32.000000
-30,0,55,1624890619.0,32.000000
-32,-3,54,1624890619.0,32.000000
-32,0,55,1624890619.0,32.000000
-34,-1,54,1624890619.0,32.000000
-37,-2,53,1624890619.0,32.000000
-31,2,56,1624890619.0,32.000000
-33,-3,56,1624890619.0,32.000000
-32,-1,53,1624890619.0,32.000000
-32,-1,54,1624890619.0,32.000000
-34,0,51,1624890619.0,32.000000
-33,-1,53,1624890619.0,32.000000
-34,-2,53,1624890619.0,32.000000
-35,-2,53,1624890619.0,32.000000
-35,-2,54,1624890619.0,32.000000
-35,-2,52,1624890619.0,32.000000
-37,-3,52,1624890619.0,32.000000
-36,-2,52,1624890619.0,32.000000
-38,-4,51,1624890619.0,32.000000
-37,-4,52,1624890619.0,32.000000
-38,-4,53,1624890619.0,32.000000
-47,-6,49,1624890619.0,32.000000
-56,-11,43,1624890619.0,32.000000
-56,-10,49,1624890619.0,32.000000
-42,-9,45,1624890619.0,32.000000
-16,-3,54,1624890619.0,32.000000
-22,7,55,1624890619.0,32.000000
-25,7,51,1624890619.0,32.000000
-20,9,56,1624890619.0,32.000000
-14,11,59,1624890619.0,32.000000
-8,7,60,1624890619.0,32.000000
-35,7,54,1624890619.0,32.000000
-14,0,60,1624890619.0,32.000000
-14,-1,65,1624890619.0,32.000000
-19,4,59,1624890619.0,32.000000
-18,-2,52,1624890619.0,32.000000
-15,-11,68,1624890619.0,32.000000
-7,2,73,1624890619.0,32.000000
-5,-1,62,1624890619.0,32.000000
-11,-5,61,1624890619.0,32.000000
-14,-8,64,1624890619.0,32.000000
-11,-5,64,1624890619.0,32.000000
-9,-8,64,1624890619.0,32.000000
-9,-8,65,1624890619.0,32.000000
-9,-16,53,1624890619.0,32.000000
0,-19,55,1624890619.0,32.000000
0,-23,58,1624890619.0,32.000000
-2,-20,61,1624890619.0,32.000000
6,-20,67,1624890619.0,32.000000
1,-18,68,1624890619.0,32.000000
-19,-12,67,1624890619.0,32.000000
-26,-12,66,1624890619.0,32.000000
-26,-8,62,1624890619.0,32.000000
-21,-3,57,1624890619.0,32.000000
-18,-2,53,1624890619.0,32.000000
-25,3,57,1624890619.0,32.000000
-30,0,57,1624890619.0,32.000000
-37,2,54,1624890619.0,32.000000
-32,-1,54,1624890619.0,32.000000
-31,-4,54,1624890619.0,32.000000
-29,-6,54,1624890619.0,32.000000
-31,-6,56,1624890619.0,32.000000
-29,-6,58,1624890619.0,32.000000
-25,-5,57,1624890619.0,32.000000
-24,-4,58,1624890619.0,32.000000
-25,-3,57,1624890619.0,32.000000
-23,-5,58,1624890619.0,32.000000
-23,-5,58,1624890619.0,32.000000
-24,-5,57,1624890619.0,32.000000
-25,-4,57,1624890619.0,32.000000
-26,-5,57,1624890619.0,32.000000
-26,-6,58,1624890619.0,32.000000
-25,-5,57,1624890619.0,32.000000
-24,-4,58,1624890619.0,32.000000
-24,-4,58,1624890619.0,32.000000
-26,-5,58,1624890619.0,32.000000
-26,-6,58,1624890619.0,32.000000
-26,-6,58,1624890619.0,32.000000
-26,-5,57,1624890619.0,32.000000
-25,-4,57,1624890619.0,32.000000
-25,-4,57,1624890619.0,32.000000
-25,-4,57,1624890619.0,32.000000
-25,-4,58,1624890619.0,32.000000
-24,-5,58,1624890619.0,32.000000
-26,-5,57,1624890619.0,32.000000
-25,-5,58,1624890619.0,32.000000
-26,-5,57,1624890619.0,32.000000
-25,-4,56,1624890619.0,32.000000
-27,-2,55,1624890619.0,32.000000
-30,-2,55,1624890619.0,32.000000
-33,-1,55,1624890619.0,32.000000
-30,6,53,1624890619.0,32.000000
-37,5,57,1624890619.0,32.000000
-43,-1,57,1624890619.0,32.000000
-24,-2,64,1624890619.0,32.000000
-18,-3,64,1624890619.0,32.000000
-17,-7,59,1624890619.0,32.000000
-16,-12,55,1624890619.0,32.000000
-19,6,59,1624890619.0,32.000000
-14,-17,61,1624890619.0,32.000000
-21,-15,56,1624890619.0,32.000000
-6,-22,57,1624890619.0,32.000000
0,-25,57,1624890619.0,32.000000
-9,-22,55,1624890619.0,32.000000
0,-21,62,1624890619.0,32.000000
1,-13,65,1624890619.0,32.000000
-8,-11,63,1624890619.0,32.000000
-19,-5,65,1624890619.0,32.000000
-21,-4,63,1624890619.0,32.000000
-13,0,60,1624890619.0,32.000000
-12,-9,59,1624890619.0,32.000000
-6,0,63,1624890619.0,32.000000
-9,-18,62,1624890619.0,32.000000
-11,-17,62,1624890619.0,32.000000
14,-10,78,1624890619.0,32.000000
-21,-6,52,1624890619.0,32.000000
-7,-11,66,1624890619.0,32.000000
-14,-10,61,1624890619.0,32.000000
-11,-7,60,1624890619.0,32.000000
-10,-8,61,1624890619.0,32.000000
-11,-10,62,1624890619.0,32.000000
-10,-9,62,1624890619.0,32.000000
-11,-10,61,1624890619.0,32.000000
-10,-10,63,1624890619.0,32.000000
-12,-10,61,1624890619.0,32.000000
-11,-8,61,1624890619.0,32.000000
-11,-8,61,1624890619.0,32.000000
-12,-10,61,1624890619.0,32.000000
-11,-10,63,1624890619.0,32.000000
-11,-10,62,1624890619.0,32.000000
-11,-9,61,1624890619.0,32.000000
-12,-9,61,1624890619.0,32.000000
-11,-9,61,1624890619.0,32.000000
-12,-8,60,1624890619.0,32.000000
-9,-8,61,1624890619.0,32.000000
-12,-9,61,1624890619.0,32.000000
-11,-9,61,1624890619.0,32.000000
-11,-8,62,1624890619.0,32.000000
-12,-10,61,1624890619.0,32.000000
-11,-9,61,1624890619.0,32.000000
-11,-10,62,1624890619.0,32.000000
-11,-9,61,1624890619.0,32.000000
-11,-9,61,1624890619.0,32.000000
-12,-9,61,1624890619.0,32.000000
-11,-9,62,1624890619.0,32.000000
-11,-9,62,1624890619.0,32.000000
-11,-9,62,1624890619.0,32.000000
-11,-9,61,1624890619.0,32.000000
-11,-9,62,1624890619.0,32.000000
-11,-9,61,1624890619.0,32.000000
-11,-9,62,1624890619.0,32.000000
-12,-9,61,1624890619.0,32.000000
-12,-9,61,1624890619.0,32.000000
-12,-9,61,1624890619.0,32.000000
-12,-9,62,1624890619.0,32.000000
-11,-9,61,1624890619.0,32.000000
-11,-10,62,1624890619.0,32.000000
-11,-9,62,1624890619.0,32.000000
-11,-10,61,1624890619.0,32.000000
-12,-10,61,1624890619.0,32.000000
-13,-10,62,1624890619.0,32.000000
-12,-9,61,1624890619.0,32.000000
-11,-9,61,1624890619.0,32.000000
-11,-9,61,1624890619.0,32.000000
-11,-9,61,1624890619.0,32.000000
-11,-9,61,1624890619.0,32.000000
-12,-9,61,1624890619.0,32.000000
-11,-9,62,1624890619.0,32.000000
-11,-11,60,1624890619.0,32.000000
-12,-8,62,1624890619.0,32.000000
-16,-2,59,1624890619.0,32.000000
-17,-11,57,1624890619.0,32.000000
-3,-8,68,1624890619.0,32.000000
-15,-15,60,1624890619.0,32.000000
-12,-7,60,1624890619.0,32.000000
-13,-10,63,1624890619.0,32.000000
-12,-10,61,1624890619.0,32.000000
-11,-9,61,1624890619.0,32.000000
-11,-10,61,1624890619.0,32.000000
-12,-9,61,1624890619.0,32.000000
-12,-9,61,1624890619.0,32.000000
-12,-9,61,1624890619.0,32.000000
-12,-9,61,1624890619.0,32.000000
-12,-9,61,1624890619.0,32.000000
-11,-10,62,1624890619.0,32.000000
-11,-9,61,1624890619.0,32.000000
-12,-10,62,1624890619.0,32.000000
-11,-9,62,1624890619.0,32.000000
-11,-9,61,1624890619.0,32.000000
-11,-10,62,1624890619.0,32.000000
-19,6,62,1624890619.0,32.000000
1,-37,65,1624890619.0,32.000000
-23,6,51,1624890619.0,32.000000
-15,-8,60,1624890619.0,32.000000
-14,-9,62,1624890619.0,32.000000
-11,-8,61,1624890619.0,32.000000
-10,-9,62,1624890619.0,32.000000
-11,-9,61,1624890619.0,32.000000
-12,-10,61,1624890619.0,32.000000
-12,-10,62,1624890619.0,32.000000
-11,-9,61,1624890619.0,32.000000
-12,-9,61,1624890619.0,32.000000
-12,-10,62,1624890619.0,32.000000
-11,-9,61,1624890619.0,32.000000
-11,-9,62,1624890619.0,32.000000
-11,-10,61,1624890619.0,32.000000
-12,-13,62,1624890619.0,32.000000
-12,-11,62,1624890619.0,32.000000
-11,-11,61,1624890619.0,32.000000
-11,-9,61,1624890619.0,32.000000
-11,-10,61,1624890619.0,32.000000
-11,-10,62,1624890619.0,32.000000
-10,-10,61,1624890619.0,32.000000
-9,-11,61,1624890619.0,32.000000
-8,-10,62,1624890619.0,32.000000
-6,-13,63,1624890619.0,32.000000
-13,-9,61,1624890619.0,32.000000
-16,-9,61,1624890619.0,32.000000
-28,-7,57,1624890619.0,32.000000
-36,-3,56,1624890619.0,32.000000
-42,-2,51,1624890619.0,32.000000
-43,-2,46,1624890619.0,32.000000
-48,-2,41,1624890619.0,32.000000
-56,-1,35,1624890619.0,32.000000
-62,1,24,1624890619.0,32.000000
-58,-1,18,1624890619.0,32.000000
-40,-7,37,1624890619.0,32.000000
-38,-3,47,1624890619.0,32.000000
-33,-5,54,1624890619.0,32.000000
-31,-5,56,1624890619.0,32.000000
-39,-5,57,1624890619.0,32.000000
-41,-11,53,1624890619.0,32.000000
-24,-9,49,1624890619.0,32.000000
-26,-8,50,1624890619.0,32.000000
-41,-9,54,1624890619.0,32.000000
-43,-8,55,1624890619.0,32.000000
-37,-4,54,1624890619.0,32.000000
-34,-5,52,1624890619.0,32.000000
-32,-4,53,1624890619.0,32.000000
-30,-5,55,1624890619.0,32.000000
-31,-6,54,1624890619.0,32.000000
-33,-7,52,1624890619.0,32.000000
-31,-9,50,1624890619.0,32.000000
-31,-7,49,1624890619.0,32.000000
-32,-1,51,1624890619.0,32.000000
-36,-5,53,1624890619.0,32.000000
-32,-6,59,1624890619.0,32.000000
-31,-7,58,1624890619.0,32.000000
-32,-5,56,1624890619.0,32.000000
-34,-10,54,1624890619.0,32.000000
-35,-8,55,1624890619.0,32.000000
-34,-8,54,1624890619.0,32.000000
-33,0,48,1624890619.0,32.000000
-36,1,50,1624890619.0,32.000000
-37,-7,59,1624890619.0,32.000000
-33,-9,57,1624890619.0,32.000000
-29,-10,54,1624890619.0,32.000000
-36,-4,52,1624890619.0,32.000000
-39,-7,51,1624890619.0,32.000000
-41,-5,58,1624890619.0,32.000000
-33,-7,60,1624890619.0,32.000000
-37,-6,60,1624890619.0,32.000000
-36,-1,43,1624890619.0,32.000000
-46,1,33,1624890619.0,32.000000
-41,9,43,1624890619.0,32.000000
-46,-4,28,1624890619.0,32.000000
-46,-7,28,1624890619.0,32.000000
-49,-10,15,1624890619.0,32.000000
-40,-9,22,1624890619.0,32.000000
-44,-9,27,1624890619.0,32.000000
-55,-20,51,1624890619.0,32.000000
-58,-24,62,1624890619.0,32.000000
-44,-11,68,1624890619.0,32.000000
-38,-3,54,1624890619.0,32.000000
-38,2,49,1624890619.0,32.000000
-35,12,50,1624890619.0,32.000000
-30,7,52,1624890619.0,32.000000
-27,-4,57,1624890619.0,32.000000
-33,-9,55,1624890619.0,32.000000
-32,-9,55,1624890619.0,32.000000
-35,-10,51,1624890619.0,32.000000
-35,-9,52,1624890619.0,32.000000
-35,-7,53,1624890619.0,32.000000
-34,-5,53,1624890619.0,32.000000
-34,-5,53,1624890619.0,32.000000
-35,-5,52,1624890619.0,32.000000
-34,-8,53,1624890619.0,32.000000
-34,-8,53,1624890619.0,32.000000
-34,-8,52,1624890619.0,32.000000
-35,-6,52,1624890619.0,32.000000
-36,-6,52,1624890619.0,32.000000
-35,-6,52,1624890619.0,32.000000
-34,-7,53,1624890619.0,32.000000
-34,-8,53,1624890619.0,32.000000
-34,-7,53,1624890619.0,32.000000
-34,-7,52,1624890619.0,32.000000
-35,-6,53,1624890619.0,32.000000
-35,-7,53,1624890619.0,32.000000
-34,-7,52,1624890619.0,32.000000
-34,-7,52,1624890619.0,32.000000
-35,-7,53,1624890619.0,32.000000
-34,-7,53,1624890619.0,32.000000
-34,-7,52,1624890619.0,32.000000
-35,-7,52,1624890619.0,32.000000
-34,-7,53,1624890619.0,32.000000
-34,-7,53,1624890619.0,32.000000
-34,-7,53,1624890619.0,32.000000
-34,-7,52,1624890619.0,32.000000
-34,-7,53,1624890619.0,32.000000
-34,-7,53,1624890619.0,32.000000
-34,-7,53,1624890619.0,32.000000
-34,-7,53,1624890619.0,32.000000
-34,-7,52,1624890619.0,32.000000
-34,-7,53,1624890619.0,32.000000
-34,-7,53,1624890619.0,32.000000
-34,-7,53,1624890619.0,32.000000
-34,-7,53,1624890619.0,32.000000
-34,-7,52,1624890619.0,32.000000
-34,-7,53,1624890619.0,32.000000
-34,-7,53,1624890619.0,32.000000
-34,-7,53,1624890619.0,32.000000
-34,-7,53,1624890619.0,32.000000
-34,-7,53,1624890619.0,32.000000
-34,-7,53,1624890619.0,32.000000
-34,-7,53,1624890619.0,32.000000
-34,-7,52,1624890619.0,32.000000
-34,-7,53,1624890619.0,32.000000
-34,-7,53,1624890619.0,32.000000
-34,-7,53,1624890619.0,32.000000
-34,-7,52,1624890619.0,32.000000
-34,-7,52,1624890619.0,32.000000
-34,-7,53,1624890619.0,32.000000
-34,-7,53,1624890619.0,32.000000
-35,-7,53,1624890619.0,32.000000
-34,-7,53,1624890619.0,32.000000
-35,-7,52,1624890619.0,32.000000
-34,-7,52,1624890619.0,32.000000
-34,-7,53,1624890619.0,32.000000
-34,-7,52,1624890619.0,32.000000
-34,-7,52,1624890619.0,32.000000
-34,-7,52,1624890619.0,32.000000
-34,-7,53,1624890619.0,32.000000
-35,-7,52,1624890619.0,32.000000
-34,-7,52,1624890619.0,32.000000
-34,-7,53,1624890619.0,32.000000
-34,-7,52,1624890619.0,32.000000
-34,-7,53,1624890619.0,32.000000
-34,-7,53,1624890619.0,32.000000
-34,-7,52,1624890619.0,32.000000
-35,-7,52,1624890619.0,32.000000
-34,-7,53,1624890619.0,32.000000
-34,-7,52,1624890619.0,32.000000
-34,-7,52,1624890619.0,32.000000
-34,-7,53,1624890619.0,32.000000
-34,-7,53,1624890619.0,32.000000
-34,-7,53,1624890619.0,32.000000
-34,-7,52,1624890619.0,32.000000
-34,-7,52,1624890619.0,32.000000
-34,-7,53,1624890619.0,32.000000
-34,-7,53,1624890619.0,32.000000
-34,-7,53,1624890619.0,32.000000
-34,-7,53,1624890619.0,32.000000
-34,-7,53,1624890619.0,32.000000
-35,-7,52,1624890619.0,32.000000
-35,-7,52,1624890619.0,32.000000
-34,-7,53,1624890619.0,32.000000
-34,-7,52,1624890619.0,32.000000
-34,-7,52,1624890619.0,32.000000
-34,-7,53,1624890619.0,32.000000
-34,-7,52,1624890619.0,32.000000
-34,-7,52,1624890619.0,32.000000
-34,-7,53,1624890619.0,32.000000
-34,-7,53,1624890619.0,32.000000
-34,-7,53,1624890619.0,32.000000
-34,-7,53,1624890619.0,32.000000
-34,-7,52,1624890619.0,32.000000
-34,-7,53,1624890619.0,32.000000
-34,-7,53,1624890619.0,32.000000
-34,-7,52,1624890619.0,32.000000
-34,-7,53,1624890619.0,32.000000
-34,-7,53,1624890619.0,32.000000
-34,-7,53,1624890619.0,32.000000
-34,-7,52,1624890619.0,32.000000
-34,-7,53,1624890619.0,32.000000
-34,-7,53,1624890619.0,32.000000
-34,-7,53,1624890619.0,32.000000
-34,-7,52,1624890619.0,32.000000
-34,-7,53,1624890619.0,32.000000
-33,-6,53,1624890619.0,32.000000
-34,-7,53,1624890619.0,32.000000
-35,-7,52,1624890619.0,32.000000
-35,-7,52,1624890619.0,32.000000
-35,-7,52,1624890619.0,32.000000
-34,-7,53,1624890619.0,32.000000
-34,-7,53,1624890619.0,32.000000
-34,-7,53,1624890619.0,32.000000
-34,-7,53,1624890619.0,32.000000
-34,-7,53,1624890619.0,32.000000
-34,-7,53,1624890619.0,32.000000
-34,-7,53,1624890619.0,32.000000
-34,-7,53,1624890619.0,32.000000
-34,-7,53,1624890619.0,32.000000
-34,-7,53,1624890619.0,32.000000
-34,-7,52,1624890619.0,32.000000
-34,-7,53,1624890619.0,32.000000
-34,-7,53,1624890619.0,32.000000
-34,-7,53,1624890619.0,32.000000
-34,-7,53,1624890619.0,32.000000
-34,-7,53,1624890619.0,32.000000
-34,-7,53,1624890619.0,32.000000
-34,-7,53,1624890619.0,32.000000
-34,-7,53,1624890619.0,32.000000
-34,-7,52,1624890619.0,32.000000
-34,-7,53,1624890619.0,32.000000
-34,-7,53,1624890619.0,32.000000
-34,-7,53,1624890619.0,32.000000
-34,-7,53,1624890619.0,32.000000
-34,-7,53,1624890619.0,32.000000
-34,-7,53,1624890619.0,32.000000
-34,-7,53,1624890619.0,32.000000
-34,-7,53,1624890619.0,32.000000
-34,-7,53,1624890619.0,32.000000
-34,-7,53,1624890619.0,32.000000
-34,-7,53,1624890619.0,32.000000
-34,-7,53,1624890619.0,32.000000
-33,-7,53,1624890619.0,32.000000
-34,-7,53,1624890619.0,32.000000
-34,-7,53,1624890619.0,32.000000
-34,-7,53,1624890619.0,32.000000
-34,-7,53,1624890619.0,32.000000
-34,-7,53,1624890619.0,32.000000
-34,-7,52,1624890619.0,32.000000
-34,-7,53,1624890619.0,32.000000
-34,-7,52,1624890619.0,32.000000
-33,-7,53,1624890619.0,32.000000
-35,-7,53,1624890619.0,32.000000
-34,-7,53,1624890619.0,32.000000
-33,-7,53,1624890619.0,32.000000
-34,-7,52,1624890619.0,32.000000
-34,-7,54,1624890619.0,32.000000
-34,-7,54,1624890619.0,32.000000
-32,-6,53,1624890619.0,32.000000
-33,-7,52,1624890619.0,32.000000
-34,-7,53,1624890619.0,32.000000
-34,-7,53,1624890619.0,32.000000
-34,-7,53,1624890619.0,32.000000
-34,-7,53,1624890619.0,32.000000
-34,-7,52,1624890619.0,32.000000
-34,-7,52,1624890619.0,32.000000
-34,-7,53,1624890619.0,32.000000
-34,-7,53,1624890619.0,32.000000
-34,-7,53,1624890619.0,32.000000
-34,-7,54,1624890619.0,32.000000
-34,-7,53,1624890619.0,32.000000
-34,-7,53,1624890619.0,32.000000
-34,-7,53,1624890619.0,32.000000
-34,-7,53,1624890619.0,32.000000
-35,-7,52,1624890619.0,32.000000
-33,-7,52,1624890619.0,32.000000
-35,-7,52,1624890619.0,32.000000
-34,-7,53,1624890619.0,32.000000
-34,-7,53,1624890619.0,32.000000
-34,-8,52,1624890619.0,32.000000
-34,-7,53,1624890619.0,32.000000
-34,-8,53,1624890619.0,32.000000
-35,-7,52,1624890619.0,32.000000
-34,-8,51,1624890619.0,32.000000
-35,-7,51,1624890619.0,32.000000
-34,-8,53,1624890619.0,32.000000
-34,-7,52,1624890619.0,32.000000
-34,-7,52,1624890619.0,32.000000
-34,-7,52,1624890619.0,32.000000
-34,-8,53,1624890619.0,32.000000
-35,-9,54,1624890619.0,32.000000
-36,-9,53,1624890619.0,32.000000
-33,-7,52,1624890619.0,32.000000
-34,-7,52,1624890619.0,32.000000
-32,-8,55,1624890619.0,32.000000
-30,-7,56,1624890619.0,32.000000
-33,-7,55,1624890619.0,32.000000
-32,-7,54,1624890619.0,32.000000
-32,-7,52,1624890619.0,32.000000
-32,-7,53,1624890619.0,32.000000
-32,-7,53,1624890619.0,32.000000
-33,-7,53,1624890619.0,32.000000
-33,-7,53,1624890619.0,32.000000
-33,-8,53,1624890619.0,32.000000
-34,-8,53,1624890619.0,32.000000
-34,-7,53,1624890619.0,32.000000
-34,-7,53,1624890619.0,32.000000
-34,-7,53,1624890619.0,32.000000
-33,-7,54,1624890619.0,32.000000
-33,-8,53,1624890619.0,32.000000
-32,-7,52,1624890619.0,32.000000
-33,-7,52,1624890619.0,32.000000
-33,-7,53,1624890619.0,32.000000
-33,-8,52,1624890619.0,32.000000
-33,-7,52,1624890619.0,32.000000
-32,-9,55,1624890619.0,32.000000
-33,-8,56,1624890619.0,32.000000
-30,-8,55,1624890619.0,32.000000
-32,-7,54,1624890619.0,32.000000
-31,-7,54,1624890619.0,32.000000
-32,-6,54,1624890619.0,32.000000
-32,-7,52,1624890619.0,32.000000
-30,-8,54,1624890619.0,32.000000
-31,-8,54,1624890619.0,32.000000
-32,-7,54,1624890619.0,32.000000
-32,-8,54,1624890619.0,32.000000
-34,-8,53,1624890619.0,32.000000
-32,-7,54,1624890619.0,32.000000
-33,-7,54,1624890619.0,32.000000
-33,-8,55,1624890619.0,32.000000
-32,-7,53,1624890619.0,32.000000
-32,-7,53,1624890619.0,32.000000
-32,-8,54,1624890619.0,32.000000
-32,-7,54,1624890619.0,32.000000
-32,-7,54,1624890619.0,32.000000
-32,-7,54,1624890619.0,32.000000
-32,-8,54,1624890619.0,32.000000
-32,-7,54,1624890619.0,32.000000
-32,-7,53,1624890619.0,32.000000
-32,-7,54,1624890619.0,32.000000
-32,-7,54,1624890619.0,32.000000
-32,-8,54,1624890619.0,32.000000
-31,-8,54,1624890619.0,32.000000
-31,-8,53,1624890619.0,32.000000
-31,-7,54,1624890619.0,32.000000
-31,-7,54,1624890619.0,32.000000
-31,-8,55,1624890619.0,32.000000
-31,-7,55,1624890619.0,32.000000
-32,-8,55,1624890619.0,32.000000
-30,-8,55,1624890619.0,32.000000
-30,-9,55,1624890619.0,32.000000
-32,-8,54,1624890619.0,32.000000
-32,-7,53,1624890619.0,32.000000
-32,-7,53,1624890619.0,32.000000
-31,-6,54,1624890619.0,32.000000
-30,-6,55,1624890619.0,32.000000
-30,-7,54,1624890619.0,32.000000
-32,-8,55,1624890619.0,32.000000
-33,-8,54,1624890619.0,32.000000
-32,-8,54,1624890619.0,32.000000
-32,-7,54,1624890619.0,32.000000
-31,-7,54,1624890619.0,32.000000
-31,-7,55,1624890619.0,32.000000
-31,-7,54,1624890619.0,32.000000
-31,-8,54,1624890619.0,32.000000
-31,-7,54,1624890619.0,32.000000
-31,-8,54,1624890619.0,32.000000
-31,-7,54,1624890619.0,32.000000
-31,-7,54,1624890619.0,32.000000
-31,-8,55,1624890619.0,32.000000
-31,-8,54,1624890619.0,32.000000
-32,-8,54,1624890619.0,32.000000
-31,-8,54,1624890619.0,32.000000
-31,-8,54,1624890619.0,32.000000
-32,-8,54,1624890619.0,32.000000
-31,-8,54,1624890619.0,32.000000
-31,-8,55,1624890619.0,32.000000
-31,-8,54,1624890619.0,32.000000
-31,-8,54,1624890619.0,32.000000
-31,-8,55,1624890619.0,32.000000
-31,-8,54,1624890619.0,32.000000
-30,-8,53,1624890619.0,32.000000
-30,-8,54,1624890619.0,32.000000
-34,-8,56,1624890619.0,32.000000
-34,-8,53,1624890619.0,32.000000
-30,-7,52,1624890619.0,32.000000
-32,-8,53,1624890619.0,32.000000
-32,-10,56,1624890619.0,32.000000
-32,-8,53,1624890619.0,32.000000
-31,-7,53,1624890619.0,32.000000
-32,-8,54,1624890619.0,32.000000
-31,-8,54,1624890619.0,32.000000
-33,-8,54,1624890619.0,32.000000
-32,-8,54,1624890619.0,32.000000
-32,-9,54,1624890619.0,32.000000
-33,-8,54,1624890619.0,32.000000
-32,-8,53,1624890619.0,32.000000
-32,-7,53,1624890619.0,32.000000
-32,-8,54,1624890619.0,32.000000
-32,-8,54,1624890619.0,32.000000
-31,-8,54,1624890619.0,32.000000
-32,-8,54,1624890619.0,32.000000
-32,-8,53,1624890619.0,32.000000
-33,-7,53,1624890619.0,32.000000
-34,-7,53,1624890619.0,32.000000
-32,-7,54,1624890619.0,32.000000
-32,-8,54,1624890619.0,32.000000
-32,-8,54,1624890619.0,32.000000
-32,-7,53,1624890619.0,32.000000
-32,-8,54,1624890619.0,32.000000
-32,-8,54,1624890619.0,32.000000
-32,-8,54,1624890619.0,32.000000
-32,-8,54,1624890619.0,32.000000
-32,-8,54,1624890619.0,32.000000
-32,-8,54,1624890619.0,32.000000
-32,-8,54,1624890619.0,32.000000
-32,-8,54,1624890619.0,32.000000
-32,-8,54,1624890619.0,32.000000
-32,-8,54,1624890619.0,32.000000
-32,-8,54,1624890619.0,32.000000
-32,-8,54,1624890619.0,32.000000
-32,-8,54,1624890619.0,32.000000
-32,-8,54,1624890619.0,32.000000
-32,-8,54,1624890619.0,32.000000
-32,-8,54,1624890619.0,32.000000
-32,-8,54,1624890619.0,32.000000
-32,-8,54,1624890619.0,32.000000
-32,-8,54,1624890619.0,32.000000
-32,-8,54,1624890619.0,32.000000
-32,-8,54,1624890619.0,32.000000
-32,-8,54,1624890619.0,32.000000
-32,-8,54,1624890619.0,32.000000
-32,-8,54,1624890619.0,32.000000
-32,-8,54,1624890619.0,32.000000
-32,-8,54,1624890619.0,32.000000
-32,-8,54,1624890619.0,32.000000
-32,-8,54,1624890619.0,32.000000
-32,-8,54,1624890619.0,32.000000
-32,-8,54,1624890619.0,32.000000
-32,-8,54,1624890619.0,32.000000
-32,-8,54,1624890619.0,32.000000
-32,-8,54,1624890619.0,32.000000
-32,-8,54,1624890619.0,32.000000
-32,-8,54,1624890619.0,32.000000
-32,-8,54,1624890619.0,32.000000
-32,-8,54,1624890619.0,32.000000
-32,-8,54,1624890619.0,32.000000
-32,-8,54,1624890619.0,32.000000
-32,-8,54,1624890619.0,32.000000
-32,-8,53,1624890619.0,32.000000
-32,-8,54,1624890619.0,32.000000
-32,-8,54,1624890619.0,32.000000
-32,-8,53,1624890619.0,32.000000
-32,-8,54,1624890619.0,32.000000
-32,-8,54,1624890619.0,32.000000
-33,-8,53,1624890619.0,32.000000
-32,-7,54,1624890619.0,32.000000
-32,-8,54,1624890619.0,32.000000
-32,-8,53,1624890619.0,32.000000
-33,-8,53,1624890619.0,32.000000
-33,-8,54,1624890619.0,32.000000
-32,-8,53,1624890619.0,32.000000
-32,-8,54,1624890619.0,32.000000
-32,-7,53,1624890619.0,32.000000
-33,-7,53,1624890619.0,32.000000
-33,-8,53,1624890619.0,32.000000
-33,-8,53,1624890619.0,32.000000
-33,-8,54,1624890619.0,32.000000
-32,-8,54,1624890619.0,32.000000
-32,-8,54,1624890619.0,32.000000
-32,-8,54,1624890619.0,32.000000
-32,-8,54,1624890619.0,32.000000
-32,-8,54,1624890619.0,32.000000
-32,-8,54,1624890619.0,32.000000
-32,-8,53,1624890619.0,32.000000
-32,-8,54,1624890619.0,32.000000
-32,-8,54,1624890619.0,32.000000
-32,-8,54,1624890619.0,32.000000
-32,-8,54,1624890619.0,32.000000
-32,-8,54,1624890619.0,32.000000
-32,-8,54,1624890619.0,32.000000
-32,-8,54,1624890619.0,32.000000
-32,-8,54,1624890619.0,32.000000
-32,-8,54,1624890619.0,32.000000
-32,-8,54,1624890619.0,32.000000
-32,-8,54,1624890619.0,32.000000
-32,-8,54,1624890619.0,32.000000
-32,-8,54,1624890619.0,32.000000
-32,-8,54,1624890619.0,32.000000
-32,-8,54,1624890619.0,32.000000
-32,-8,54,1624890619.0,32.000000
-32,-8,54,1624890619.0,32.000000
-32,-8,54,1624890619.0,32.000000
-32,-8,54,1624890619.0,32.000000
-32,-8,54,1624890619.0,32.000000
-32,-8,54,1624890619.0,32.000000
-33,-8,54,1624890619.0,32.000000
-32,-8,54,1624890619.0,32.000000
-32,-7,54,1624890619.0,32.000000
-32,-7,54,1624890619.0,32.000000
-32,-8,54,1624890619.0,32.000000
-33,-8,53,1624890619.0,32.000000
-33,-8,54,1624890619.0,32.000000
-32,-8,54,1624890619.0,32.000000
-32,-8,54,1624890619.0,32.000000
-32,-8,54,1624890619.0,32.000000
-32,-8,54,1624890619.0,32.000000
-32,-7,54,1624890619.0,32.000000
-32,-7,54,1624890619.0,32.000000
-32,-8,54,1624890619.0,32.000000
-32,-8,54,1624890619.0,32.000000
-32,-8,54,1624890619.0,32.000000
-32,-8,54,1624890619.0,32.000000
-32,-8,53,1624890619.0,32.000000
-32,-8,54,1624890619.0,32.000000
-32,-8,54,1624890619.0,32.000000
-32,-8,54,1624890619.0,32.000000
-32,-8,54,1624890619.0,32.000000
-32,-8,54,1624890619.0,32.000000
-32,-8,54,1624890619.0,32.000000
-32,-8,54,1624890619.0,32.000000
-32,-8,54,1624890619.0,32.000000
-32,-8,54,1624890619.0,32.000000
-32,-8,54,1624890619.0,32.000000
-32,-7,53,1624890619.0,32.000000
-32,-8,53,1624890619.0,32.000000
-32,-8,53,1624890619.0,32.000000
-32,-8,54,1624890619.0,32.000000
-32,-8,54,1624890619.0,32.000000
-32,-8,54,1624890619.0,32.000000
-32,-8,54,1624890619.0,32.000000
-32,-8,54,1624890619.0,32.000000
-32,-8,54,1624890619.0,32.000000
-32,-8,54,1624890619.0,32.000000
-32,-8,53,1624890619.0,32.000000
-32,-8,54,1624890619.0,32.000000
-32,-8,54,1624890619.0,32.000000
-33,-8,53,1624890619.0,32.000000
-32,-8,53,1624890619.0,32.000000
-32,-8,54,1624890619.0,32.000000
-33,-8,53,1624890619.0,32.000000
-32,-8,54,1624890619.0,32.000000
-33,-8,53,1624890619.0,32.000000
-32,-8,54,1624890619.0,32.000000
-32,-8,54,1624890619.0,32.000000
-32,-8,54,1624890619.0,32.000000
-32,-8,54,1624890619.0,32.000000
-33,-8,53,1624890619.0,32.000000
-32,-8,54,1624890619.0,32.000000
-33,-8,53,1624890619.0,32.000000
-32,-8,53,1624890619.0,32.000000
-32,-8,54,1624890619.0,32.000000
-32,-8,54,1624890619.0,32.000000
-32,-8,54,1624890619.0,32.000000
-32,-8,54,1624890619.0,32.000000
-32,-8,54,1624890619.0,32.000000
-32,-8,54,1624890619.0,32.000000
-32,-7,53,1624890619.0,32.000000
-32,-8,53,1624890619.0,32.000000
-32,-8,54,1624890619.0,32.000000
-32,-8,54,1624890619.0,32.000000
-32,-8,54,1624890619.0,32.000000
-32,-8,54,1624890619.0,32.000000
-33,-7,54,1624890619.0,32.000000
-32,-9,54,1624890619.0,32.000000
-32,-8,54,1624890619.0,32.000000
-32,-8,54,1624890619.0,32.000000
-32,-8,54,1624890619.0,32.000000
-32,-8,54,1624890619.0,32.000000
-32,-8,53,1624890619.0,32.000000
-32,-8,54,1624890619.0,32.000000
-32,-8,54,1624890619.0,32.000000
-32,-8,54,1624890619.0,32.000000
-32,-8,54,1624890619.0,32.000000
-32,-7,54,1624890619.0,32.000000
-32,-8,54,1624890619.0,32.000000
-32,-8,54,1624890619.0,32.000000
-32,-8,54,1624890619.0,32.000000
-32,-8,54,1624890619.0,32.000000
-32,-8,54,1624890619.0,32.000000
-32,-8,54,1624890619.0,32.000000
-32,-8,54,1624890619.0,32.000000
-32,-8,54,1624890619.0,32.000000
-32,-8,54,1624890619.0,32.000000
-32,-8,54,1624890619.0,32.000000
-32,-8,54,1624890619.0,32.000000
-32,-8,54,1624890619.0,32.000000
-32,-8,53,1624890619.0,32.000000
-32,-8,54,1624890619.0,32.000000
-32,-8,54,1624890619.0,32.000000
-32,-8,54,1624890619.0,32.000000
-32,-8,54,1624890619.0,32.000000
-32,-8,54,1624890619.0,32.000000
-32,-8,54,1624890619.0,32.000000
-32,-8,54,1624890619.0,32.000000
-32,-8,54,1624890619.0,32.000000
-32,-8,54,1624890619.0,32.000000
-32,-8,54,1624890619.0,32.000000
-32,-8,54,1624890619.0,32.000000
-32,-8,54,1624890619.0,32.000000
-32,-8,54,1624890619.0,32.000000
-32,-8,53,1624890619.0,32.000000
-32,-8,54,1624890619.0,32.000000
-32,-8,53,1624890619.0,32.000000
-32,-8,54,1624890619.0,32.000000
-32,-7,54,1624890619.0,32.000000
-32,-8,53,1624890619.0,32.000000
-32,-7,53,1624890619.0,32.000000
-32,-8,54,1624890619.0,32.000000
-32,-8,54,1624890619.0,32.000000
-32,-8,54,1624890619.0,32.000000
-32,-8,54,1624890619.0,32.000000
-32,-8,54,1624890619.0,32.000000
-33,-8,54,1624890619.0,32.000000
-32,-7,54,1624890619.0,32.000000
-33,-8,54,1624890619.0,32.000000
-32,-8,53,1624890619.0,32.000000
-32,-8,54,1624890619.0,32.000000
-32,-8,54,1624890619.0,32.000000
-32,-8,53,1624890619.0,32.000000
-32,-8,54,1624890619.0,32.000000
-32,-8,54,1624890619.0,32.000000
-32,-8,54,1624890619.0,32.000000
-32,-8,53,1624890619.0,32.000000
-32,-8,53,1624890619.0,32.000000
-32,-8,54,1624890619.0,32.000000
-32,-8,54,1624890619.0,32.000000
-32,-8,54,1624890619.0,32.000000
-32,-8,54,1624890619.0,32.000000
-32,-8,54,1624890619.0,32.000000
-32,-8,54,1624890619.0,32.000000
-32,-8,54,1624890619.0,32.000000
-32,-8,54,1624890619.0,32.000000
-32,-8,54,1624890619.0,32.000000
-32,-8,54,1624890619.0,32.000000
-32,-8,54,1624890619.0,32.000000
-32,-8,54,1624890619.0,32.000000
-32,-8,54,1624890619.0,32.000000
-32,-8,54,1624890619.0,32.000000
-32,-8,54,1624890619.0,32.000000
-32,-8,54,1624890619.0,32.000000
-32,-8,54,1624890619.0,32.000000
-32,-8,53,1624890619.0,32.000000
-32,-8,54,1624890619.0,32.000000
-32,-8,54,1624890619.0,32.000000
-32,-8,54,1624890619.0,32.000000
-32,-8,54,1624890619.0,32.000000
-32,-8,54,1624890619.0,32.000000
-32,-8,54,1624890619.0,32.000000
-32,-8,54,1624890619.0,32.000000
-32,-8,54,1624890619.0,32.000000
-32,-8,54,1624890619.0,32.000000
-32,-8,54,1624890619.0,32.000000
-32,-8,54,1624890619.0,32.000000
-32,-8,54,1624890619.0,32.000000
-32,-8,54,1624890619.0,32.000000
-32,-8,54,1624890619.0,32.000000
-32,-8,54,1624890619.0,32.000000
-32,-8,54,1624890619.0,32.000000
-32,-8,54,1624890619.0,32.000000
-32,-8,53,1624890619.0,32.000000
-32,-8,54,1624890619.0,32.000000
-32,-8,54,1624890619.0,32.000000
-32,-8,53,1624890619.0,32.000000
-33,-8,54,1624890619.0,32.000000
-32,-8,53,1624890619.0,32.000000
-32,-8,54,1624890619.0,32.000000
-32,-8,54,1624890619.0,32.000000
-32,-8,54,1624890619.0,32.000000
-32,-8,54,1624890619.0,32.000000
-32,-8,54,1624890619.0,32.000000
-32,-8,53,1624890619.0,32.000000
-33,-8,53,1624890619.0,32.000000
-32,-7,54,1624890619.0,32.000000
-32,-8,53,1624890619.0,32.000000
-33,-8,53,1624890619.0,32.000000
-32,-8,53,1624890619.0,32.000000
-32,-8,54,1624890619.0,32.000000
-32,-8,53,1624890619.0,32.000000
-32,-8,54,1624890619.0,32.000000
-32,-8,54,1624890619.0,32.000000
-32,-8,54,1624890619.0,32.000000
-32,-8,54,1624890619.0,32.000000
-32,-8,54,1624890619.0,32.000000
-32,-8,54,1624890619.0,32.000000
-32,-8,53,1624890619.0,32.000000
-32,-8,53,1624890619.0,32.000000
-32,-8,54,1624890619.0,32.000000
-32,-8,54,1624890619.0,32.000000
-32,-8,54,1624890619.0,32.000000
-32,-8,54,1624890619.0,32.000000
-32,-8,54,1624890619.0,32.000000
-32,-8,54,1624890619.0,32.000000
-32,-8,54,1624890619.0,32.000000
-32,-8,54,1624890619.0,32.000000
-32,-8,54,1624890619.0,32.000000
-32,-8,54,1624890619.0,32.000000
-32,-8,53,1624890619.0,32.000000
-32,-8,54,1624890619.0,32.000000
-32,-8,54,1624890619.0,32.000000
-32,-8,54,1624890619.0,32.000000
-32,-8,54,1624890619.0,32.000000
-32,-8,54,1624890619.0,32.000000
-32,-8,54,1624890619.0,32.000000
-32,-8,54,1624890619.0,32.000000
-32,-8,53,1624890619.0,32.000000
-32,-8,54,1624890619.0,32.000000
-32,-8,54,1624890619.0,32.000000
-32,-8,54,1624890619.0,32.000000
-32,-8,54,1624890619.0,32.000000
-32,-8,54,1624890619.0,32.000000
-32,-8,54,1624890619.0,32.000000
-32,-8,54,1624890619.0,32.000000
-32,-8,54,1624890619.0,32.000000
-32,-8,54,1624890619.0,32.000000
-32,-8,54,1624890619.0,32.000000
-32,-8,54,1624890619.0,32.000000
-32,-8,54,1624890619.0,32.000000
-32,-8,54,1624890619.0,32.000000
-32,-8,54,1624890619.0,32.000000
-32,-8,54,1624890619.0,32.000000
-32,-8,53,1624890619.0,32.000000
-32,-8,54,1624890619.0,32.000000
-32,-8,54,1624890619.0,32.000000
-32,-8,53,1624890619.0,32.000000
-32,-8,54,1624890619.0,32.000000
-32,-8,54,1624890619.0,32.000000
-32,-8,53,1624890619.0,32.000000
-32,-8,54,1624890619.0,32.000000
-32,-8,54,1624890619.0,32.000000
-33,-8,53,1624890619.0,32.000000
-33,-8,53,1624890619.0,32.000000
-32,-8,54,1624890619.0,32.000000
-32,-8,54,1624890619.0,32.000000
-32,-8,53,1624890619.0,32.000000
-33,-8,54,1624890619.0,32.000000
-33,-8,54,1624890619.0,32.000000
-32,-8,53,1624890619.0,32.000000
-33,-7,53,1624890619.0,32.000000
-33,-8,54,1624890619.0,32.000000
-32,-8,54,1624890619.0,32.000000
-32,-8,54,1624890619.0,32.000000
-33,-8,53,1624890619.0,32.000000
-32,-8,53,1624890619.0,32.000000
-32,-8,54,1624890619.0,32.000000
-32,-8,53,1624890619.0,32.000000
-32,-8,53,1624890619.0,32.000000
-32,-8,54,1624890619.0,32.000000
-32,-8,54,1624890619.0,32.000000
-32,-8,53,1624890619.0,32.000000
-32,-8,54,1624890619.0,32.000000
-33,-8,53,1624890619.0,32.000000
-32,-8,54,1624890619.0,32.000000
-32,-8,54,1624890619.0,32.000000
-32,-8,54,1624890619.0,32.000000
-32,-8,54,1624890619.0,32.000000
-32,-8,54,1624890619.0,32.000000
-32,-8,54,1624890619.0,32.000000
-32,-8,54,1624890619.0,32.000000
-32,-8,54,1624890619.0,32.000000
-32,-8,54,1624890619.0,32.000000
-32,-8,54,1624890619.0,32.000000
-32,-8,54,1624890619.0,32.000000
-32,-8,54,1624890619.0,32.000000
-32,-8,54,1624890619.0,32.000000
-32,-8,53,1624890619.0,32.000000
-33,-8,54,1624890619.0,32.000000
-33,-8,54,1624890619.0,32.000000
-32,-8,54,1624890619.0,32.000000
-32,-8,54,1624890619.0,32.000000
-32,-8,54,1624890619.0,32.000000
-32,-8,53,1624890619.0,32.000000
-32,-8,54,1624890619.0,32.000000
-32,-8,54,1624890619.0,32.000000
-32,-8,54,1624890619.0,32.000000
-32,-8,54,1624890619.0,32.000000
-32,-8,54,1624890619.0,32.000000
-32,-8,54,1624890619.0,32.000000
-32,-8,54,1624890619.0,32.000000
-32,-8,54,1624890619.0,32.000000
-32,-8,54,1624890619.0,32.000000
-32,-8,54,1624890619.0,32.000000
-32,-8,54,1624890619.0,32.000000
-32,-8,53,1624890619.0,32.000000
-32,-8,54,1624890619.0,32.000000
-32,-8,54,1624890619.0,32.000000
-32,-8,54,1624890619.0,32.000000
-33,-8,53,1624890619.0,32.000000
-32,-8,53,1624890619.0,32.000000
-32,-8,54,1624890619.0,32.000000
-32,-8,53,1624890619.0,32.000000
-32,-8,54,1624890619.0,32.000000
-32,-8,54,1624890619.0,32.000000
-32,-8,54,1624890619.0,32.000000
-32,-8,54,1624890619.0,32.000000
-32,-8,54,1624890619.0,32.000000
-33,-7,54,1624890619.0,32.000000
-33,-8,54,1624890619.0,32.000000
-32,-8,53,1624890619.0,32.000000
-32,-8,54,1624890619.0,32.000000
-32,-8,53,1624890619.0,32.000000
-32,-8,54,1624890619.0,32.000000
-32,-8,53,1624890619.0,32.000000
-32,-8,54,1624890619.0,32.000000
-32,-8,53,1624890619.0,32.000000
-32,-8,53,1624890619.0,32.000000
-32,-8,54,1624890619.0,32.000000
-32,-8,54,1624890619.0,32.000000
-32,-8,53,1624890619.0,32.000000
-32,-8,54,1624890619.0,32.000000
-32,-8,54,1624890619.0,32.000000
-32,-8,54,1624890619.0,32.000000
-32,-8,54,1624890619.0,32.000000
-32,-8,53,1624890619.0,32.000000
-32,-8,54,1624890619.0,32.000000
-32,-8,54,1624890619.0,32.000000
-32,-8,54,1624890619.0,32.000000
-32,-8,53,1624890619.0,32.000000
-32,-8,54,1624890619.0,32.000000
-32,-8,54,1624890619.0,32.000000
-32,-8,53,1624890619.0,32.000000
-32,-8,54,1624890619.0,32.000000
-32,-8,54,1624890619.0,32.000000
-32,-8,54,1624890619.0,32.000000
-32,-8,54,1624890619.0,32.000000
-32,-8,54,1624890619.0,32.000000
-32,-8,54,1624890619.0,32.000000
-32,-8,54,1624890619.0,32.000000
-32,-8,54,1624890619.0,32.000000
-32,-8,54,1624890619.0,32.000000
-32,-8,54,1624890619.0,32.000000
-32,-8,54,1624890619.0,32.000000
-32,-8,54,1624890619.0,32.000000
-32,-8,54,1624890619.0,32.000000
-32,-8,54,1624890619.0,32.000000
-32,-8,53,1624890619.0,32.000000
-32,-8,54,1624890619.0,32.000000
-32,-8,53,1624890619.0,32.000000
-32,-8,54,1624890619.0,32.000000
-32,-8,54,1624890619.0,32.000000
-32,-8,54,1624890619.0,32.000000
-32,-8,54,1624890619.0,32.000000
-32,-8,54,1624890619.0,32.000000
-32,-7,53,1624890619.0,32.000000
-32,-8,54,1624890619.0,32.000000
-32,-8,54,1624890619.0,32.000000
-32,-8,54,1624890619.0,32.000000
-32,-8,54,1624890619.0,32.000000
-32,-8,54,1624890619.0,32.000000
-32,-8,53,1624890619.0,32.000000
-32,-8,54,1624890619.0,32.000000
-32,-8,54,1624890619.0,32.000000
-32,-8,54,1624890619.0,32.000000
-32,-8,54,1624890619.0,32.000000
-32,-8,54,1624890619.0,32.000000
-32,-8,54,1624890619.0,32.000000
-32,-8,54,1624890619.0,32.000000
-32,-8,54,1624890619.0,32.000000
-32,-8,54,1624890619.0,32.000000
-34,-8,53,1624890619.0,32.000000
-30,-8,55,1624890619.0,32.000000
-29,-6,53,1624890619.0,32.000000
-32,-10,56,1624890619.0,32.000000
-33,-7,54,1624890619.0,32.000000
-31,-7,54,1624890619.0,32.000000
-32,-8,53,1624890619.0,32.000000
-32,-9,53,1624890619.0,32.000000
-34,-9,53,1624890619.0,32.000000
-33,-8,53,1624890619.0,32.000000
-32,-8,53,1624890619.0,32.000000
-32,-8,54,1624890619.0,32.000000
-32,-7,54,1624890619.0,32.000000
-32,-7,54,1624890619.0,32.000000
-32,-9,54,1624890619.0,32.000000
-31,-8,54,1624890619.0,32.000000
-33,-8,54,1624890619.0,32.000000
-32,-8,54,1624890619.0,32.000000
-31,-7,54,1624890619.0,32.000000
-32,-8,54,1624890619.0,32.000000
-33,-7,54,1624890619.0,32.000000
-34,-8,53,1624890619.0,32.000000
-33,-8,54,1624890619.0,32.000000
-32,-8,53,1624890619.0,32.000000
-32,-8,54,1624890619.0,32.000000
-32,-8,54,1624890619.0,32.000000
-32,-7,53,1624890619.0,32.000000
-33,-7,54,1624890619.0,32.000000
-32,-7,53,1624890619.0,32.000000
-32,-8,54,1624890619.0,32.000000
-32,-8,54,1624890619.0,32.000000
-32,-8,53,1624890619.0,32.000000
-33,-8,53,1624890619.0,32.000000
-33,-8,54,1624890619.0,32.000000
-32,-8,54,1624890619.0,32.000000
-31,-8,54,1624890619.0,32.000000
-30,-7,54,1624890619.0,32.000000
-32,-7,54,1624890619.0,32.000000
-33,-7,53,1624890619.0,32.000000
-33,-8,53,1624890619.0,32.000000
-32,-8,54,1624890619.0,32.000000
-32,-8,54,1624890619.0,32.000000
-32,-8,54,1624890619.0,32.000000
-32,-7,54,1624890619.0,32.000000
-33,-8,53,1624890619.0,32.000000
-31,-9,55,1624890619.0,32.000000
-32,-8,54,1624890619.0,32.000000
-32,-8,54,1624890619.0,32.000000
-32,-8,54,1624890619.0,32.000000
-31,-8,54,1624890619.0,32.000000
-32,-8,54,1624890619.0,32.000000
-32,-8,54,1624890619.0,32.000000
-31,-6,51,1624890619.0,32.000000
-36,-8,60,1624890619.0,32.000000
-35,-3,53,1624890619.0,32.000000
-29,-5,54,1624890619.0,32.000000
-34,-8,54,1624890619.0,32.000000
-30,-9,53,1624890619.0,32.000000
-32,-9,55,1624890619.0,32.000000
-33,-8,54,1624890619.0,32.000000
-32,-8,54,1624890619.0,32.000000
-31,-8,54,1624890619.0,32.000000
-31,-7,54,1624890619.0,32.000000
-32,-8,54,1624890619.0,32.000000
-32,-8,54,1624890619.0,32.000000
-31,-8,54,1624890619.0,32.000000
-32,-8,54,1624890619.0,32.000000
-32,-8,54,1624890619.0,32.000000
-31,-8,54,1624890619.0,32.000000
-32,-8,54,1624890619.0,32.000000
-32,-7,54,1624890619.0,32.000000
-31,-8,54,1624890619.0,32.000000
-31,-8,55,1624890619.0,32.000000
-31,-8,54,1624890619.0,32.000000
-32,-7,54,1624890619.0,32.000000
-32,-8,53,1624890619.0,32.000000
-30,-8,55,1624890619.0,32.000000
-35,-8,53,1624890619.0,32.000000
-32,-7,54,1624890619.0,32.000000
-33,-8,53,1624890619.0,32.000000
-32,-9,54,1624890619.0,32.000000
-32,-8,55,1624890619.0,32.000000
-32,-8,54,1624890619.0,32.000000
-31,-8,53,1624890619.0,32.000000
-32,-9,54,1624890619.0,32.000000
-32,-9,53,1624890619.0,32.000000
-33,-9,53,1624890619.0,32.000000
-33,-9,53,1624890619.0,32.000000
-33,-9,53,1624890619.0,32.000000
-32,-8,53,1624890619.0,32.000000
-32,-9,54,1624890619.0,32.000000
-31,-9,55,1624890619.0,32.000000
-32,-8,54,1624890619.0,32.000000
-31,-7,54,1624890619.0,32.000000
-32,-6,53,1624890619.0,32.000000
-32,-7,53,1624890619.0,32.000000
-34,-8,52,1624890619.0,32.000000
-34,-8,53,1624890619.0,32.000000
-34,-8,53,1624890619.0,32.000000
-33,-8,54,1624890619.0,32.000000
-33,-9,54,1624890619.0,32.000000
-32,-9,53,1624890619.0,32.000000
-32,-8,53,1624890619.0,32.000000
-32,-7,54,1624890619.0,32.000000
-32,-8,54,1624890619.0,32.000000
-32,-8,55,1624890619.0,32.000000
-32,-8,54,1624890619.0,32.000000
-31,-8,54,1624890619.0,32.000000
-28,-7,54,1624890619.0,32.000000
-28,-7,54,1624890619.0,32.000000
-31,-8,55,1624890619.0,32.000000
-32,-8,55,1624890619.0,32.000000
-31,-8,54,1624890619.0,32.000000
-31,-8,54,1624890619.0,32.000000
-30,-8,54,1624890619.0,32.000000
-30,-8,55,1624890619.0,32.000000
-30,-8,55,1624890619.0,32.000000
-31,-8,54,1624890619.0,32.000000
-32,-8,54,1624890619.0,32.000000
-30,-8,55,1624890619.0,32.000000
-30,-8,55,1624890619.0,32.000000
-30,-8,55,1624890619.0,32.000000
-31,-8,55,1624890619.0,32.000000
-31,-8,54,1624890619.0,32.000000
-31,-8,54,1624890619.0,32.000000
-31,-8,55,1624890619.0,32.000000
-31,-8,54,1624890619.0,32.000000
-31,-8,54,1624890619.0,32.000000
-31,-8,54,1624890619.0,32.000000
-31,-8,54,1624890619.0,32.000000
-32,-8,54,1624890619.0,32.000000
-32,-7,54,1624890619.0,32.000000
-33,-8,54,1624890619.0,32.000000
-32,-8,54,1624890619.0,32.000000
-32,-8,54,1624890619.0,32.000000
-32,-9,54,1624890619.0,32.000000
-31,-8,54,1624890619.0,32.000000
-31,-8,54,1624890619.0,32.000000
-32,-8,54,1624890619.0,32.000000
-32,-8,54,1624890619.0,32.000000
-32,-8,54,1624890619.0,32.000000
-31,-8,54,1624890619.0,32.000000
-32,-8,54,1624890619.0,32.000000
-30,-8,54,1624890619.0,32.000000
-29,-8,53,1624890619.0,32.000000
-26,-8,56,1624890619.0,32.000000
-27,-9,58,1624890619.0,32.000000
-27,-9,58,1624890619.0,32.000000
-29,-11,57,1624890619.0,32.000000
-36,-7,48,1624890619.0,32.000000
-49,-7,41,1624890619.0,32.000000
-55,-2,28,1624890619.0,32.000000
-53,0,25,1624890619.0,32.000000
-54,4,27,1624890619.0,32.000000
-58,-1,30,1624890619.0,32.000000
-64,2,23,1624890619.0,32.000000
-51,0,23,1624890619.0,32.000000
-52,1,29,1624890619.0,32.000000
-52,-1,36,1624890619.0,32.000000
-39,-8,59,1624890619.0,32.000000
-49,-2,47,1624890619.0,32.000000
-47,-3,35,1624890619.0,32.000000
-51,-2,31,1624890619.0,32.000000
-55,0,35,1624890619.0,32.000000
-49,-2,34,1624890619.0,32.000000
-52,-2,38,1624890619.0,32.000000
-52,1,35,1624890619.0,32.000000
-39,2,47,1624890619.0,32.000000
-45,-2,43,1624890619.0,32.000000
-53,-1,52,1624890619.0,32.000000
-56,-3,44,1624890619.0,32.000000
-43,0,37,1624890619.0,32.000000
-49,1,37,1624890619.0,32.000000
-53,0,36,1624890619.0,32.000000
-50,0,37,1624890619.0,32.000000
-48,0,38,1624890619.0,32.000000
-41,2,43,1624890619.0,32.000000
-51,1,36,1624890619.0,32.000000
-53,2,35,1624890619.0,32.000000
-53,3,40,1624890619.0,32.000000
-38,-1,48,1624890619.0,32.000000
-45,2,60,1624890619.0,32.000000
-45,-1,44,1624890619.0,32.000000
-40,-1,42,1624890619.0,32.000000
-44,2,40,1624890619.0,32.000000
-52,1,43,1624890619.0,32.000000
-49,-1,42,1624890619.0,32.000000
-45,3,38,1624890619.0,32.000000
-42,3,37,1624890619.0,32.000000
-50,1,42,1624890619.0,32.000000
-51,1,44,1624890619.0,32.000000
-44,1,42,1624890619.0,32.000000
-42,1,59,1624890619.0,32.000000
-48,0,37,1624890619.0,32.000000
-45,1,39,1624890619.0,32.000000
-47,2,40,1624890619.0,32.000000
-47,0,44,1624890619.0,32.000000
-41,0,39,1624890619.0,32.000000
-48,2,44,1624890619.0,32.000000
-46,1,46,1624890619.0,32.000000
-54,-1,47,1624890619.0,32.000000
-42,0,36,1624890619.0,32.000000
-35,0,45,1624890619.0,32.000000
-49,0,50,1624890619.0,32.000000
-52,1,42,1624890619.0,32.000000
-42,1,39,1624890619.0,32.000000
-43,3,37,1624890619.0,32.000000
-40,2,40,1624890619.0,32.000000
-49,3,48,1624890619.0,32.000000
-52,-3,52,1624890619.0,32.000000
-50,-2,42,1624890619.0,32.000000
-44,-1,44,1624890619.0,32.000000
-43,1,45,1624890619.0,32.000000
-45,3,37,1624890619.0,32.000000
-38,0,42,1624890619.0,32.000000
-46,1,53,1624890619.0,32.000000
-44,-1,42,1624890619.0,32.000000
-39,-1,45,1624890619.0,32.000000
-39,0,46,1624890619.0,32.000000
-44,1,43,1624890619.0,32.000000
-40,4,43,1624890619.0,32.000000
-53,1,45,1624890619.0,32.000000
-48,0,46,1624890619.0,32.000000
-45,0,49,1624890619.0,32.000000
-47,2,34,1624890619.0,32.000000
-36,-1,40,1624890619.0,32.000000
-42,3,53,1624890619.0,32.000000
-50,1,51,1624890619.0,32.000000
-37,-1,43,1624890619.0,32.000000
-42,1,45,1624890619.0,32.000000
-45,1,44,1624890619.0,32.000000
-42,2,45,1624890619.0,32.000000
-47,2,47,1624890619.0,32.000000
-48,0,47,1624890619.0,32.000000
-44,-1,43,1624890619.0,32.000000
-42,1,46,1624890619.0,32.000000
-44,1,49,1624890619.0,32.000000
-43,0,41,1624890619.0,32.000000
-39,1,41,1624890619.0,32.000000
-44,1,47,1624890619.0,32.000000
-46,-1,48,1624890619.0,32.000000
-44,-1,45,1624890619.0,32.000000
-43,1,44,1624890619.0,32.000000
-43,0,46,1624890619.0,32.000000
-43,1,47,1624890619.0,32.000000
-43,0,47,1624890619.0,32.000000
-43,0,45,1624890619.0,32.000000
-40,1,42,1624890619.0,32.000000
-42,2,47,1624890619.0,32.000000
-44,1,46,1624890619.0,32.000000
-42,0,50,1624890619.0,32.000000
-45,-1,47,1624890619.0,32.000000
-43,0,46,1624890619.0,32.000000
-45,1,47,1624890619.0,32.000000
-43,-1,48,1624890619.0,32.000000
-42,0,46,1624890619.0,32.000000
-40,-1,47,1624890619.0,32.000000
-44,0,47,1624890619.0,32.000000
-44,-1,46,1624890619.0,32.000000
-42,-1,46,1624890619.0,32.000000
-43,-1,46,1624890619.0,32.000000
-45,-1,45,1624890619.0,32.000000
-45,-1,45,1624890619.0,32.000000
-43,-1,46,1624890619.0,32.000000
-42,-1,47,1624890619.0,32.000000
-43,-1,46,1624890619.0,32.000000
-43,-1,45,1624890619.0,32.000000
-44,-2,46,1624890619.0,32.000000
-45,-2,46,1624890619.0,32.000000
-43,-2,47,1624890619.0,32.000000
-43,-2,46,1624890619.0,32.000000
-43,-1,46,1624890619.0,32.000000
-44,-2,46,1624890619.0,32.000000
-43,-2,46,1624890619.0,32.000000
-41,-2,47,1624890619.0,32.000000
-42,-2,47,1624890619.0,32.000000
-42,-2,47,1624890619.0,32.000000
-42,-2,47,1624890619.0,32.000000
-42,-2,47,1624890619.0,32.000000
-43,-2,47,1624890619.0,32.000000
-42,-2,47,1624890619.0,32.000000
-42,-2,47,1624890619.0,32.000000
-42,-2,47,1624890619.0,32.000000
-42,-2,47,1624890619.0,32.000000
-42,-2,47,1624890619.0,32.000000
-42,-2,47,1624890619.0,32.000000
-42,-2,47,1624890619.0,32.000000
-42,-2,47,1624890619.0,32.000000
-42,-2,47,1624890619.0,32.000000
-42,-2,47,1624890619.0,32.000000
-42,-2,47,1624890619.0,32.000000
-42,-2,46,1624890619.0,32.000000
-43,-2,47,1624890619.0,32.000000
-42,-2,47,1624890619.0,32.000000
-43,-2,47,1624890619.0,32.000000
-42,-2,47,1624890619.0,32.000000
-41,-2,48,1624890619.0,32.000000
-42,-2,48,1624890619.0,32.000000
-41,-2,48,1624890619.0,32.000000
-41,-2,48,1624890619.0,32.000000
-41,-2,48,1624890619.0,32.000000
-41,-2,48,1624890619.0,32.000000
-41,-2,48,1624890619.0,32.000000
-42,-2,47,1624890619.0,32.000000
-41,-2,48,1624890619.0,32.000000
-41,-3,48,1624890619.0,32.000000
-40,-3,49,1624890619.0,32.000000
-40,-3,48,1624890619.0,32.000000
-40,-3,48,1624890619.0,32.000000
-40,-3,49,1624890619.0,32.000000
-40,-2,48,1624890619.0,32.000000
-39,-3,49,1624890619.0,32.000000
-39,-3,49,1624890619.0,32.000000
-39,-3,49,1624890619.0,32.000000
-40,-3,49,1624890619.0,32.000000
-40,-3,49,1624890619.0,32.000000
-41,-3,48,1624890619.0,32.000000
-39,-3,49,1624890619.0,32.000000
-39,-3,49,1624890619.0,32.000000
-39,-3,49,1624890619.0,32.000000
-39,-2,49,1624890619.0,32.000000
-39,-2,49,1624890619.0,32.000000
-39,-2,49,1624890619.0,32.000000
-38,-2,50,1624890619.0,32.000000
-39,-3,50,1624890619.0,32.000000
-37,-2,51,1624890619.0,32.000000
-38,-2,50,1624890619.0,32.000000
-39,-2,51,1624890619.0,32.000000
-39,-3,50,1624890619.0,32.000000
-38,-2,49,1624890619.0,32.000000
-38,-2,51,1624890619.0,32.000000
-38,-2,50,1624890619.0,32.000000
-39,-2,50,1624890619.0,32.000000
-38,-2,50,1624890619.0,32.000000
-38,-2,49,1624890619.0,32.000000
-38,-2,50,1624890619.0,32.000000
-39,-2,50,1624890619.0,32.000000
-38,-2,50,1624890619.0,32.000000
-38,-2,50,1624890619.0,32.000000
-38,-2,50,1624890619.0,32.000000
-38,-3,50,1624890619.0,32.000000
-38,-2,50,1624890619.0,32.000000
-39,-3,50,1624890619.0,32.000000
-38,-2,50,1624890619.0,32.000000
-37,-2,49,1624890619.0,32.000000
-38,-3,50,1624890619.0,32.000000
-38,-3,49,1624890619.0,32.000000
-37,-3,50,1624890619.0,32.000000
-39,-3,50,1624890619.0,32.000000
-39,-3,51,1624890619.0,32.000000
-40,-4,49,1624890619.0,32.000000
-41,-2,48,1624890619.0,32.000000
-42,-2,46,1624890619.0,32.000000
-40,-3,50,1624890619.0,32.000000
-39,-3,51,1624890619.0,32.000000
-37,-4,51,1624890619.0,32.000000
-39,-4,50,1624890619.0,32.000000
-39,-4,49,1624890619.0,32.000000
-40,-4,50,1624890619.0,32.000000
-40,-4,49,1624890619.0,32.000000
-38,-3,49,1624890619.0,32.000000
-39,-3,50,1624890619.0,32.000000
-39,-4,50,1624890619.0,32.000000
-38,-3,49,1624890619.0,32.000000
-39,-3,49,1624890619.0,32.000000
-38,-4,50,1624890619.0,32.000000
-38,-3,50,1624890619.0,32.000000
-38,-4,50,1624890619.0,32.000000
-39,-3,49,1624890619.0,32.000000
-39,-3,50,1624890619.0,32.000000
-38,-3,50,1624890619.0,32.000000
-38,-3,50,1624890619.0,32.000000
-39,-3,49,1624890619.0,32.000000
-38,-3,50,1624890619.0,32.000000
-38,-3,51,1624890619.0,32.000000
-38,-3,50,1624890619.0,32.000000
-39,-3,49,1624890619.0,32.000000
-38,-3,50,1624890619.0,32.000000
-38,-3,49,1624890619.0,32.000000
-37,-3,51,1624890619.0,32.000000
-38,-3,50,1624890619.0,32.000000
-38,-3,50,1624890619.0,32.000000
-38,-3,51,1624890619.0,32.000000
-38,-3,50,1624890619.0,32.000000
-37,-3,51,1624890619.0,32.000000
-38,-3,50,1624890619.0,32.000000
-38,-3,50,1624890619.0,32.000000
-38,-3,51,1624890619.0,32.000000
-38,-3,50,1624890619.0,32.000000
-37,-3,49,1624890619.0,32.000000
-37,-3,49,1624890619.0,32.000000
-38,-4,51,1624890619.0,32.000000
-38,-3,52,1624890619.0,32.000000
-39,-4,49,1624890619.0,32.000000
-38,-1,52,1624890619.0,32.000000
-37,-3,50,1624890619.0,32.000000
-39,-4,49,1624890619.0,32.000000
-37,-4,51,1624890619.0,32.000000
-38,-4,51,1624890619.0,32.000000
-38,-4,51,1624890619.0,32.000000
-38,-5,51,1624890619.0,32.000000
-38,-4,50,1624890619.0,32.000000
-37,-3,49,1624890619.0,32.000000
-37,-3,50,1624890619.0,32.000000
-38,-4,51,1624890619.0,32.000000
-38,-4,50,1624890619.0,32.000000
-38,-4,50,1624890619.0,32.000000
-38,-4,50,1624890619.0,32.000000
-38,-4,50,1624890619.0,32.000000
-37,-3,50,1624890619.0,32.000000
-38,-4,50,1624890619.0,32.000000
-38,-4,51,1624890619.0,32.000000
-38,-4,50,1624890619.0,32.000000
-37,-4,50,1624890619.0,32.000000
-38,-4,50,1624890619.0,32.000000
-38,-3,50,1624890619.0,32.000000
-38,-4,50,1624890619.0,32.000000
-38,-4,50,1624890619.0,32.000000
-38,-4,50,1624890619.0,32.000000
-39,-4,50,1624890619.0,32.000000
-38,-4,50,1624890619.0,32.000000
-38,-4,50,1624890619.0,32.000000
-38,-4,50,1624890619.0,32.000000
-38,-4,50,1624890619.0,32.000000
-38,-4,50,1624890619.0,32.000000
-38,-4,50,1624890619.0,32.000000
-38,-4,50,1624890619.0,32.000000
-38,-4,50,1624890619.0,32.000000
-38,-4,50,1624890619.0,32.000000
-38,-4,50,1624890619.0,32.000000
-38,-4,50,1624890619.0,32.000000
-38,-4,50,1624890619.0,32.000000
-38,-4,50,1624890619.0,32.000000
-38,-4,50,1624890619.0,32.000000
-38,-4,50,1624890619.0,32.000000
-38,-4,50,1624890619.0,32.000000
-38,-4,50,1624890619.0,32.000000
-38,-4,50,1624890619.0,32.000000
-38,-4,50,1624890619.0,32.000000
-38,-4,50,1624890619.0,32.000000
-38,-4,50,1624890619.0,32.000000
-38,-4,50,1624890619.0,32.000000
-38,-4,50,1624890619.0,32.000000
-38,-4,51,1624890619.0,32.000000
-38,-4,50,1624890619.0,32.000000
-38,-4,50,1624890619.0,32.000000
-38,-4,50,1624890619.0,32.000000
-38,-4,51,1624890619.0,32.000000
-38,-4,50,1624890619.0,32.000000
-38,-3,50,1624890619.0,32.000000
-38,-4,50,1624890619.0,32.000000
-38,-4,51,1624890619.0,32.000000
-38,-4,50,1624890619.0,32.000000
-38,-4,50,1624890619.0,32.000000
-38,-4,51,1624890619.0,32.000000
-38,-4,50,1624890619.0,32.000000
-38,-4,50,1624890619.0,32.000000
-38,-4,50,1624890619.0,32.000000
-38,-4,50,1624890619.0,32.000000
-38,-4,51,1624890619.0,32.000000
-38,-4,50,1624890619.0,32.000000
-37,-3,51,1624890619.0,32.000000
-37,-3,51,1624890619.0,32.000000
-38,-4,51,1624890619.0,32.000000
-38,-3,50,1624890619.0,32.000000
-37,-4,50,1624890619.0,32.000000
-37,-4,51,1624890619.0,32.000000
-38,-4,50,1624890619.0,32.000000
-37,-3,51,1624890619.0,32.000000
-38,-4,50,1624890619.0,32.000000
-37,-3,51,1624890619.0,32.000000
-37,-4,51,1624890619.0,32.000000
-37,-4,51,1624890619.0,32.000000
-39,-4,49,1624890619.0,32.000000
-37,-4,51,1624890619.0,32.000000
-37,-4,51,1624890619.0,32.000000
-38,-4,51,1624890619.0,32.000000
-38,-3,50,1624890619.0,32.000000
-38,-3,51,1624890619.0,32.000000
-37,-3,51,1624890619.0,32.000000
-37,-3,51,1624890619.0,32.000000
-38,-4,51,1624890619.0,32.000000
-38,-4,50,1624890619.0,32.000000
-38,-3,50,1624890619.0,32.000000
-37,-4,50,1624890619.0,32.000000
-37,-4,50,1624890619.0,32.000000
-37,-4,51,1624890619.0,32.000000
-37,-4,52,1624890619.0,32.000000
-39,-4,50,1624890619.0,32.000000
-36,-4,51,1624890619.0,32.000000
-37,-4,51,1624890619.0,32.000000
-37,-4,51,1624890619.0,32.000000
-37,-4,51,1624890619.0,32.000000
-37,-4,51,1624890619.0,32.000000
-37,-4,51,1624890619.0,32.000000
-37,-4,51,1624890619.0,32.000000
-37,-4,51,1624890619.0,32.000000
-37,-4,51,1624890619.0,32.000000
-37,-4,51,1624890619.0,32.000000
-37,-4,51,1624890619.0,32.000000
-37,-4,51,1624890619.0,32.000000
-37,-4,51,1624890619.0,32.000000
-37,-4,51,1624890619.0,32.000000
-37,-4,51,1624890619.0,32.000000
-37,-4,51,1624890619.0,32.000000
-37,-4,51,1624890619.0,32.000000
-38,-4,51,1624890619.0,32.000000
-37,-4,51,1624890619.0,32.000000
-37,-4,51,1624890619.0,32.000000
-37,-4,51,1624890619.0,32.000000
-37,-4,51,1624890619.0,32.000000
-37,-4,51,1624890619.0,32.000000
-37,-4,51,1624890619.0,32.000000
-37,-4,51,1624890619.0,32.000000
-37,-4,51,1624890619.0,32.000000
-37,-4,51,1624890619.0,32.000000
-37,-4,51,1624890619.0,32.000000
-37,-4,51,1624890619.0,32.000000
-37,-4,51,1624890619.0,32.000000
-37,-4,51,1624890619.0,32.000000
-37,-4,51,1624890619.0,32.000000
-37,-4,51,1624890619.0,32.000000
-37,-4,51,1624890619.0,32.000000
-37,-4,51,1624890619.0,32.000000
-38,-4,51,1624890619.0,32.000000
-37,-4,51,1624890619.0,32.000000
-37,-4,51,1624890619.0,32.000000
-37,-4,51,1624890619.0,32.000000
-37,-4,51,1624890619.0,32.000000
-37,-4,51,1624890619.0,32.000000
-37,-4,51,1624890619.0,32.000000
-37,-4,51,1624890619.0,32.000000
-37,-4,51,1624890619.0,32.000000
-37,-4,51,1624890619.0,32.000000
-37,-4,51,1624890619.0,32.000000
-37,-4,51,1624890619.0,32.000000
-37,-4,51,1624890619.0,32.000000
-38,-4,51,1624890619.0,32.000000
-37,-4,51,1624890619.0,32.000000
-37,-4,51,1624890619.0,32.000000
-37,-4,51,1624890619.0,32.000000
-37,-4,51,1624890619.0,32.000000
-37,-4,50,1624890619.0,32.000000
-37,-4,51,1624890619.0,32.000000
-38,-4,51,1624890619.0,32.000000
-37,-4,51,1624890619.0,32.000000
-37,-5,52,1624890619.0,32.000000
-38,-4,50,1624890619.0,32.000000
-37,-4,51,1624890619.0,32.000000
-38,-4,51,1624890619.0,32.000000
-37,-4,50,1624890619.0,32.000000
-37,-4,51,1624890619.0,32.000000
-37,-4,51,1624890619.0,32.000000
-37,-4,50,1624890619.0,32.000000
-37,-4,51,1624890619.0,32.000000
-37,-4,51,1624890619.0,32.000000
-37,-4,51,1624890619.0,32.000000
-37,-4,50,1624890619.0,32.000000
-37,-4,51,1624890619.0,32.000000
-37,-4,51,1624890619.0,32.000000
-37,-4,51,1624890619.0,32.000000
-37,-4,51,1624890619.0,32.000000
-37,-4,51,1624890619.0,32.000000
-37,-4,51,1624890619.0,32.000000
-37,-4,51,1624890619.0,32.000000
-37,-4,51,1624890619.0,32.000000
-37,-4,51,1624890619.0,32.000000
-37,-4,51,1624890619.0,32.000000
-37,-4,50,1624890619.0,32.000000
-37,-4,51,1624890619.0,32.000000
-37,-4,51,1624890619.0,32.000000
-37,-4,51,1624890619.0,32.000000
-37,-4,51,1624890619.0,32.000000
-37,-4,51,1624890619.0,32.000000
-37,-4,51,1624890619.0,32.000000
-37,-4,51,1624890619.0,32.000000
-37,-4,51,1624890619.0,32.000000
-37,-4,51,1624890619.0,32.000000
-37,-4,51,1624890619.0,32.000000
-37,-4,51,1624890619.0,32.000000
-38,-4,51,1624890619.0,32.000000
-37,-4,51,1624890619.0,32.000000
-37,-4,51,1624890619.0,32.000000
-37,-4,50,1624890619.0,32.000000
-37,-4,51,1624890619.0,32.000000
-37,-4,51,1624890619.0,32.000000
-37,-4,51,1624890619.0,32.000000
-37,-4,50,1624890619.0,32.000000
-37,-4,51,1624890619.0,32.000000
-37,-4,51,1624890619.0,32.000000
-37,-4,50,1624890619.0,32.000000
-37,-4,51,1624890619.0,32.000000
-37,-4,51,1624890619.0,32.000000
-37,-4,50,1624890619.0,32.000000
-37,-4,51,1624890619.0,32.000000
-37,-4,51,1624890619.0,32.000000
-37,-4,51,1624890619.0,32.000000
-37,-4,51,1624890619.0,32.000000
-37,-4,51,1624890619.0,32.000000
-37,-4,51,1624890619.0,32.000000
-37,-4,51,1624890619.0,32.000000
-37,-4,51,1624890619.0,32.000000
-37,-4,51,1624890619.0,32.000000
-37,-4,51,1624890619.0,32.000000
-37,-4,51,1624890619.0,32.000000
-37,-4,51,1624890619.0,32.000000
-37,-4,51,1624890619.0,32.000000
-37,-4,51,1624890619.0,32.000000
-37,-4,51,1624890619.0,32.000000
-37,-4,51,1624890619.0,32.000000
-37,-4,51,1624890619.0,32.000000
-37,-4,51,1624890619.0,32.000000
-37,-4,51,1624890619.0,32.000000
-37,-4,51,1624890619.0,32.000000
-37,-4,51,1624890619.0,32.000000
-37,-4,50,1624890619.0,32.000000
-37,-4,51,1624890619.0,32.000000
-38,-4,51,1624890619.0,32.000000
-37,-4,50,1624890619.0,32.000000
-37,-4,51,1624890619.0,32.000000
-37,-5,51,1624890619.0,32.000000
-37,-4,51,1624890619.0,32.000000
-37,-4,51,1624890619.0,32.000000
-37,-4,51,1624890619.0,32.000000
-37,-4,51,1624890619.0,32.000000
-37,-4,51,1624890619.0,32.000000
-37,-4,51,1624890619.0,32.000000
-37,-4,51,1624890619.0,32.000000
-37,-4,51,1624890619.0,32.000000
-37,-4,51,1624890619.0,32.000000
-37,-5,51,1624890619.0,32.000000
-37,-5,51,1624890619.0,32.000000
-37,-4,51,1624890619.0,32.000000
-37,-4,51,1624890619.0,32.000000
-37,-4,51,1624890619.0,32.000000
-37,-4,51,1624890619.0,32.000000
-37,-4,51,1624890619.0,32.000000
-37,-4,51,1624890619.0,32.000000
-37,-4,50,1624890619.0,32.000000
-37,-4,51,1624890619.0,32.000000
-37,-4,51,1624890619.0,32.000000
-37,-4,51,1624890619.0,32.000000
-37,-4,51,1624890619.0,32.000000
-37,-4,51,1624890619.0,32.000000
-37,-4,51,1624890619.0,32.000000
-37,-4,51,1624890619.0,32.000000
-37,-4,51,1624890619.0,32.000000
-37,-4,51,1624890619.0,32.000000
-37,-4,51,1624890619.0,32.000000
-37,-4,51,1624890619.0,32.000000
-37,-4,51,1624890619.0,32.000000
-37,-4,51,1624890619.0,32.000000
-37,-4,51,1624890619.0,32.000000
-37,-5,51,1624890619.0,32.000000
-37,-4,51,1624890619.0,32.000000
-37,-4,51,1624890619.0,32.000000
-37,-4,50,1624890619.0,32.000000
-37,-4,51,1624890619.0,32.000000
-37,-4,51,1624890619.0,32.000000
-37,-4,51,1624890619.0,32.000000
-37,-5,51,1624890619.0,32.000000
-37,-4,51,1624890619.0,32.000000
-37,-4,51,1624890619.0,32.000000
-37,-4,51,1624890619.0,32.000000
-37,-5,51,1624890619.0,32.000000
-37,-5,51,1624890619.0,32.000000
-37,-4,51,1624890619.0,32.000000
-37,-4,51,1624890619.0,32.000000
-37,-4,51,1624890619.0,32.000000
-37,-5,51,1624890619.0,32.000000
-37,-4,51,1624890619.0,32.000000
-37,-4,51,1624890619.0,32.000000
-37,-5,51,1624890619.0,32.000000
-37,-5,51,1624890619.0,32.000000
-37,-4,50,1624890619.0,32.000000
-37,-4,51,1624890619.0,32.000000
-37,-5,51,1624890619.0,32.000000
-37,-4,51,1624890619.0,32.000000
-37,-4,51,1624890619.0,32.000000
-37,-4,51,1624890619.0,32.000000
-37,-4,51,1624890619.0,32.000000
-37,-4,51,1624890619.0,32.000000
-38,-4,50,1624890619.0,32.000000
-37,-5,51,1624890619.0,32.000000
-37,-5,51,1624890619.0,32.000000
-37,-5,51,1624890619.0,32.000000
-37,-4,51,1624890619.0,32.000000
-37,-5,51,1624890619.0,32.000000
-37,-5,51,1624890619.0,32.000000
-37,-4,51,1624890619.0,32.000000
-37,-5,51,1624890619.0,32.000000
-37,-4,51,1624890619.0,32.000000
-37,-4,51,1624890619.0,32.000000
-37,-5,51,1624890619.0,32.000000
-37,-4,51,1624890619.0,32.000000
-37,-4,51,1624890619.0,32.000000
-37,-5,51,1624890619.0,32.000000
-37,-4,51,1624890619.0,32.000000
-37,-5,51,1624890619.0,32.000000
-37,-5,51,1624890619.0,32.000000
-37,-5,51,1624890619.0,32.000000
-37,-5,51,1624890619.0,32.000000
-37,-4,51,1624890619.0,32.000000
-37,-4,51,1624890619.0,32.000000
-37,-5,51,1624890619.0,32.000000
-37,-4,51,1624890619.0,32.000000
-37,-5,51,1624890619.0,32.000000
-37,-4,51,1624890619.0,32.000000
-37,-5,51,1624890619.0,32.000000
-37,-4,51,1624890619.0,32.000000
-37,-5,51,1624890619.0,32.000000
-37,-5,51,1624890619.0,32.000000
-37,-5,51,1624890619.0,32.000000
-37,-5,51,1624890619.0,32.000000
-37,-5,51,1624890619.0,32.000000
-37,-5,51,1624890619.0,32.000000
-37,-5,51,1624890619.0,32.000000
-37,-5,51,1624890619.0,32.000000
-37,-5,51,1624890619.0,32.000000
-37,-5,51,1624890619.0,32.000000
-37,-5,51,1624890619.0,32.000000
-37,-5,51,1624890619.0,32.000000
-37,-5,51,1624890619.0,32.000000
-37,-5,51,1624890619.0,32.000000
-37,-5,51,1624890619.0,32.000000
-37,-5,51,1624890619.0,32.000000
-37,-5,51,1624890619.0,32.000000
-37,-5,51,1624890619.0,32.000000
-36,-4,51,1624890619.0,32.000000
-37,-4,50,1624890619.0,32.000000
-37,-4,51,1624890619.0,32.000000
-37,-4,51,1624890619.0,32.000000
-36,-5,51,1624890619.0,32.000000
-38,-5,51,1624890619.0,32.000000
-38,-5,50,1624890619.0,32.000000
-38,-5,51,1624890619.0,32.000000
-38,-6,51,1624890619.0,32.000000
-37,-5,50,1624890619.0,32.000000
-38,-5,51,1624890619.0,32.000000
-37,-4,50,1624890619.0,32.000000
-37,-4,51,1624890619.0,32.000000
-36,-4,51,1624890619.0,32.000000
-37,-5,51,1624890619.0,32.000000
-37,-4,50,1624890619.0,32.000000
-37,-5,52,1624890619.0,32.000000
-37,-4,50,1624890619.0,32.000000
-37,-4,51,1624890619.0,32.000000
-37,-5,50,1624890619.0,32.000000
-37,-5,51,1624890619.0,32.000000
-38,-5,51,1624890619.0,32.000000
-38,-5,51,1624890619.0,32.000000
-38,-5,50,1624890619.0,32.000000
-37,-5,51,1624890619.0,32.000000
-37,-5,51,1624890619.0,32.000000
-38,-5,51,1624890619.0,32.000000
-37,-5,50,1624890619.0,32.000000
-37,-5,51,1624890619.0,32.000000
-37,-5,51,1624890619.0,32.000000
-37,-5,50,1624890619.0,32.000000
-37,-5,51,1624890619.0,32.000000
-37,-5,51,1624890619.0,32.000000
-37,-5,51,1624890619.0,32.000000
-37,-5,51,1624890619.0,32.000000
-37,-5,51,1624890619.0,32.000000
-37,-5,51,1624890619.0,32.000000
-37,-5,51,1624890619.0,32.000000
-37,-5,51,1624890619.0,32.000000
-37,-5,50,1624890619.0,32.000000
-37,-5,51,1624890619.0,32.000000
-37,-5,50,1624890619.0,32.000000
-37,-5,50,1624890619.0,32.000000
-38,-5,51,1624890619.0,32.000000
-38,-5,50,1624890619.0,32.000000
-37,-6,51,1624890619.0,32.000000
-37,-5,51,1624890619.0,32.000000
-38,-5,51,1624890619.0,32.000000
-37,-4,51,1624890619.0,32.000000
-37,-5,50,1624890619.0,32.000000
-37,-5,51,1624890619.0,32.000000
-38,-5,51,1624890619.0,32.000000
-37,-5,51,1624890619.0,32.000000
-37,-5,51,1624890619.0,32.000000
-37,-5,51,1624890619.0,32.000000
-37,-4,51,1624890619.0,32.000000
-37,-5,51,1624890619.0,32.000000
-37,-5,51,1624890619.0,32.000000
-37,-5,51,1624890619.0,32.000000
-37,-5,51,1624890619.0,32.000000
-37,-5,51,1624890619.0,32.000000
-37,-5,51,1624890619.0,32.000000
-37,-5,51,1624890619.0,32.000000
-37,-5,51,1624890619.0,32.000000
-37,-5,51,1624890619.0,32.000000
-37,-5,51,1624890619.0,32.000000
-37,-5,51,1624890619.0,32.000000
-37,-5,51,1624890619.0,32.000000
-37,-5,51,1624890619.0,32.000000
-37,-5,51,1624890619.0,32.000000
-37,-5,51,1624890619.0,32.000000
-37,-5,51,1624890619.0,32.000000
-38,-5,51,1624890619.0,32.000000
-37,-5,50,1624890619.0,32.000000
-37,-5,51,1624890619.0,32.000000
-37,-5,51,1624890619.0,32.000000
-37,-5,51,1624890619.0,32.000000
-37,-5,51,1624890619.0,32.000000
-37,-5,51,1624890619.0,32.000000
-37,-5,51,1624890619.0,32.000000
-38,-5,50,1624890619.0,32.000000
-38,-5,51,1624890619.0,32.000000
-38,-5,51,1624890619.0,32.000000
-38,-5,50,1624890619.0,32.000000
-38,-5,51,1624890619.0,32.000000
-38,-5,50,1624890619.0,32.000000
-37,-5,50,1624890619.0,32.000000
-37,-5,50,1624890619.0,32.000000
-38,-5,50,1624890619.0,32.000000
-38,-5,50,1624890619.0,32.000000
-37,-5,50,1624890619.0,32.000000
-38,-5,50,1624890619.0,32.000000
-38,-5,50,1624890619.0,32.000000
-38,-5,50,1624890619.0,32.000000
-38,-5,50,1624890619.0,32.000000
-38,-5,50,1624890619.0,32.000000
-38,-5,50,1624890619.0,32.000000
-38,-5,50,1624890619.0,32.000000
-39,-5,49,1624890619.0,32.000000
-38,-5,50,1624890619.0,32.000000
-38,-5,50,1624890619.0,32.000000
-38,-5,50,1624890619.0,32.000000
-39,-5,50,1624890619.0,32.000000
-38,-5,49,1624890619.0,32.000000
-38,-5,49,1624890619.0,32.000000
-39,-5,49,1624890619.0,32.000000
-39,-5,49,1624890619.0,32.000000
-39,-5,49,1624890619.0,32.000000
-39,-5,49,1624890619.0,32.000000
-39,-5,49,1624890619.0,32.000000
-39,-5,49,1624890619.0,32.000000
-39,-4,49,1624890619.0,32.000000
-40,-5,49,1624890619.0,32.000000
-40,-5,49,1624890619.0,32.000000
-40,-5,49,1624890619.0,32.000000
-40,-5,49,1624890619.0,32.000000
-40,-5,49,1624890619.0,32.000000
-40,-5,49,1624890619.0,32.000000
-40,-5,49,1624890619.0,32.000000
-40,-5,48,1624890619.0,32.000000
-39,-5,49,1624890619.0,32.000000
-39,-5,49,1624890619.0,32.000000
-39,-5,49,1624890619.0,32.000000
-39,-4,48,1624890619.0,32.000000
-39,-5,49,1624890619.0,32.000000
-39,-5,49,1624890619.0,32.000000
-39,-5,49,1624890619.0,32.000000
-39,-5,49,1624890619.0,32.000000
-39,-5,49,1624890619.0,32.000000
-39,-5,49,1624890619.0,32.000000
-38,-5,49,1624890619.0,32.000000
-39,-5,49,1624890619.0,32.000000
-39,-5,49,1624890619.0,32.000000
-39,-5,49,1624890619.0,32.000000
-39,-5,50,1624890619.0,32.000000
-38,-5,49,1624890619.0,32.000000
-39,-5,49,1624890619.0,32.000000
-40,-5,50,1624890619.0,32.000000
-39,-5,49,1624890619.0,32.000000
-39,-5,49,1624890619.0,32.000000
-39,-5,50,1624890619.0,32.000000
-38,-5,50,1624890619.0,32.000000
-38,-5,50,1624890619.0,32.000000
-38,-5,50,1624890619.0,32.000000
-39,-5,50,1624890619.0,32.000000
-38,-5,50,1624890619.0,32.000000
-38,-5,50,1624890619.0,32.000000
-38,-5,50,1624890619.0,32.000000
-38,-5,50,1624890619.0,32.000000
-38,-5,50,1624890619.0,32.000000
-38,-5,50,1624890619.0,32.000000
-38,-5,50,1624890619.0,32.000000
-38,-5,50,1624890619.0,32.000000
-38,-5,51,1624890619.0,32.000000
-38,-5,50,1624890619.0,32.000000
-38,-5,49,1624890619.0,32.000000
-38,-5,50,1624890619.0,32.000000
-38,-5,50,1624890619.0,32.000000
-38,-6,49,1624890619.0,32.000000
-38,-5,51,1624890619.0,32.000000
-38,-5,49,1624890619.0,32.000000
-39,-6,51,1624890619.0,32.000000
-39,-6,51,1624890619.0,32.000000
-38,-5,51,1624890619.0,32.000000
-36,-4,49,1624890619.0,32.000000
-36,-4,49,1624890619.0,32.000000
-36,-5,51,1624890619.0,32.000000
-38,-5,50,1624890619.0,32.000000
-39,-5,50,1624890619.0,32.000000
-40,-5,49,1624890619.0,32.000000
-39,-5,50,1624890619.0,32.000000
-38,-6,50,1624890619.0,32.000000
-38,-6,50,1624890619.0,32.000000
-37,-5,51,1624890619.0,32.000000
-37,-5,50,1624890619.0,32.000000
-37,-5,51,1624890619.0,32.000000
-37,-5,51,1624890619.0,32.000000
-37,-5,50,1624890619.0,32.000000
-37,-5,50,1624890619.0,32.000000
-38,-5,51,1624890619.0,32.000000
-38,-5,50,1624890619.0,32.000000
-38,-5,50,1624890619.0,32.000000
-38,-5,50,1624890619.0,32.000000
-38,-5,50,1624890619.0,32.000000
-38,-5,50,1624890619.0,32.000000
-37,-5,50,1624890619.0,32.000000
-37,-5,50,1624890619.0,32.000000
-38,-5,50,1624890619.0,32.000000
-38,-5,50,1624890619.0,32.000000
-38,-6,50,1624890619.0,32.000000
-37,-5,51,1624890619.0,32.000000
-37,-5,50,1624890619.0,32.000000
-38,-5,51,1624890619.0,32.000000
-38,-5,50,1624890619.0,32.000000
-37,-5,51,1624890619.0,32.000000
-38,-5,50,1624890619.0,32.000000
-37,-5,50,1624890619.0,32.000000
-37,-5,50,1624890619.0,32.000000
-38,-5,50,1624890619.0,32.000000
-38,-5,50,1624890619.0,32.000000
-38,-5,51,1624890619.0,32.000000
-37,-5,51,1624890619.0,32.000000
-37,-5,51,1624890619.0,32.000000
-37,-5,51,1624890619.0,32.000000
-37,-5,50,1624890619.0,32.000000
-37,-5,50,1624890619.0,32.000000
-37,-5,51,1624890619.0,32.000000
-37,-5,51,1624890619.0,32.000000
-37,-5,51,1624890619.0,32.000000
-38,-5,50,1624890619.0,32.000000
-37,-5,51,1624890619.0,32.000000
-37,-5,50,1624890619.0,32.000000
-37,-5,50,1624890619.0,32.000000
-38,-5,51,1624890619.0,32.000000
-37,-5,51,1624890619.0,32.000000
-37,-5,51,1624890619.0,32.000000
-37,-5,50,1624890619.0,32.000000
-37,-5,51,1624890619.0,32.000000
-37,-5,50,1624890619.0,32.000000
-37,-5,51,1624890619.0,32.000000
-37,-5,51,1624890619.0,32.000000
-37,-8,60,1624890619.0,32.000000
-36,-12,68,1624890619.0,32.000000
-29,-19,72,1624890619.0,32.000000
-45,-13,64,1624890619.0,32.000000
-35,-12,61,1624890619.0,32.000000
-25,-5,55,1624890619.0,32.000000
-26,5,56,1624890619.0,32.000000
-29,10,51,1624890619.0,32.000000
-27,17,50,1624890619.0,32.000000
-36,18,43,1624890619.0,32.000000
-37,15,20,1624890619.0,32.000000
-48,19,24,1624890619.0,32.000000
-49,16,28,1624890619.0,32.000000
-41,13,30,1624890619.0,32.000000
-44,10,27,1624890619.0,32.000000
-58,4,19,1624890619.0,32.000000
-57,2,28,1624890619.0,32.000000
-59,0,27,1624890619.0,32.000000
-57,-2,28,1624890619.0,32.000000
-56,-7,35,1624890619.0,32.000000
-56,-7,36,1624890619.0,32.000000
-51,-10,36,1624890619.0,32.000000
-52,-12,35,1624890619.0,32.000000
-47,-13,50,1624890619.0,32.000000
-47,-13,48,1624890619.0,32.000000
-47,-13,46,1624890619.0,32.000000
-44,-11,48,1624890619.0,32.000000
-41,-10,48,1624890619.0,32.000000
-41,-12,49,1624890619.0,32.000000
-40,-12,48,1624890619.0,32.000000
-36,-12,50,1624890619.0,32.000000
-38,-12,52,1624890619.0,32.000000
-37,-13,54,1624890619.0,32.000000
-35,-11,53,1624890619.0,32.000000
-38,-11,51,1624890619.0,32.000000
-39,-11,51,1624890619.0,32.000000
-37,-10,51,1624890619.0,32.000000
-35,-12,52,1624890619.0,32.000000
-35,-12,54,1624890619.0,32.000000
-37,-15,47,1624890619.0,32.000000
-42,-17,43,1624890619.0,32.000000
-45,-18,43,1624890619.0,32.000000
-39,-19,43,1624890619.0,32.000000
-42,-16,40,1624890619.0,32.000000
-35,-19,47,1624890619.0,32.000000
-36,-14,47,1624890619.0,32.000000
-45,-14,47,1624890619.0,32.000000
-39,-12,49,1624890619.0,32.000000
-41,-12,48,1624890619.0,32.000000
-42,-14,46,1624890619.0,32.000000
-33,-18,49,1624890619.0,32.000000
-33,-14,46,1624890619.0,32.000000
-41,-19,43,1624890619.0,32.000000
-40,-22,45,1624890619.0,32.000000
-31,-23,49,1624890619.0,32.000000
-41,-23,45,1624890619.0,32.000000
-57,-28,38,1624890619.0,32.000000
-52,-30,37,1624890619.0,32.000000
-60,-30,21,1624890619.0,32.000000
-79,-25,17,1624890619.0,32.000000
-69,-23,27,1624890619.0,32.000000
-58,-8,34,1624890619.0,32.000000
-56,0,20,1624890619.0,32.000000
-52,11,19,1624890619.0,32.000000
-46,13,23,1624890619.0,32.000000
-36,22,46,1624890619.0,32.000000
-31,24,36,1624890619.0,32.000000
-26,22,32,1624890619.0,32.000000
-35,29,32,1624890619.0,32.000000
-31,26,52,1624890619.0,32.000000
-22,20,54,1624890619.0,32.000000
-26,21,47,1624890619.0,32.000000
-36,23,51,1624890619.0,32.000000
-30,19,65,1624890619.0,32.000000
-51,16,72,1624890619.0,32.000000
-13,-4,60,1624890619.0,32.000000
-24,-2,59,1624890619.0,32.000000
-31,-9,60,1624890619.0,32.000000
-43,-8,51,1624890619.0,32.000000
-46,-12,48,1624890619.0,32.000000
-59,-13,54,1624890619.0,32.000000
-44,-6,47,1624890619.0,32.000000
-44,-4,43,1624890619.0,32.000000
-42,0,47,1624890619.0,32.000000
-49,3,48,1624890619.0,32.000000
-52,6,49,1624890619.0,32.000000
-48,10,54,1624890619.0,32.000000
-40,8,49,1624890619.0,32.000000
-30,2,50,1624890619.0,32.000000
-26,-1,53,1624890619.0,32.000000
-19,-5,57,1624890619.0,32.000000
-22,-6,57,1624890619.0,32.000000
-23,-4,59,1624890619.0,32.000000
-27,-2,58,1624890619.0,32.000000
-30,-2,56,1624890619.0,32.000000
-30,-2,57,1624890619.0,32.000000
-29,-3,57,1624890619.0,32.000000
-28,-4,56,1624890619.0,32.000000
-27,-4,56,1624890619.0,32.000000
-27,-3,57,1624890619.0,32.000000
-26,-3,57,1624890619.0,32.000000
-27,-3,57,1624890619.0,32.000000
-27,-3,57,1624890619.0,32.000000
-27,-3,57,1624890619.0,32.000000
-27,-4,57,1624890619.0,32.000000
-27,-4,57,1624890619.0,32.000000
-27,-3,57,1624890619.0,32.000000
-27,-3,57,1624890619.0,32.000000
-26,-3,57,1624890619.0,32.000000
-27,-3,57,1624890619.0,32.000000
-27,-3,57,1624890619.0,32.000000
-27,-4,57,1624890619.0,32.000000
-27,-3,57,1624890619.0,32.000000
-27,-3,57,1624890619.0,32.000000
-27,-3,57,1624890619.0,32.000000
-27,-3,57,1624890619.0,32.000000
-27,-3,57,1624890619.0,32.000000
-27,-4,57,1624890619.0,32.000000
-27,-3,57,1624890619.0,32.000000
-27,-3,57,1624890619.0,32.000000
-26,-3,57,1624890619.0,32.000000
-26,-4,57,1624890619.0,32.000000
-27,-3,57,1624890619.0,32.000000
-27,-4,57,1624890619.0,32.000000
-28,-4,57,1624890619.0,32.000000
-27,-4,58,1624890619.0,32.000000
-27,-4,56,1624890619.0,32.000000
-26,-4,57,1624890619.0,32.000000
-26,-3,57,1624890619.0,32.000000
-26,-3,57,1624890619.0,32.000000
-26,-4,57,1624890619.0,32.000000
-26,-4,57,1624890619.0,32.000000
-27,-4,57,1624890619.0,32.000000
-26,-3,57,1624890619.0,32.000000
-26,-3,57,1624890619.0,32.000000
-26,-4,57,1624890619.0,32.000000
-26,-4,58,1624890619.0,32.000000
-27,-4,57,1624890619.0,32.000000
-26,-4,57,1624890619.0,32.000000
-26,-4,57,1624890619.0,32.000000
-26,-4,57,1624890619.0,32.000000
-26,-4,58,1624890619.0,32.000000
-26,-4,57,1624890619.0,32.000000
-27,-4,57,1624890619.0,32.000000
-27,-4,57,1624890619.0,32.000000
-26,-4,57,1624890619.0,32.000000
-26,-4,57,1624890619.0,32.000000
-26,-4,57,1624890619.0,32.000000
-26,-4,57,1624890619.0,32.000000
-27,-4,57,1624890619.0,32.000000
-26,-4,57,1624890619.0,32.000000
-26,-4,57,1624890619.0,32.000000
-27,-4,57,1624890619.0,32.000000
-27,-4,57,1624890619.0,32.000000
-26,-4,57,1624890619.0,32.000000
-26,-4,57,1624890619.0,32.000000
-27,-4,57,1624890619.0,32.000000
-27,-4,57,1624890619.0,32.000000
-26,-4,57,1624890619.0,32.000000
-26,-4,57,1624890619.0,32.000000
-26,-4,57,1624890619.0,32.000000
-26,-4,57,1624890619.0,32.000000
-26,-4,57,1624890619.0,32.000000
-27,-4,57,1624890619.0,32.000000
-26,-4,57,1624890619.0,32.000000
-26,-4,57,1624890619.0,32.000000
-26,-4,58,1624890619.0,32.000000
-26,-4,57,1624890619.0,32.000000
-26,-4,57,1624890619.0,32.000000
-26,-4,57,1624890619.0,32.000000
-26,-4,57,1624890619.0,32.000000
-27,-4,57,1624890619.0,32.000000
-26,-4,57,1624890619.0,32.000000
-26,-4,57,1624890619.0,32.000000
-26,-4,58,1624890619.0,32.000000
-26,-4,57,1624890619.0,32.000000
-26,-4,57,1624890619.0,32.000000
-26,-4,57,1624890619.0,32.000000
-26,-4,57,1624890619.0,32.000000
-26,-4,57,1624890619.0,32.000000
-26,-4,57,1624890619.0,32.000000
-26,-3,57,1624890619.0,32.000000
-26,-4,58,1624890619.0,32.000000
-26,-4,58,1624890619.0,32.000000
-26,-4,57,1624890619.0,32.000000
-26,-4,58,1624890619.0,32.000000
-26,-4,58,1624890619.0,32.000000
-26,-4,57,1624890619.0,32.000000
-26,-4,58,1624890619.0,32.000000
-26,-4,57,1624890619.0,32.000000
-26,-4,57,1624890619.0,32.000000
-26,-4,57,1624890619.0,32.000000
-26,-4,58,1624890619.0,32.000000
-26,-4,57,1624890619.0,32.000000
-26,-4,57,1624890619.0,32.000000
-26,-4,58,1624890619.0,32.000000
-26,-4,57,1624890619.0,32.000000
-27,-4,56,1624890619.0,32.000000
-26,-3,57,1624890619.0,32.000000
-26,-4,58,1624890619.0,32.000000
-26,-5,60,1624890619.0,32.000000
-26,-7,62,1624890619.0,32.000000
-22,-6,62,1624890619.0,32.000000
-21,-8,63,1624890619.0,32.000000
-22,-10,64,1624890619.0,32.000000
-25,-6,58,1624890619.0,32.000000
-20,-5,58,1624890619.0,32.000000
-15,-10,63,1624890619.0,32.000000
-17,-5,56,1624890619.0,32.000000
-19,-6,55,1624890619.0,32.000000
-18,-5,51,1624890619.0,32.000000
-25,-5,49,1624890619.0,32.000000
-44,1,45,1624890619.0,32.000000
-41,3,53,1624890619.0,32.000000
-36,6,54,1624890619.0,32.000000
-36,11,47,1624890619.0,32.000000
-38,13,51,1624890619.0,32.000000
-37,14,48,1624890619.0,32.000000
-27,13,44,1624890619.0,32.000000
-28,10,48,1624890619.0,32.000000
-34,13,65,1624890619.0,32.000000
-37,11,71,1624890619.0,32.000000
-31,10,66,1624890619.0,32.000000
-18,10,64,1624890619.0,32.000000
-16,5,63,1624890619.0,32.000000
-25,1,59,1624890619.0,32.000000
-27,-5,58,1624890619.0,32.000000
-21,-5,58,1624890619.0,32.000000
-26,-3,51,1624890619.0,32.000000
-29,-1,49,1624890619.0,32.000000
-27,-1,57,1624890619.0,32.000000
-26,-3,58,1624890619.0,32.000000
-28,-2,57,1624890619.0,32.000000
-25,-7,62,1624890619.0,32.000000
-24,-10,61,1624890619.0,32.000000
-23,-8,61,1624890619.0,32.000000
-30,-10,55,1624890619.0,32.000000
-27,-9,57,1624890619.0,32.000000
-23,-4,57,1624890619.0,32.000000
-34,-2,49,1624890619.0,32.000000
-34,0,50,1624890619.0,32.000000
-35,-2,51,1624890619.0,32.000000
-34,-3,54,1624890619.0,32.000000
-34,-5,56,1624890619.0,32.000000
-34,-6,55,1624890619.0,32.000000
-32,-8,57,1624890619.0,32.000000
-32,-6,54,1624890619.0,32.000000
-31,-5,55,1624890619.0,32.000000
-31,-4,55,1624890619.0,32.000000
-32,-3,53,1624890619.0,32.000000
-30,-2,53,1624890619.0,32.000000
-30,-4,55,1624890619.0,32.000000
-32,-1,53,1624890619.0,32.000000
-32,-4,54,1624890619.0,32.000000
-32,-3,54,1624890619.0,32.000000
-32,-4,54,1624890619.0,32.000000
-32,-4,55,1624890619.0,32.000000
-32,-3,54,1624890619.0,32.000000
-32,-3,54,1624890619.0,32.000000
-32,-3,54,1624890619.0,32.000000
-32,-3,54,1624890619.0,32.000000
-32,-3,54,1624890619.0,32.000000
-32,-3,54,1624890619.0,32.000000
-32,-3,55,1624890619.0,32.000000
-32,-3,54,1624890619.0,32.000000
-32,-3,54,1624890619.0,32.000000
-33,-3,54,1624890619.0,32.000000
-33,-3,53,1624890619.0,32.000000
-33,-3,53,1624890619.0,32.000000
-33,-3,54,1624890619.0,32.000000
-32,-3,53,1624890619.0,32.000000
-32,-3,54,1624890619.0,32.000000
-33,-3,53,1624890619.0,32.000000
-33,-3,54,1624890619.0,32.000000
-32,-3,55,1624890619.0,32.000000
-32,-3,54,1624890619.0,32.000000
-32,-4,55,1624890619.0,32.000000
-33,-3,53,1624890619.0,32.000000
-34,-2,53,1624890619.0,32.000000
-34,-2,53,1624890619.0,32.000000
-33,-3,54,1624890619.0,32.000000
-33,-3,54,1624890619.0,32.000000
-32,-3,54,1624890619.0,32.000000
-33,-3,54,1624890619.0,32.000000
-34,-3,53,1624890619.0,32.000000
-33,-3,54,1624890619.0,32.000000
-33,-3,54,1624890619.0,32.000000
-33,-3,53,1624890619.0,32.000000
-33,-3,54,1624890619.0,32.000000
-33,-3,54,1624890619.0,32.000000
-33,-3,53,1624890619.0,32.000000
-34,-3,52,1624890619.0,32.000000
-35,-3,52,1624890619.0,32.000000
-31,-2,54,1624890619.0,32.000000
-31,-4,55,1624890619.0,32.000000
-36,-4,52,1624890619.0,32.000000
-31,-2,54,1624890619.0,32.000000
-34,-3,52,1624890619.0,32.000000
-33,-4,54,1624890619.0,32.000000
-32,-4,55,1624890619.0,32.000000
-33,-3,55,1624890619.0,32.000000
-30,-2,55,1624890619.0,32.000000
-30,-4,55,1624890619.0,32.000000
-28,-4,57,1624890619.0,32.000000
-25,-2,57,1624890619.0,32.000000
-25,-2,57,1624890619.0,32.000000
-25,-5,58,1624890619.0,32.000000
-26,-3,58,1624890619.0,32.000000
-28,-3,57,1624890619.0,32.000000
-29,-3,55,1624890619.0,32.000000
-29,-3,56,1624890619.0,32.000000
-28,-2,56,1624890619.0,32.000000
-28,-3,56,1624890619.0,32.000000
-28,-3,56,1624890619.0,32.000000
-29,-3,56,1624890619.0,32.000000
-28,-3,56,1624890619.0,32.000000
-29,-3,56,1624890619.0,32.000000
-28,-3,56,1624890619.0,32.000000
-29,-3,55,1624890619.0,32.000000
-29,-3,56,1624890619.0,32.000000
-29,-3,56,1624890619.0,32.000000
-28,-3,56,1624890619.0,32.000000
-29,-3,56,1624890619.0,32.000000
-28,-2,56,1624890619.0,32.000000
-28,-3,56,1624890619.0,32.000000
-29,-3,56,1624890619.0,32.000000
-29,-3,56,1624890619.0,32.000000
-29,-3,56,1624890619.0,32.000000
-29,-3,56,1624890619.0,32.000000
-29,-3,56,1624890619.0,32.000000
-29,-3,56,1624890619.0,32.000000
-29,-3,56,1624890619.0,32.000000
-29,-3,56,1624890619.0,32.000000
-29,-3,55,1624890619.0,32.000000
-29,-3,56,1624890619.0,32.000000
-29,-3,56,1624890619.0,32.000000
-29,-3,56,1624890619.0,32.000000
-29,-3,56,1624890619.0,32.000000
-29,-3,56,1624890619.0,32.000000
-29,-3,55,1624890619.0,32.000000
-29,-3,56,1624890619.0,32.000000
-29,-3,56,1624890619.0,32.000000
-29,-3,56,1624890619.0,32.000000
-29,-3,56,1624890619.0,32.000000
-29,-3,56,1624890619.0,32.000000
-29,-3,56,1624890619.0,32.000000
-29,-3,56,1624890619.0,32.000000
-29,-3,56,1624890619.0,32.000000
-29,-2,56,1624890619.0,32.000000
-29,-3,56,1624890619.0,32.000000
-29,-3,56,1624890619.0,32.000000
-29,-3,56,1624890619.0,32.000000
-29,-3,56,1624890619.0,32.000000
-29,-3,56,1624890619.0,32.000000
-29,-3,56,1624890619.0,32.000000
-29,-3,56,1624890619.0,32.000000
-29,-3,55,1624890619.0,32.000000
-29,-3,56,1624890619.0,32.000000
-29,-3,56,1624890619.0,32.000000
-29,-3,56,1624890619.0,32.000000
-29,-3,56,1624890619.0,32.000000
-29,-3,56,1624890619.0,32.000000
-29,-3,56,1624890619.0,32.000000
-29,-3,56,1624890619.0,32.000000
-29,-3,56,1624890619.0,32.000000
-29,-3,56,1624890619.0,32.000000
-29,-3,56,1624890619.0,32.000000
-29,-3,56,1624890619.0,32.000000
-29,-3,56,1624890619.0,32.000000
-29,-3,56,1624890619.0,32.000000
-29,-3,56,1624890619.0,32.000000
-29,-3,56,1624890619.0,32.000000
-29,-3,56,1624890619.0,32.000000
-29,-3,56,1624890619.0,32.000000
-29,-3,56,1624890619.0,32.000000
-29,-3,56,1624890619.0,32.000000
-29,-3,56,1624890619.0,32.000000
-29,-3,55,1624890619.0,32.000000
-29,-3,56,1624890619.0,32.000000
-29,-3,55,1624890619.0,32.000000
-31,-2,54,1624890619.0,32.000000
-31,-2,55,1624890619.0,32.000000
-31,-4,55,1624890619.0,32.000000
-23,-5,58,1624890619.0,32.000000
-20,-2,62,1624890619.0,32.000000
-18,-1,62,1624890619.0,32.000000
-16,1,63,1624890619.0,32.000000
-15,6,59,1624890619.0,32.000000
-19,3,55,1624890619.0,32.000000
-20,3,58,1624890619.0,32.000000
-23,2,58,1624890619.0,32.000000
-22,-2,58,1624890619.0,32.000000
-25,-6,60,1624890619.0,32.000000
-25,-7,62,1624890619.0,32.000000
-19,-2,61,1624890619.0,32.000000
-21,-4,60,1624890619.0,32.000000
-19,-4,58,1624890619.0,32.000000
-21,-5,59,1624890619.0,32.000000
-19,-3,59,1624890619.0,32.000000
-19,-5,60,1624890619.0,32.000000
-16,-5,62,1624890619.0,32.000000
-17,-6,62,1624890619.0,32.000000
-15,-8,63,1624890619.0,32.000000
-18,-6,62,1624890619.0,32.000000
-17,-6,61,1624890619.0,32.000000
-18,-6,60,1624890619.0,32.000000
-17,-6,61,1624890619.0,32.000000
-16,-6,61,1624890619.0,32.000000
-16,-5,61,1624890619.0,32.000000
-18,-5,60,1624890619.0,32.000000
-17,-6,60,1624890619.0,32.000000
-15,-6,61,1624890619.0,32.000000
-16,-6,61,1624890619.0,32.000000
-18,-5,60,1624890619.0,32.000000
-16,-6,61,1624890619.0,32.000000
-18,-4,60,1624890619.0,32.000000
-17,-6,61,1624890619.0,32.000000
-15,-5,61,1624890619.0,32.000000
-17,-6,61,1624890619.0,32.000000
-17,-5,61,1624890619.0,32.000000
-17,-4,63,1624890619.0,32.000000
-19,-7,67,1624890619.0,32.000000
-18,-7,63,1624890619.0,32.000000
-11,-4,55,1624890619.0,32.000000
-10,-8,55,1624890619.0,32.000000
-3,-2,50,1624890619.0,32.000000
-9,-1,55,1624890619.0,32.000000
-18,-8,64,1624890619.0,32.000000
-31,-5,66,1624890619.0,32.000000
-25,-1,58,1624890619.0,32.000000
-14,3,66,1624890619.0,32.000000
-15,-7,61,1624890619.0,32.000000
-21,-8,59,1624890619.0,32.000000
-19,-4,57,1624890619.0,32.000000
-19,-6,58,1624890619.0,32.000000
-19,-6,60,1624890619.0,32.000000
-17,-2,61,1624890619.0,32.000000
-18,-1,62,1624890619.0,32.000000
-23,-5,59,1624890619.0,32.000000
-21,-5,60,1624890619.0,32.000000
-22,-5,60,1624890619.0,32.000000
-22,-10,63,1624890619.0,32.000000
-25,-7,64,1624890619.0,32.000000
-19,-7,63,1624890619.0,32.000000
-17,-5,59,1624890619.0,32.000000
-19,-9,62,1624890619.0,32.000000
-19,-9,63,1624890619.0,32.000000
-15,-7,60,1624890619.0,32.000000
-20,-9,50,1624890619.0,32.000000
-13,-8,62,1624890619.0,32.000000
-11,-8,65,1624890619.0,32.000000
-12,-5,63,1624890619.0,32.000000
-10,-4,62,1624890619.0,32.000000
-3,-4,64,1624890619.0,32.000000
0,-10,62,1624890619.0,32.000000
-2,-13,63,1624890619.0,32.000000
-17,-14,64,1624890619.0,32.000000
-23,0,42,1624890619.0,32.000000
-17,6,49,1624890619.0,32.000000
-10,5,63,1624890619.0,32.000000
-20,2,63,1624890619.0,32.000000
-31,-4,60,1624890619.0,32.000000
-19,-3,63,1624890619.0,32.000000
-16,-1,63,1624890619.0,32.000000
-23,-5,60,1624890619.0,32.000000
-20,-4,58,1624890619.0,32.000000
-21,-1,59,1624890619.0,32.000000
-16,0,61,1624890619.0,32.000000
-16,-2,60,1624890619.0,32.000000
-15,1,57,1624890619.0,32.000000
-21,-1,59,1624890619.0,32.000000
-22,-2,59,1624890619.0,32.000000
-23,-2,60,1624890619.0,32.000000
-23,-1,63,1624890619.0,32.000000
-26,0,60,1624890619.0,32.000000
-23,-1,59,1624890619.0,32.000000
-22,-1,58,1624890619.0,32.000000
-20,0,57,1624890619.0,32.000000
-19,1,58,1624890619.0,32.000000
-22,0,60,1624890619.0,32.000000
-21,-2,62,1624890619.0,32.000000
-20,-2,61,1624890619.0,32.000000
-20,-2,60,1624890619.0,32.000000
-20,-2,60,1624890619.0,32.000000
-21,-3,60,1624890619.0,32.000000
-19,-2,59,1624890619.0,32.000000
-17,0,59,1624890619.0,32.000000
-15,-2,61,1624890619.0,32.000000
-24,0,57,1624890619.0,32.000000
-26,-6,57,1624890619.0,32.000000
-19,-2,60,1624890619.0,32.000000
-22,-3,58,1624890619.0,32.000000
-31,-2,56,1624890619.0,32.000000
-29,-2,56,1624890619.0,32.000000
-25,-2,57,1624890619.0,32.000000
-24,-3,58,1624890619.0,32.000000
-27,-5,55,1624890619.0,32.000000
-23,-3,58,1624890619.0,32.000000
-25,-3,58,1624890619.0,32.000000
-17,-12,70,1624890619.0,32.000000
-13,-4,62,1624890619.0,32.000000
-19,-4,66,1624890619.0,32.000000
-25,-3,67,1624890619.0,32.000000
-15,-14,66,1624890619.0,32.000000
-17,-14,64,1624890619.0,32.000000
-11,-11,56,1624890619.0,32.000000
-14,-11,51,1624890619.0,32.000000
-14,-13,47,1624890619.0,32.000000
-16,-12,38,1624890619.0,32.000000
-15,-12,37,1624890619.0,32.000000
-39,-21,115,1624890619.0,32.000000
0,-7,60,1624890619.0,32.000000
-25,-16,55,1624890619.0,32.000000
-16,-6,72,1624890619.0,32.000000
-11,-10,56,1624890619.0,32.000000
-8,-6,53,1624890619.0,32.000000
-15,-2,54,1624890619.0,32.000000
-18,-2,56,1624890619.0,32.000000
-27,-1,60,1624890619.0,32.000000
-30,-1,56,1624890619.0,32.000000
-32,-3,55,1624890619.0,32.000000
-29,-6,57,1624890619.0,32.000000
-27,-7,58,1624890619.0,32.000000
-24,-6,57,1624890619.0,32.000000
-25,-6,57,1624890619.0,32.000000
-27,-5,57,1624890619.0,32.000000
-28,-4,57,1624890619.0,32.000000
-27,-5,58,1624890619.0,32.000000
-26,-5,58,1624890619.0,32.000000
-26,-5,58,1624890619.0,32.000000
-27,-5,57,1624890619.0,32.000000
-27,-4,57,1624890619.0,32.000000
-27,-4,56,1624890619.0,32.000000
-27,-4,57,1624890619.0,32.000000
-28,-4,56,1624890619.0,32.000000
-28,-4,56,1624890619.0,32.000000
-28,-4,57,1624890619.0,32.000000
-28,-4,56,1624890619.0,32.000000
-27,-3,56,1624890619.0,32.000000
-31,-4,54,1624890619.0,32.000000
-28,-3,57,1624890619.0,32.000000
-29,-5,56,1624890619.0,32.000000
-27,-3,55,1624890619.0,32.000000
-27,-4,56,1624890619.0,32.000000
-28,-4,57,1624890619.0,32.000000
-28,-4,57,1624890619.0,32.000000
-28,-4,56,1624890619.0,32.000000
-28,-3,56,1624890619.0,32.000000
-28,-4,56,1624890619.0,32.000000
-28,-4,56,1624890619.0,32.000000
-28,-3,56,1624890619.0,32.000000
-29,-4,56,1624890619.0,32.000000
-29,-3,56,1624890619.0,32.000000
-29,-3,56,1624890619.0,32.000000
-28,-3,56,1624890619.0,32.000000
-29,-3,56,1624890619.0,32.000000
-29,-3,56,1624890619.0,32.000000
-29,-4,56,1624890619.0,32.000000
-29,-3,56,1624890619.0,32.000000
-29,-3,56,1624890619.0,32.000000
-29,-3,56,1624890619.0,32.000000
-29,-4,56,1624890619.0,32.000000
-29,-4,56,1624890619.0,32.000000
-29,-4,56,1624890619.0,32.000000
-29,-4,56,1624890619.0,32.000000
-28,-4,56,1624890619.0,32.000000
-28,-3,56,1624890619.0,32.000000
-29,-4,56,1624890619.0,32.000000
-29,-4,56,1624890619.0,32.000000
-29,-4,56,1624890619.0,32.000000
-29,-4,55,1624890619.0,32.000000
-28,-4,56,1624890619.0,32.000000
-28,-4,56,1624890619.0,32.000000
-29,-4,56,1624890619.0,32.000000
-29,-4,56,1624890619.0,32.000000
-28,-4,56,1624890619.0,32.000000
-28,-4,56,1624890619.0,32.000000
-29,-4,56,1624890619.0,32.000000
-29,-3,56,1624890619.0,32.000000
-29,-3,56,1624890619.0,32.000000
-29,-3,56,1624890619.0,32.000000
-29,-4,56,1624890619.0,32.000000
-29,-4,56,1624890619.0,32.000000
-29,-4,56,1624890619.0,32.000000
-29,-4,56,1624890619.0,32.000000
-29,-3,56,1624890619.0,32.000000
-29,-4,56,1624890619.0,32.000000
-28,-4,57,1624890619.0,32.000000
-28,-4,56,1624890619.0,32.000000
-28,-4,56,1624890619.0,32.000000
-29,-4,56,1624890619.0,32.000000
-29,-4,56,1624890619.0,32.000000
-29,-3,55,1624890619.0,32.000000
-29,-4,56,1624890619.0,32.000000
-27,-3,57,1624890619.0,32.000000
-27,-4,57,1624890619.0,32.000000
-27,-4,56,1624890619.0,32.000000
-27,-4,57,1624890619.0,32.000000
-26,-4,57,1624890619.0,32.000000
-27,-4,57,1624890619.0,32.000000
-27,-4,57,1624890619.0,32.000000
-29,-4,56,1624890619.0,32.000000
-27,-4,57,1624890619.0,32.000000
-26,-4,57,1624890619.0,32.000000
-27,-4,56,1624890619.0,32.000000
-27,-4,56,1624890619.0,32.000000
-27,-4,57,1624890619.0,32.000000
-27,-4,57,1624890619.0,32.000000
-27,-4,57,1624890619.0,32.000000
-27,-4,57,1624890619.0,32.000000
-25,-4,57,1624890619.0,32.000000
-25,-4,58,1624890619.0,32.000000
-27,-4,57,1624890619.0,32.000000
-27,-4,57,1624890619.0,32.000000
-21,-5,60,1624890619.0,32.000000
-25,-4,57,1624890619.0,32.000000
-27,-5,56,1624890619.0,32.000000
-26,-4,57,1624890619.0,32.000000
-26,-4,57,1624890619.0,32.000000
-24,-4,58,1624890619.0,32.000000
-25,-4,58,1624890619.0,32.000000
-26,-4,58,1624890619.0,32.000000
-25,-4,58,1624890619.0,32.000000
-28,-5,55,1624890619.0,32.000000
-25,-4,59,1624890619.0,32.000000
-22,-4,60,1624890619.0,32.000000
-23,-5,59,1624890619.0,32.000000
-26,-5,57,1624890619.0,32.000000
-25,-4,57,1624890619.0,32.000000
-23,-3,59,1624890619.0,32.000000
-24,-4,58,1624890619.0,32.000000
-25,-5,57,1624890619.0,32.000000
-25,-4,58,1624890619.0,32.000000
-24,-4,58,1624890619.0,32.000000
-24,-4,58,1624890619.0,32.000000
-25,-5,58,1624890619.0,32.000000
-24,-4,58,1624890619.0,32.000000
-24,-4,58,1624890619.0,32.000000
-24,-4,58,1624890619.0,32.000000
-26,-5,57,1624890619.0,32.000000
-27,-5,56,1624890619.0,32.000000
-28,-4,56,1624890619.0,32.000000
-24,-3,58,1624890619.0,32.000000
-21,-4,59,1624890619.0,32.000000
-19,-4,60,1624890619.0,32.000000
-16,-4,61,1624890619.0,32.000000
-16,-5,62,1624890619.0,32.000000
-15,-5,62,1624890619.0,32.000000
-20,-5,60,1624890619.0,32.000000
-22,-5,59,1624890619.0,32.000000
-24,-5,58,1624890619.0,32.000000
-21,-4,59,1624890619.0,32.000000
-21,-4,58,1624890619.0,32.000000
-20,-4,60,1624890619.0,32.000000
-22,-5,59,1624890619.0,32.000000
-21,-4,60,1624890619.0,32.000000
-21,-5,59,1624890619.0,32.000000
-21,-5,59,1624890619.0,32.000000
-22,-4,58,1624890619.0,32.000000
-22,-5,60,1624890619.0,32.000000
-17,-3,60,1624890619.0,32.000000
-22,-5,60,1624890619.0,32.000000
-21,-5,58,1624890619.0,32.000000
-19,-7,62,1624890619.0,32.000000
-19,-3,60,1624890619.0,32.000000
-20,-3,59,1624890619.0,32.000000
-21,-5,60,1624890619.0,32.000000
-21,-4,57,1624890619.0,32.000000
-20,-3,59,1624890619.0,32.000000
-23,-6,60,1624890619.0,32.000000
-19,-6,60,1624890619.0,32.000000
-20,-5,66,1624890619.0,32.000000
-18,-7,63,1624890619.0,32.000000
-13,-3,60,1624890619.0,32.000000
-11,-4,55,1624890619.0,32.000000
-11,-5,57,1624890619.0,32.000000
-10,-4,56,1624890619.0,32.000000
-12,-3,58,1624890619.0,32.000000
-14,-5,62,1624890619.0,32.000000
-17,-5,65,1624890619.0,32.000000
-13,-3,65,1624890619.0,32.000000
-20,-6,62,1624890619.0,32.000000
-17,-7,63,1624890619.0,32.000000
-16,-8,62,1624890619.0,32.000000
-13,-5,61,1624890619.0,32.000000
-15,-6,59,1624890619.0,32.000000
-16,-5,60,1624890619.0,32.000000
-18,-5,60,1624890619.0,32.000000
-17,-4,60,1624890619.0,32.000000
-17,-5,61,1624890619.0,32.000000
-17,-5,61,1624890619.0,32.000000
-17,-7,60,1624890619.0,32.000000
-16,-5,60,1624890619.0,32.000000
-16,-5,61,1624890619.0,32.000000
-12,-6,62,1624890619.0,32.000000
-16,-5,62,1624890619.0,32.000000
-17,-6,61,1624890619.0,32.000000
-16,-5,61,1624890619.0,32.000000
-18,-5,60,1624890619.0,32.000000
-17,-5,61,1624890619.0,32.000000
-16,-5,61,1624890619.0,32.000000
-16,-5,61,1624890619.0,32.000000
-16,-5,61,1624890619.0,32.000000
-17,-5,61,1624890619.0,32.000000
-18,-6,60,1624890619.0,32.000000
-16,-5,61,1624890619.0,32.000000
-16,-5,61,1624890619.0,32.000000
-16,-5,61,1624890619.0,32.000000
-17,-5,61,1624890619.0,32.000000
-17,-5,61,1624890619.0,32.000000
-16,-5,61,1624890619.0,32.000000
-16,-5,61,1624890619.0,32.000000
-16,-5,61,1624890619.0,32.000000
-16,-5,61,1624890619.0,32.000000
-16,-5,61,1624890619.0,32.000000
-16,-5,61,1624890619.0,32.000000
-16,-5,61,1624890619.0,32.000000
-16,-5,61,1624890619.0,32.000000
-16,-5,61,1624890619.0,32.000000
-17,-6,61,1624890619.0,32.000000
-16,-5,61,1624890619.0,32.000000
-18,-5,60,1624890619.0,32.000000
-18,-6,60,1624890619.0,32.000000
-14,-5,61,1624890619.0,32.000000
-17,-6,62,1624890619.0,32.000000
-20,-6,60,1624890619.0,32.000000
-16,-5,61,1624890619.0,32.000000
-14,-5,62,1624890619.0,32.000000
-17,-5,61,1624890619.0,32.000000
-16,-6,60,1624890619.0,32.000000
-14,-6,60,1624890619.0,32.000000
-17,-6,62,1624890619.0,32.000000
-16,-6,63,1624890619.0,32.000000
-19,-6,61,1624890619.0,32.000000
-17,-6,64,1624890619.0,32.000000
-16,-7,63,1624890619.0,32.000000
-11,-5,57,1624890619.0,32.000000
-9,-6,56,1624890619.0,32.000000
-11,-4,56,1624890619.0,32.000000
-13,-6,61,1624890619.0,32.000000
-16,-7,63,1624890619.0,32.000000
-19,-5,64,1624890619.0,32.000000
-16,-5,64,1624890619.0,32.000000
-14,-6,65,1624890619.0,32.000000
-18,-7,61,1624890619.0,32.000000
-14,-7,60,1624890619.0,32.000000
-15,-5,58,1624890619.0,32.000000
-15,-6,60,1624890619.0,32.000000
-15,-5,61,1624890619.0,32.000000
-16,-5,61,1624890619.0,32.000000
-16,-6,61,1624890619.0,32.000000
-16,-6,60,1624890619.0,32.000000
-14,-6,62,1624890619.0,32.000000
-11,-6,63,1624890619.0,32.000000
-20,-6,60,1624890619.0,32.000000
-17,-6,61,1624890619.0,32.000000
-15,-5,62,1624890619.0,32.000000
-15,-5,61,1624890619.0,32.000000
-16,-5,61,1624890619.0,32.000000
-15,-6,61,1624890619.0,32.000000
-15,-6,61,1624890619.0,32.000000
-14,-6,62,1624890619.0,32.000000
-16,-5,61,1624890619.0,32.000000
-15,-5,61,1624890619.0,32.000000
-15,-6,61,1624890619.0,32.000000
-15,-5,61,1624890619.0,32.000000
-15,-5,61,1624890619.0,32.000000
-15,-5,61,1624890619.0,32.000000
-15,-6,61,1624890619.0,32.000000
-15,-5,61,1624890619.0,32.000000
-15,-5,61,1624890619.0,32.000000
-15,-6,61,1624890619.0,32.000000
-16,-5,61,1624890619.0,32.000000
-15,-5,61,1624890619.0,32.000000
-16,-5,61,1624890619.0,32.000000
-15,-6,61,1624890619.0,32.000000
-15,-5,61,1624890619.0,32.000000
-16,-5,61,1624890619.0,32.000000
-15,-5,61,1624890619.0,32.000000
-15,-6,61,1624890619.0,32.000000
-15,-5,60,1624890619.0,32.000000
-16,-6,61,1624890619.0,32.000000
-16,-6,62,1624890619.0,32.000000
-15,-5,61,1624890619.0,32.000000
-15,-6,61,1624890619.0,32.000000
-15,-6,62,1624890619.0,32.000000
-19,-5,60,1624890619.0,32.000000
-15,-6,62,1624890619.0,32.000000
-15,-5,61,1624890619.0,32.000000
-14,-5,62,1624890619.0,32.000000
-15,-5,60,1624890619.0,32.000000
-15,-6,61,1624890619.0,32.000000
-15,-6,61,1624890619.0,32.000000
-16,-5,61,1624890619.0,32.000000
-15,-5,62,1624890619.0,32.000000
-13,-5,63,1624890619.0,32.000000
-16,-5,61,1624890619.0,32.000000
-18,-6,60,1624890619.0,32.000000
-15,-5,62,1624890619.0,32.000000
-11,-4,64,1624890619.0,32.000000
-12,-5,67,1624890619.0,32.000000
-22,-7,60,1624890619.0,32.000000
-19,-6,61,1624890619.0,32.000000
-22,-2,57,1624890619.0,32.000000
-23,-3,55,1624890619.0,32.000000
-23,-5,53,1624890619.0,32.000000
-9,-2,58,1624890619.0,32.000000
-14,-8,63,1624890619.0,32.000000
-16,-3,63,1624890619.0,32.000000
-23,-4,63,1624890619.0,32.000000
-21,-2,64,1624890619.0,32.000000
-18,-6,62,1624890619.0,32.000000
-16,-7,60,1624890619.0,32.000000
-16,-7,58,1624890619.0,32.000000
-17,-4,58,1624890619.0,32.000000
-17,-5,60,1624890619.0,32.000000
-17,-4,61,1624890619.0,32.000000
-18,-5,61,1624890619.0,32.000000
-17,-5,61,1624890619.0,32.000000
-16,-5,61,1624890619.0,32.000000
-17,-5,60,1624890619.0,32.000000
-17,-6,60,1624890619.0,32.000000
-17,-5,60,1624890619.0,32.000000
-18,-5,61,1624890619.0,32.000000
-17,-5,61,1624890619.0,32.000000
-18,-6,60,1624890619.0,32.000000
-16,-5,61,1624890619.0,32.000000
-16,-5,61,1624890619.0,32.000000
-16,-5,61,1624890619.0,32.000000
-18,-5,61,1624890619.0,32.000000
-17,-5,61,1624890619.0,32.000000
-17,-5,61,1624890619.0,32.000000
-16,-5,61,1624890619.0,32.000000
-17,-5,60,1624890619.0,32.000000
-17,-5,61,1624890619.0,32.000000
-17,-5,61,1624890619.0,32.000000
-18,-5,60,1624890619.0,32.000000
-17,-4,61,1624890619.0,32.000000
-17,-5,61,1624890619.0,32.000000
-17,-6,61,1624890619.0,32.000000
-17,-5,61,1624890619.0,32.000000
-17,-5,60,1624890619.0,32.000000
-17,-5,61,1624890619.0,32.000000
-17,-5,61,1624890619.0,32.000000
-17,-5,61,1624890619.0,32.000000
-17,-5,61,1624890619.0,32.000000
-17,-6,60,1624890619.0,32.000000
-17,-5,61,1624890619.0,32.000000
-18,-5,60,1624890619.0,32.000000
-17,-5,60,1624890619.0,32.000000
-17,-5,61,1624890619.0,32.000000
-17,-5,61,1624890619.0,32.000000
-17,-5,61,1624890619.0,32.000000
-17,-5,61,1624890619.0,32.000000
-17,-5,60,1624890619.0,32.000000
-17,-5,60,1624890619.0,32.000000
-17,-5,61,1624890619.0,32.000000
-17,-5,61,1624890619.0,32.000000
-17,-5,61,1624890619.0,32.000000
-18,-5,60,1624890619.0,32.000000
-18,-5,61,1624890619.0,32.000000
-17,-5,61,1624890619.0,32.000000
-15,-5,61,1624890619.0,32.000000
-16,-6,61,1624890619.0,32.000000
-17,-5,60,1624890619.0,32.000000
-15,-5,62,1624890619.0,32.000000
-18,-5,60,1624890619.0,32.000000
-18,-6,60,1624890619.0,32.000000
-16,-6,61,1624890619.0,32.000000
-18,-5,61,1624890619.0,32.000000
-21,-5,59,1624890619.0,32.000000
-13,-5,62,1624890619.0,32.000000
-15,-5,60,1624890619.0,32.000000
-21,-6,59,1624890619.0,32.000000
-18,-5,60,1624890619.0,32.000000
-16,-5,61,1624890619.0,32.000000
-15,-4,62,1624890619.0,32.000000
-16,-5,59,1624890619.0,32.000000
-26,-4,57,1624890619.0,32.000000
-18,-5,60,1624890619.0,32.000000
-16,-6,61,1624890619.0,32.000000
-19,-5,61,1624890619.0,32.000000
-18,-5,59,1624890619.0,32.000000
-16,-6,61,1624890619.0,32.000000
-16,-4,61,1624890619.0,32.000000
-21,-6,61,1624890619.0,32.000000
-17,-2,64,1624890619.0,32.000000
-20,-1,63,1624890619.0,32.000000
-22,-5,57,1624890619.0,32.000000
-19,-6,57,1624890619.0,32.000000
-17,-3,54,1624890619.0,32.000000
-15,-4,54,1624890619.0,32.000000
-11,-4,62,1624890619.0,32.000000
-16,-7,63,1624890619.0,32.000000
-24,-3,62,1624890619.0,32.000000
-19,-4,64,1624890619.0,32.000000
-18,-5,64,1624890619.0,32.000000
-13,-6,62,1624890619.0,32.000000
-17,-7,59,1624890619.0,32.000000
-17,-6,58,1624890619.0,32.000000
-20,-5,59,1624890619.0,32.000000
-19,-4,61,1624890619.0,32.000000
-18,-5,61,1624890619.0,32.000000
-17,-5,61,1624890619.0,32.000000
-19,-6,60,1624890619.0,32.000000
-17,-5,60,1624890619.0,32.000000
-18,-5,60,1624890619.0,32.000000
-17,-4,60,1624890619.0,32.000000
-19,-5,60,1624890619.0,32.000000
-18,-4,61,1624890619.0,32.000000
-17,-5,61,1624890619.0,32.000000
-18,-5,60,1624890619.0,32.000000
-17,-5,60,1624890619.0,32.000000
-18,-5,60,1624890619.0,32.000000
-18,-5,61,1624890619.0,32.000000
-18,-5,59,1624890619.0,32.000000
-17,-6,61,1624890619.0,32.000000
-17,-6,60,1624890619.0,32.000000
-17,-5,61,1624890619.0,32.000000
-17,-5,60,1624890619.0,32.000000
-22,-6,61,1624890619.0,32.000000
-17,-3,61,1624890619.0,32.000000
-17,-5,64,1624890619.0,32.000000
-18,-3,60,1624890619.0,32.000000
-15,-4,59,1624890619.0,32.000000
-17,-9,58,1624890619.0,32.000000
-12,-7,59,1624890619.0,32.000000
-8,-5,58,1624890619.0,32.000000
-16,-3,58,1624890619.0,32.000000
-18,-5,60,1624890619.0,32.000000
-20,-5,62,1624890619.0,32.000000
-20,-6,63,1624890619.0,32.000000
-17,-5,64,1624890619.0,32.000000
-15,-6,62,1624890619.0,32.000000
-18,-6,59,1624890619.0,32.000000
-17,-5,59,1624890619.0,32.000000
-18,-5,59,1624890619.0,32.000000
-18,-5,60,1624890619.0,32.000000
-17,-5,61,1624890619.0,32.000000
-17,-5,61,1624890619.0,32.000000
-17,-5,61,1624890619.0,32.000000
-18,-5,60,1624890619.0,32.000000
-18,-5,60,1624890619.0,32.000000
-16,-5,61,1624890619.0,32.000000
-17,-5,61,1624890619.0,32.000000
-17,-5,60,1624890619.0,32.000000
-18,-5,61,1624890619.0,32.000000
-17,-5,61,1624890619.0,32.000000
-16,-5,61,1624890619.0,32.000000
-18,-5,60,1624890619.0,32.000000
-18,-5,60,1624890619.0,32.000000
-17,-5,60,1624890619.0,32.000000
-17,-5,61,1624890619.0,32.000000
-17,-5,61,1624890619.0,32.000000
-17,-5,61,1624890619.0,32.000000
-18,-5,60,1624890619.0,32.000000
-19,-6,60,1624890619.0,32.000000
-16,-5,61,1624890619.0,32.000000
-16,-5,61,1624890619.0,32.000000
-18,-5,60,1624890619.0,32.000000
-17,-5,61,1624890619.0,32.000000
-17,-5,60,1624890619.0,32.000000
-14,-5,61,1624890619.0,32.000000
-18,-5,62,1624890619.0,32.000000
-18,-5,61,1624890619.0,32.000000
-16,-5,61,1624890619.0,32.000000
-17,-5,61,1624890619.0,32.000000
-18,-5,61,1624890619.0,32.000000
-18,-5,60,1624890619.0,32.000000
-17,-5,61,1624890619.0,32.000000
-17,-5,60,1624890619.0,32.000000
-18,-5,60,1624890619.0,32.000000
-18,-5,60,1624890619.0,32.000000
-18,-5,60,1624890619.0,32.000000
-16,-5,61,1624890619.0,32.000000
-17,-5,61,1624890619.0,32.000000
-19,-5,61,1624890619.0,32.000000
-16,-5,61,1624890619.0,32.000000
-17,-6,59,1624890619.0,32.000000
-20,-5,59,1624890619.0,32.000000
-20,-4,60,1624890619.0,32.000000
-19,-6,61,1624890619.0,32.000000
-17,-6,61,1624890619.0,32.000000
-15,-5,62,1624890619.0,32.000000
-21,-5,60,1624890619.0,32.000000
-19,-6,61,1624890619.0,32.000000
-17,-5,59,1624890619.0,32.000000
-18,-5,66,1624890619.0,32.000000
-18,-8,62,1624890619.0,32.000000
-16,-4,57,1624890619.0,32.000000
-8,-7,55,1624890619.0,32.000000
-13,-6,55,1624890619.0,32.000000
-14,-6,59,1624890619.0,32.000000
-19,-5,62,1624890619.0,32.000000
-20,-4,63,1624890619.0,32.000000
-21,-5,64,1624890619.0,32.000000
-16,-5,63,1624890619.0,32.000000
-18,-7,62,1624890619.0,32.000000
-15,-7,61,1624890619.0,32.000000
-15,-7,60,1624890619.0,32.000000
-17,-5,60,1624890619.0,32.000000
-17,-5,61,1624890619.0,32.000000
-17,-5,61,1624890619.0,32.000000
-18,-5,61,1624890619.0,32.000000
-17,-5,60,1624890619.0,32.000000
-17,-6,60,1624890619.0,32.000000
-16,-6,61,1624890619.0,32.000000
-17,-6,61,1624890619.0,32.000000
-17,-5,60,1624890619.0,32.000000
-17,-4,61,1624890619.0,32.000000
-19,-5,60,1624890619.0,32.000000
-17,-5,61,1624890619.0,32.000000
-17,-5,61,1624890619.0,32.000000
-17,-6,61,1624890619.0,32.000000
-17,-6,61,1624890619.0,32.000000
-18,-5,61,1624890619.0,32.000000
-17,-5,61,1624890619.0,32.000000
-17,-5,61,1624890619.0,32.000000
-17,-5,60,1624890619.0,32.000000
-17,-5,61,1624890619.0,32.000000
-17,-5,60,1624890619.0,32.000000
-18,-5,61,1624890619.0,32.000000
-17,-5,61,1624890619.0,32.000000
-17,-5,60,1624890619.0,32.000000
-16,-5,61,1624890619.0,32.000000
-17,-5,61,1624890619.0,32.000000
-18,-5,60,1624890619.0,32.000000
-17,-5,61,1624890619.0,32.000000
-17,-6,61,1624890619.0,32.000000
-17,-5,61,1624890619.0,32.000000
-17,-5,61,1624890619.0,32.000000
-16,-5,60,1624890619.0,32.000000
-18,-5,61,1624890619.0,32.000000
-18,-4,60,1624890619.0,32.000000
-18,-5,60,1624890619.0,32.000000
-18,-5,61,1624890619.0,32.000000
-17,-5,61,1624890619.0,32.000000
-17,-6,61,1624890619.0,32.000000
-17,-6,61,1624890619.0,32.000000
-18,-5,60,1624890619.0,32.000000
-18,-5,60,1624890619.0,32.000000
-17,-5,61,1624890619.0,32.000000
-17,-5,60,1624890619.0,32.000000
-17,-5,60,1624890619.0,32.000000
-18,-5,60,1624890619.0,32.000000
-17,-5,61,1624890619.0,32.000000
-16,-5,61,1624890619.0,32.000000
-18,-5,61,1624890619.0,32.000000
-19,-5,60,1624890619.0,32.000000
-18,-6,61,1624890619.0,32.000000
-18,-5,60,1624890619.0,32.000000
-18,-4,61,1624890619.0,32.000000
-16,-6,61,1624890619.0,32.000000
-22,-5,57,1624890619.0,32.000000
-15,-6,61,1624890619.0,32.000000
-19,-6,61,1624890619.0,32.000000
-18,-5,60,1624890619.0,32.000000
-16,-6,62,1624890619.0,32.000000
-20,-4,60,1624890619.0,32.000000
-19,-5,60,1624890619.0,32.000000
-16,-4,59,1624890619.0,32.000000
-16,-6,69,1624890619.0,32.000000
-20,-5,68,1624890619.0,32.000000
-29,-3,55,1624890619.0,32.000000
-20,-3,56,1624890619.0,32.000000
-21,-5,52,1624890619.0,32.000000
-15,-4,53,1624890619.0,32.000000
-12,-4,54,1624890619.0,32.000000
-16,-5,62,1624890619.0,32.000000
-20,-6,66,1624890619.0,32.000000
-25,-4,64,1624890619.0,32.000000
-20,-4,63,1624890619.0,32.000000
-20,-7,62,1624890619.0,32.000000
-17,-7,60,1624890619.0,32.000000
-17,-6,57,1624890619.0,32.000000
-17,-5,59,1624890619.0,32.000000
-18,-5,60,1624890619.0,32.000000
-18,-4,61,1624890619.0,32.000000
-20,-5,60,1624890619.0,32.000000
-18,-5,60,1624890619.0,32.000000
-17,-5,61,1624890619.0,32.000000
-18,-6,60,1624890619.0,32.000000
-18,-5,60,1624890619.0,32.000000
-19,-4,60,1624890619.0,32.000000
-19,-5,61,1624890619.0,32.000000
-19,-5,60,1624890619.0,32.000000
-18,-5,61,1624890619.0,32.000000
-19,-5,60,1624890619.0,32.000000
-19,-4,60,1624890619.0,32.000000
-19,-4,60,1624890619.0,32.000000
-19,-5,60,1624890619.0,32.000000
-19,-5,60,1624890619.0,32.000000
-18,-5,60,1624890619.0,32.000000
-19,-5,60,1624890619.0,32.000000
-19,-5,60,1624890619.0,32.000000
-19,-5,60,1624890619.0,32.000000
-18,-5,60,1624890619.0,32.000000
-19,-5,60,1624890619.0,32.000000
-19,-5,60,1624890619.0,32.000000
-18,-5,60,1624890619.0,32.000000
-18,-5,60,1624890619.0,32.000000
-19,-5,60,1624890619.0,32.000000
-19,-5,60,1624890619.0,32.000000
-19,-5,60,1624890619.0,32.000000
-18,-5,60,1624890619.0,32.000000
-19,-5,60,1624890619.0,32.000000
-18,-5,61,1624890619.0,32.000000
-18,-4,61,1624890619.0,32.000000
-19,-5,59,1624890619.0,32.000000
-19,-5,60,1624890619.0,32.000000
-18,-4,60,1624890619.0,32.000000
-18,-5,61,1624890619.0,32.000000
-19,-5,61,1624890619.0,32.000000
-20,-4,63,1624890619.0,32.000000
-21,-7,68,1624890619.0,32.000000
-20,-3,62,1624890619.0,32.000000
-20,-6,61,1624890619.0,32.000000
-13,-4,55,1624890619.0,32.000000
-10,-6,53,1624890619.0,32.000000
-10,-6,53,1624890619.0,32.000000
-16,-4,55,1624890619.0,32.000000
-17,-3,63,1624890619.0,32.000000
-26,-6,66,1624890619.0,32.000000
-20,-4,63,1624890619.0,32.000000
-20,-4,61,1624890619.0,32.000000
-20,-7,61,1624890619.0,32.000000
-16,-7,61,1624890619.0,32.000000
-15,-5,60,1624890619.0,32.000000
-18,-5,58,1624890619.0,32.000000
-19,-5,59,1624890619.0,32.000000
-19,-4,61,1624890619.0,32.000000
-19,-5,61,1624890619.0,32.000000
-20,-5,60,1624890619.0,32.000000
-19,-5,60,1624890619.0,32.000000
-18,-5,60,1624890619.0,32.000000
-17,-5,60,1624890619.0,32.000000
-19,-5,60,1624890619.0,32.000000
-19,-5,60,1624890619.0,32.000000
-19,-5,61,1624890619.0,32.000000
-18,-5,61,1624890619.0,32.000000
-18,-5,60,1624890619.0,32.000000
-18,-5,60,1624890619.0,32.000000
-18,-5,60,1624890619.0,32.000000
-19,-5,60,1624890619.0,32.000000
-19,-5,60,1624890619.0,32.000000
-19,-5,60,1624890619.0,32.000000
-18,-5,61,1624890619.0,32.000000
-18,-5,60,1624890619.0,32.000000
-19,-5,60,1624890619.0,32.000000
-19,-5,60,1624890619.0,32.000000
-18,-5,60,1624890619.0,32.000000
-18,-5,60,1624890619.0,32.000000
-19,-5,60,1624890619.0,32.000000
-19,-5,60,1624890619.0,32.000000
-18,-5,60,1624890619.0,32.000000
-18,-5,61,1624890619.0,32.000000
-19,-5,60,1624890619.0,32.000000
-19,-5,60,1624890619.0,32.000000
-18,-5,61,1624890619.0,32.000000
-19,-5,60,1624890619.0,32.000000
-19,-5,60,1624890619.0,32.000000
-18,-5,60,1624890619.0,32.000000
-18,-5,61,1624890619.0,32.000000
-18,-5,60,1624890619.0,32.000000
-19,-5,60,1624890619.0,32.000000
-19,-5,60,1624890619.0,32.000000
-18,-5,61,1624890619.0,32.000000
-18,-5,60,1624890619.0,32.000000
-19,-5,60,1624890619.0,32.000000
-19,-5,60,1624890619.0,32.000000
-18,-5,60,1624890619.0,32.000000
-18,-5,61,1624890619.0,32.000000
-19,-5,60,1624890619.0,32.000000
-19,-6,60,1624890619.0,32.000000
-23,-5,57,1624890619.0,32.000000
-21,-5,63,1624890619.0,32.000000
-25,-4,65,1624890619.0,32.000000
-16,-4,63,1624890619.0,32.000000
-19,-4,60,1624890619.0,32.000000
-22,-5,55,1624890619.0,32.000000
-10,-8,57,1624890619.0,32.000000
-4,-5,59,1624890619.0,32.000000
-3,-5,55,1624890619.0,32.000000
-15,-4,64,1624890619.0,32.000000
-26,-9,64,1624890619.0,32.000000
-25,0,61,1624890619.0,32.000000
-25,-3,61,1624890619.0,32.000000
-16,-6,62,1624890619.0,32.000000
-18,-6,61,1624890619.0,32.000000
-19,-7,58,1624890619.0,32.000000
-17,-4,60,1624890619.0,32.000000
-19,-4,59,1624890619.0,32.000000
-18,-5,61,1624890619.0,32.000000
-19,-5,60,1624890619.0,32.000000
-19,-5,61,1624890619.0,32.000000
-19,-5,60,1624890619.0,32.000000
-18,-4,60,1624890619.0,32.000000
-17,-5,61,1624890619.0,32.000000
-20,-4,59,1624890619.0,32.000000
-21,-6,59,1624890619.0,32.000000
-20,-5,60,1624890619.0,32.000000
-20,-5,60,1624890619.0,32.000000
-19,-5,61,1624890619.0,32.000000
-20,-6,60,1624890619.0,32.000000
-20,-5,60,1624890619.0,32.000000
-19,-5,60,1624890619.0,32.000000
-20,-5,60,1624890619.0,32.000000
-20,-5,60,1624890619.0,32.000000
-20,-5,60,1624890619.0,32.000000
-20,-5,59,1624890619.0,32.000000
-20,-5,60,1624890619.0,32.000000
-20,-5,60,1624890619.0,32.000000
-20,-5,60,1624890619.0,32.000000
-20,-5,60,1624890619.0,32.000000
-20,-5,60,1624890619.0,32.000000
-20,-4,60,1624890619.0,32.000000
-20,-5,60,1624890619.0,32.000000
-19,-5,60,1624890619.0,32.000000
-20,-4,60,1624890619.0,32.000000
-20,-5,60,1624890619.0,32.000000
-20,-5,60,1624890619.0,32.000000
-20,-4,60,1624890619.0,32.000000
-20,-5,60,1624890619.0,32.000000
-20,-5,60,1624890619.0,32.000000
-20,-5,60,1624890619.0,32.000000
-20,-5,60,1624890619.0,32.000000
-20,-5,60,1624890619.0,32.000000
-20,-5,60,1624890619.0,32.000000
-20,-5,60,1624890619.0,32.000000
-20,-5,60,1624890619.0,32.000000
-20,-5,60,1624890619.0,32.000000
-20,-5,60,1624890619.0,32.000000
-20,-5,59,1624890619.0,32.000000
-20,-5,60,1624890619.0,32.000000
-20,-5,60,1624890619.0,32.000000
-19,-6,60,1624890619.0,32.000000
-20,-6,61,1624890619.0,32.000000
-20,-5,60,1624890619.0,32.000000
-21,-5,60,1624890619.0,32.000000
-21,-5,60,1624890619.0,32.000000
-21,-4,58,1624890619.0,32.000000
-22,-6,60,1624890619.0,32.000000
-20,-5,59,1624890619.0,32.000000
-21,-5,60,1624890619.0,32.000000
-19,-5,60,1624890619.0,32.000000
-19,-6,60,1624890619.0,32.000000
-20,-5,60,1624890619.0,32.000000
-19,-6,63,1624890619.0,32.000000
-21,-5,60,1624890619.0,32.000000
-24,-5,64,1624890619.0,32.000000
-17,-6,61,1624890619.0,32.000000
-13,-4,57,1624890619.0,32.000000
-13,-6,55,1624890619.0,32.000000
-13,-4,54,1624890619.0,32.000000
-14,-3,55,1624890619.0,32.000000
-20,-7,63,1624890619.0,32.000000
-22,-5,64,1624890619.0,32.000000
-22,-5,64,1624890619.0,32.000000
-19,-5,62,1624890619.0,32.000000
-19,-6,62,1624890619.0,32.000000
-13,-6,63,1624890619.0,32.000000
-14,-6,61,1624890619.0,32.000000
-22,-6,59,1624890619.0,32.000000
-20,-5,59,1624890619.0,32.000000
-19,-5,60,1624890619.0,32.000000
-18,-4,61,1624890619.0,32.000000
-18,-5,61,1624890619.0,32.000000
-18,-6,60,1624890619.0,32.000000
-18,-5,60,1624890619.0,32.000000
-20,-5,60,1624890619.0,32.000000
-18,-5,60,1624890619.0,32.000000
-17,-5,61,1624890619.0,32.000000
-19,-5,61,1624890619.0,32.000000
-19,-5,60,1624890619.0,32.000000
-18,-6,61,1624890619.0,32.000000
-17,-6,61,1624890619.0,32.000000
-19,-5,60,1624890619.0,32.000000
-19,-5,60,1624890619.0,32.000000
-18,-5,61,1624890619.0,32.000000
-18,-5,61,1624890619.0,32.000000
-19,-5,60,1624890619.0,32.000000
-18,-5,60,1624890619.0,32.000000
-18,-5,60,1624890619.0,32.000000
-19,-5,60,1624890619.0,32.000000
-18,-5,60,1624890619.0,32.000000
-19,-5,60,1624890619.0,32.000000
-18,-5,60,1624890619.0,32.000000
-18,-5,60,1624890619.0,32.000000
-19,-5,60,1624890619.0,32.000000
-19,-5,60,1624890619.0,32.000000
-19,-5,60,1624890619.0,32.000000
-19,-5,60,1624890619.0,32.000000
-18,-5,60,1624890619.0,32.000000
-19,-5,60,1624890619.0,32.000000
-19,-5,60,1624890619.0,32.000000
-19,-5,60,1624890619.0,32.000000
-19,-5,60,1624890619.0,32.000000
-18,-5,60,1624890619.0,32.000000
-19,-5,60,1624890619.0,32.000000
-18,-5,60,1624890619.0,32.000000
-19,-5,60,1624890619.0,32.000000
-19,-6,60,1624890619.0,32.000000
-19,-5,59,1624890619.0,32.000000
-17,-5,60,1624890619.0,32.000000
-20,-5,60,1624890619.0,32.000000
-20,-5,60,1624890619.0,32.000000
-19,-5,61,1624890619.0,32.000000
-19,-4,61,1624890619.0,32.000000
-19,-5,62,1624890619.0,32.000000
-22,-8,63,1624890619.0,32.000000
-17,-3,60,1624890619.0,32.000000
-19,-4,60,1624890619.0,32.000000
-17,-7,60,1624890619.0,32.000000
-14,-6,57,1624890619.0,32.000000
-12,-5,54,1624890619.0,32.000000
-11,-3,55,1624890619.0,32.000000
-12,-5,61,1624890619.0,32.000000
-22,-5,62,1624890619.0,32.000000
-25,-5,63,1624890619.0,32.000000
-22,-5,63,1624890619.0,32.000000
-18,-6,61,1624890619.0,32.000000
-19,-7,61,1624890619.0,32.000000
-15,-6,60,1624890619.0,32.000000
-19,-5,58,1624890619.0,32.000000
-18,-5,59,1624890619.0,32.000000
-19,-5,61,1624890619.0,32.000000
-18,-5,62,1624890619.0,32.000000
-19,-6,60,1624890619.0,32.000000
-19,-6,60,1624890619.0,32.000000
-17,-6,61,1624890619.0,32.000000
-18,-5,60,1624890619.0,32.000000
-19,-5,60,1624890619.0,32.000000
-19,-5,60,1624890619.0,32.000000
-18,-5,61,1624890619.0,32.000000
-18,-5,60,1624890619.0,32.000000
-19,-5,60,1624890619.0,32.000000
-18,-5,60,1624890619.0,32.000000
-17,-5,60,1624890619.0,32.000000
-19,-5,60,1624890619.0,32.000000
-19,-6,60,1624890619.0,32.000000
-18,-5,61,1624890619.0,32.000000
-18,-5,60,1624890619.0,32.000000
-18,-5,60,1624890619.0,32.000000
-18,-5,60,1624890619.0,32.000000
-18,-5,60,1624890619.0,32.000000
-19,-5,60,1624890619.0,32.000000
-18,-5,60,1624890619.0,32.000000
-18,-5,61,1624890619.0,32.000000
-18,-6,60,1624890619.0,32.000000
-19,-5,60,1624890619.0,32.000000
-19,-5,60,1624890619.0,32.000000
-18,-6,60,1624890619.0,32.000000
-18,-5,61,1624890619.0,32.000000
-19,-5,60,1624890619.0,32.000000
-19,-5,60,1624890619.0,32.000000
-18,-5,60,1624890619.0,32.000000
-18,-5,60,1624890619.0,32.000000
-19,-5,60,1624890619.0,32.000000
-19,-5,60,1624890619.0,32.000000
-18,-5,60,1624890619.0,32.000000
-18,-6,60,1624890619.0,32.000000
-19,-5,60,1624890619.0,32.000000
-19,-5,60,1624890619.0,32.000000
-19,-5,59,1624890619.0,32.000000
-19,-5,61,1624890619.0,32.000000
-20,-5,60,1624890619.0,32.000000
-19,-5,61,1624890619.0,32.000000
-19,-5,61,1624890619.0,32.000000
-17,-6,60,1624890619.0,32.000000
-17,-6,60,1624890619.0,32.000000
-19,-5,60,1624890619.0,32.000000
-18,-6,62,1624890619.0,32.000000
-20,-5,63,1624890619.0,32.000000
-21,-7,64,1624890619.0,32.000000
-17,-5,63,1624890619.0,32.000000
-17,-6,61,1624890619.0,32.000000
-15,-7,56,1624890619.0,32.000000
-14,-6,56,1624890619.0,32.000000
-14,-5,55,1624890619.0,32.000000
-14,-4,59,1624890619.0,32.000000
-24,-7,63,1624890619.0,32.000000
-24,-3,61,1624890619.0,32.000000
-15,-5,66,1624890619.0,32.000000
-20,-4,62,1624890619.0,32.000000
-16,-6,62,1624890619.0,32.000000
-17,-6,59,1624890619.0,32.000000
-18,-6,58,1624890619.0,32.000000
-19,-4,58,1624890619.0,32.000000
-19,-5,60,1624890619.0,32.000000
-20,-5,61,1624890619.0,32.000000
-19,-5,61,1624890619.0,32.000000
-18,-6,61,1624890619.0,32.000000
-18,-5,60,1624890619.0,32.000000
-19,-5,60,1624890619.0,32.000000
-19,-6,60,1624890619.0,32.000000
-19,-5,60,1624890619.0,32.000000
-20,-5,60,1624890619.0,32.000000
-19,-5,60,1624890619.0,32.000000
-18,-5,60,1624890619.0,32.000000
-18,-6,60,1624890619.0,32.000000
-19,-5,60,1624890619.0,32.000000
-19,-5,60,1624890619.0,32.000000
-19,-5,60,1624890619.0,32.000000
-19,-6,60,1624890619.0,32.000000
-18,-6,61,1624890619.0,32.000000
-19,-5,60,1624890619.0,32.000000
-19,-6,60,1624890619.0,32.000000
-19,-5,60,1624890619.0,32.000000
-19,-5,60,1624890619.0,32.000000
-19,-6,60,1624890619.0,32.000000
-19,-5,60,1624890619.0,32.000000
-19,-5,60,1624890619.0,32.000000
-19,-6,60,1624890619.0,32.000000
-19,-5,60,1624890619.0,32.000000
-19,-5,60,1624890619.0,32.000000
-19,-5,60,1624890619.0,32.000000
-19,-5,60,1624890619.0,32.000000
-19,-5,60,1624890619.0,32.000000
-19,-5,60,1624890619.0,32.000000
-19,-5,60,1624890619.0,32.000000
-19,-5,60,1624890619.0,32.000000
-19,-6,60,1624890619.0,32.000000
-19,-5,60,1624890619.0,32.000000
-19,-6,59,1624890619.0,32.000000
-18,-5,60,1624890619.0,32.000000
-18,-5,61,1624890619.0,32.000000
-20,-5,60,1624890619.0,32.000000
-19,-5,60,1624890619.0,32.000000
-19,-6,60,1624890619.0,32.000000
-18,-5,60,1624890619.0,32.000000
-19,-6,60,1624890619.0,32.000000
-19,-5,60,1624890619.0,32.000000
-20,-6,60,1624890619.0,32.000000
-18,-6,61,1624890619.0,32.000000
-19,-5,60,1624890619.0,32.000000
-18,-6,60,1624890619.0,32.000000
-19,-5,60,1624890619.0,32.000000
-19,-6,60,1624890619.0,32.000000
-20,-5,60,1624890619.0,32.000000
-20,-6,63,1624890619.0,32.000000
-23,-5,61,1624890619.0,32.000000
-18,-6,61,1624890619.0,32.000000
-12,-6,60,1624890619.0,32.000000
-11,-6,58,1624890619.0,32.000000
-14,-6,55,1624890619.0,32.000000
-16,-5,54,1624890619.0,32.000000
-18,-5,59,1624890619.0,32.000000
-18,-7,64,1624890619.0,32.000000
-19,-5,63,1624890619.0,32.000000
-23,-6,62,1624890619.0,32.000000
-20,-7,61,1624890619.0,32.000000
-17,-7,61,1624890619.0,32.000000
-16,-7,60,1624890619.0,32.000000
-19,-6,59,1624890619.0,32.000000
-20,-5,60,1624890619.0,32.000000
-19,-5,60,1624890619.0,32.000000
-19,-5,61,1624890619.0,32.000000
-18,-5,60,1624890619.0,32.000000
-19,-6,59,1624890619.0,32.000000
-18,-5,60,1624890619.0,32.000000
-19,-6,60,1624890619.0,32.000000
-19,-5,60,1624890619.0,32.000000
-20,-5,60,1624890619.0,32.000000
-20,-5,60,1624890619.0,32.000000
-19,-6,60,1624890619.0,32.000000
-19,-5,60,1624890619.0,32.000000
-19,-6,59,1624890619.0,32.000000
-18,-5,60,1624890619.0,32.000000
-19,-5,60,1624890619.0,32.000000
-19,-5,61,1624890619.0,32.000000
-19,-6,60,1624890619.0,32.000000
-19,-5,60,1624890619.0,32.000000
-18,-5,60,1624890619.0,32.000000
-19,-5,60,1624890619.0,32.000000
-19,-5,60,1624890619.0,32.000000
-18,-5,60,1624890619.0,32.000000
-19,-5,60,1624890619.0,32.000000
-19,-5,60,1624890619.0,32.000000
-18,-5,60,1624890619.0,32.000000
-18,-6,61,1624890619.0,32.000000
-19,-6,60,1624890619.0,32.000000
-18,-5,61,1624890619.0,32.000000
-18,-5,60,1624890619.0,32.000000
-19,-5,59,1624890619.0,32.000000
