ACC_X,ACC_Y,ACC_Z,start_time_unix,sampling_rate
-32,-13,55,1625853039.0,32.000000
-32,-13,55,1625853039.0,32.000000
-33,-13,56,1625853039.0,32.000000
-33,-13,56,1625853039.0,32.000000
-33,-13,54,1625853039.0,32.000000
-33,-13,54,1625853039.0,32.000000
-32,-13,56,1625853039.0,32.000000
-32,-13,56,1625853039.0,32.000000
-33,-13,55,1625853039.0,32.000000
-33,-13,55,1625853039.0,32.000000
-32,-13,55,1625853039.0,32.000000
-32,-13,56,1625853039.0,32.000000
-32,-14,56,1625853039.0,32.000000
-32,-13,56,1625853039.0,32.000000
-32,-13,56,1625853039.0,32.000000
-31,-13,56,1625853039.0,32.000000
-32,-13,55,1625853039.0,32.000000
-32,-13,56,1625853039.0,32.000000
-32,-13,55,1625853039.0,32.000000
-32,-13,56,1625853039.0,32.000000
-32,-13,55,1625853039.0,32.000000
-32,-13,55,1625853039.0,32.000000
-32,-13,55,1625853039.0,32.000000
-31,-13,56,1625853039.0,32.000000
-31,-13,56,1625853039.0,32.000000
-32,-13,56,1625853039.0,32.000000
-32,-14,56,1625853039.0,32.000000
-32,-13,55,1625853039.0,32.000000
-31,-14,56,1625853039.0,32.000000
-31,-14,56,1625853039.0,32.000000
-32,-14,56,1625853039.0,32.000000
-32,-14,55,1625853039.0,32.000000
-32,-14,55,1625853039.0,32.000000
-32,-14,56,1625853039.0,32.000000
-32,-14,56,1625853039.0,32.000000
-32,-13,55,1625853039.0,32.000000
-32,-14,55,1625853039.0,32.000000
-32,-13,55,1625853039.0,32.000000
-33,-15,55,1625853039.0,32.000000
-32,-15,55,1625853039.0,32.000000
-30,-13,56,1625853039.0,32.000000
-31,-14,57,1625853039.0,32.000000
-30,-16,57,1625853039.0,32.000000
-31,-14,57,1625853039.0,32.000000
-32,-15,55,1625853039.0,32.000000
-26,-16,56,1625853039.0,32.000000
-25,-15,56,1625853039.0,32.000000
-28,-13,57,1625853039.0,32.000000
-27,-14,57,1625853039.0,32.000000
-27,-15,57,1625853039.0,32.000000
-30,-15,57,1625853039.0,32.000000
-28,-15,58,1625853039.0,32.000000
-21,-15,58,1625853039.0,32.000000
-23,-15,60,1625853039.0,32.000000
-23,-15,59,1625853039.0,32.000000
-25,-15,57,1625853039.0,32.000000
-24,-16,58,1625853039.0,32.000000
-24,-17,58,1625853039.0,32.000000
-25,-15,58,1625853039.0,32.000000
-27,-14,57,1625853039.0,32.000000
-27,-15,58,1625853039.0,32.000000
-24,-15,58,1625853039.0,32.000000
-24,-15,58,1625853039.0,32.000000
-26,-15,58,1625853039.0,32.000000
-27,-15,58,1625853039.0,32.000000
-24,-15,59,1625853039.0,32.000000
-25,-14,58,1625853039.0,32.000000
-26,-14,58,1625853039.0,32.000000
-26,-14,58,1625853039.0,32.000000
-26,-14,58,1625853039.0,32.000000
-25,-14,58,1625853039.0,32.000000
-25,-14,58,1625853039.0,32.000000
-27,-15,58,1625853039.0,32.000000
-28,-15,58,1625853039.0,32.000000
-26,-15,58,1625853039.0,32.000000
-27,-14,58,1625853039.0,32.000000
-27,-13,58,1625853039.0,32.000000
-28,-13,57,1625853039.0,32.000000
-28,-13,57,1625853039.0,32.000000
-30,-16,58,1625853039.0,32.000000
-29,-17,57,1625853039.0,32.000000
-30,-16,56,1625853039.0,32.000000
-28,-14,57,1625853039.0,32.000000
-24,-12,59,1625853039.0,32.000000
-19,-13,58,1625853039.0,32.000000
-22,-17,60,1625853039.0,32.000000
-21,-16,61,1625853039.0,32.000000
-24,-15,59,1625853039.0,32.000000
-25,-14,59,1625853039.0,32.000000
-27,-14,58,1625853039.0,32.000000
-25,-17,58,1625853039.0,32.000000
-23,-17,60,1625853039.0,32.000000
-24,-18,59,1625853039.0,32.000000
-24,-18,58,1625853039.0,32.000000
-18,-18,60,1625853039.0,32.000000
-20,-18,57,1625853039.0,32.000000
-19,-17,57,1625853039.0,32.000000
-21,-18,56,1625853039.0,32.000000
-21,-16,57,1625853039.0,32.000000
-23,-18,53,1625853039.0,32.000000
-20,-18,54,1625853039.0,32.000000
-22,-16,58,1625853039.0,32.000000
-28,-13,68,1625853039.0,32.000000
-24,-18,57,1625853039.0,32.000000
-21,-16,60,1625853039.0,32.000000
-22,-15,60,1625853039.0,32.000000
-20,-12,58,1625853039.0,32.000000
-25,-13,57,1625853039.0,32.000000
-24,-16,58,1625853039.0,32.000000
-19,-23,63,1625853039.0,32.000000
-22,-24,61,1625853039.0,32.000000
-29,-19,57,1625853039.0,32.000000
-25,-11,57,1625853039.0,32.000000
-28,-18,57,1625853039.0,32.000000
-28,-18,56,1625853039.0,32.000000
-26,-18,56,1625853039.0,32.000000
-28,-16,56,1625853039.0,32.000000
-29,-17,55,1625853039.0,32.000000
-29,-18,56,1625853039.0,32.000000
-26,-18,58,1625853039.0,32.000000
-26,-19,57,1625853039.0,32.000000
-27,-18,57,1625853039.0,32.000000
-28,-18,56,1625853039.0,32.000000
-28,-18,55,1625853039.0,32.000000
-29,-19,56,1625853039.0,32.000000
-28,-19,56,1625853039.0,32.000000
-26,-18,56,1625853039.0,32.000000
-28,-19,55,1625853039.0,32.000000
-29,-19,55,1625853039.0,32.000000
-28,-18,55,1625853039.0,32.000000
-27,-18,56,1625853039.0,32.000000
-27,-18,56,1625853039.0,32.000000
-30,-17,54,1625853039.0,32.000000
-30,-18,55,1625853039.0,32.000000
-28,-17,56,1625853039.0,32.000000
-26,-17,57,1625853039.0,32.000000
-29,-18,56,1625853039.0,32.000000
-28,-20,55,1625853039.0,32.000000
-27,-22,56,1625853039.0,32.000000
-28,-19,56,1625853039.0,32.000000
-28,-18,56,1625853039.0,32.000000
-29,-18,55,1625853039.0,32.000000
-29,-18,56,1625853039.0,32.000000
-28,-17,56,1625853039.0,32.000000
-28,-17,56,1625853039.0,32.000000
-29,-17,56,1625853039.0,32.000000
-30,-17,55,1625853039.0,32.000000
-30,-17,54,1625853039.0,32.000000
-29,-18,55,1625853039.0,32.000000
-27,-18,57,1625853039.0,32.000000
-30,-18,56,1625853039.0,32.000000
-26,-18,58,1625853039.0,32.000000
-28,-17,58,1625853039.0,32.000000
-32,-16,53,1625853039.0,32.000000
-28,-18,56,1625853039.0,32.000000
-25,-18,58,1625853039.0,32.000000
-26,-18,59,1625853039.0,32.000000
-25,-18,58,1625853039.0,32.000000
-27,-18,57,1625853039.0,32.000000
-26,-16,56,1625853039.0,32.000000
-25,-15,56,1625853039.0,32.000000
-23,-15,57,1625853039.0,32.000000
-22,-18,58,1625853039.0,32.000000
-21,-18,59,1625853039.0,32.000000
-23,-19,59,1625853039.0,32.000000
-24,-19,58,1625853039.0,32.000000
-23,-18,57,1625853039.0,32.000000
-24,-18,58,1625853039.0,32.000000
-23,-17,57,1625853039.0,32.000000
-22,-19,59,1625853039.0,32.000000
-23,-18,58,1625853039.0,32.000000
-23,-18,58,1625853039.0,32.000000
-24,-17,57,1625853039.0,32.000000
-23,-18,58,1625853039.0,32.000000
-22,-19,59,1625853039.0,32.000000
-23,-18,58,1625853039.0,32.000000
-24,-18,57,1625853039.0,32.000000
-24,-18,58,1625853039.0,32.000000
-22,-18,59,1625853039.0,32.000000
-22,-16,59,1625853039.0,32.000000
-23,-18,59,1625853039.0,32.000000
-22,-17,59,1625853039.0,32.000000
-23,-20,59,1625853039.0,32.000000
-23,-17,59,1625853039.0,32.000000
-22,-14,59,1625853039.0,32.000000
-21,-13,59,1625853039.0,32.000000
-22,-14,59,1625853039.0,32.000000
-21,-13,60,1625853039.0,32.000000
-20,-14,60,1625853039.0,32.000000
-22,-15,59,1625853039.0,32.000000
-23,-14,58,1625853039.0,32.000000
-22,-16,59,1625853039.0,32.000000
-24,-19,62,1625853039.0,32.000000
-16,-13,61,1625853039.0,32.000000
-19,-14,60,1625853039.0,32.000000
-25,-14,57,1625853039.0,32.000000
-22,-15,59,1625853039.0,32.000000
-21,-16,61,1625853039.0,32.000000
-22,-17,60,1625853039.0,32.000000
-23,-16,59,1625853039.0,32.000000
-23,-15,59,1625853039.0,32.000000
-23,-16,59,1625853039.0,32.000000
-23,-15,59,1625853039.0,32.000000
-23,-15,59,1625853039.0,32.000000
-23,-15,59,1625853039.0,32.000000
-24,-15,59,1625853039.0,32.000000
-24,-15,58,1625853039.0,32.000000
-24,-15,58,1625853039.0,32.000000
-24,-15,58,1625853039.0,32.000000
-24,-15,58,1625853039.0,32.000000
-24,-15,59,1625853039.0,32.000000
-24,-15,59,1625853039.0,32.000000
-25,-15,58,1625853039.0,32.000000
-25,-15,58,1625853039.0,32.000000
-25,-15,58,1625853039.0,32.000000
-25,-15,58,1625853039.0,32.000000
-25,-15,58,1625853039.0,32.000000
-25,-15,58,1625853039.0,32.000000
-24,-15,59,1625853039.0,32.000000
-24,-15,59,1625853039.0,32.000000
-25,-15,58,1625853039.0,32.000000
-25,-15,59,1625853039.0,32.000000
-25,-15,58,1625853039.0,32.000000
-25,-15,58,1625853039.0,32.000000
-25,-15,58,1625853039.0,32.000000
-25,-14,58,1625853039.0,32.000000
-25,-15,58,1625853039.0,32.000000
-25,-15,58,1625853039.0,32.000000
-26,-15,58,1625853039.0,32.000000
-25,-15,58,1625853039.0,32.000000
-25,-15,58,1625853039.0,32.000000
-26,-15,58,1625853039.0,32.000000
-26,-15,58,1625853039.0,32.000000
-25,-15,58,1625853039.0,32.000000
-26,-15,58,1625853039.0,32.000000
-25,-15,58,1625853039.0,32.000000
-26,-15,58,1625853039.0,32.000000
-26,-15,58,1625853039.0,32.000000
-26,-15,58,1625853039.0,32.000000
-26,-15,58,1625853039.0,32.000000
-26,-15,58,1625853039.0,32.000000
-26,-15,58,1625853039.0,32.000000
-26,-15,58,1625853039.0,32.000000
-26,-15,58,1625853039.0,32.000000
-26,-15,58,1625853039.0,32.000000
-26,-15,58,1625853039.0,32.000000
-26,-15,58,1625853039.0,32.000000
-26,-15,58,1625853039.0,32.000000
-26,-15,58,1625853039.0,32.000000
-26,-15,58,1625853039.0,32.000000
-26,-15,57,1625853039.0,32.000000
-26,-15,58,1625853039.0,32.000000
-26,-15,57,1625853039.0,32.000000
-26,-15,58,1625853039.0,32.000000
-26,-15,58,1625853039.0,32.000000
-26,-15,58,1625853039.0,32.000000
-26,-15,58,1625853039.0,32.000000
-26,-15,58,1625853039.0,32.000000
-26,-15,57,1625853039.0,32.000000
-26,-15,58,1625853039.0,32.000000
-26,-15,57,1625853039.0,32.000000
-26,-15,58,1625853039.0,32.000000
-26,-15,58,1625853039.0,32.000000
-26,-15,58,1625853039.0,32.000000
-26,-15,58,1625853039.0,32.000000
-26,-15,58,1625853039.0,32.000000
-26,-15,58,1625853039.0,32.000000
-26,-15,58,1625853039.0,32.000000
-26,-15,58,1625853039.0,32.000000
-26,-15,58,1625853039.0,32.000000
-25,-15,58,1625853039.0,32.000000
-25,-15,58,1625853039.0,32.000000
-26,-15,58,1625853039.0,32.000000
-26,-15,58,1625853039.0,32.000000
-26,-15,58,1625853039.0,32.000000
-26,-15,58,1625853039.0,32.000000
-25,-15,57,1625853039.0,32.000000
-26,-15,58,1625853039.0,32.000000
-26,-15,58,1625853039.0,32.000000
-25,-15,58,1625853039.0,32.000000
-26,-15,58,1625853039.0,32.000000
-26,-15,58,1625853039.0,32.000000
-26,-15,58,1625853039.0,32.000000
-26,-15,58,1625853039.0,32.000000
-25,-15,58,1625853039.0,32.000000
-26,-15,58,1625853039.0,32.000000
-26,-15,58,1625853039.0,32.000000
-26,-15,58,1625853039.0,32.000000
-26,-14,60,1625853039.0,32.000000
-25,-15,58,1625853039.0,32.000000
-27,-15,58,1625853039.0,32.000000
-26,-15,58,1625853039.0,32.000000
-25,-15,58,1625853039.0,32.000000
-25,-14,58,1625853039.0,32.000000
-26,-15,58,1625853039.0,32.000000
-26,-14,59,1625853039.0,32.000000
-26,-15,57,1625853039.0,32.000000
-26,-15,58,1625853039.0,32.000000
-26,-15,57,1625853039.0,32.000000
-26,-15,58,1625853039.0,32.000000
-26,-15,57,1625853039.0,32.000000
-27,-15,57,1625853039.0,32.000000
-25,-15,58,1625853039.0,32.000000
-25,-15,58,1625853039.0,32.000000
-26,-15,58,1625853039.0,32.000000
-26,-15,57,1625853039.0,32.000000
-26,-15,58,1625853039.0,32.000000
-26,-15,58,1625853039.0,32.000000
-25,-15,58,1625853039.0,32.000000
-25,-15,58,1625853039.0,32.000000
-26,-15,58,1625853039.0,32.000000
-26,-15,57,1625853039.0,32.000000
-25,-15,58,1625853039.0,32.000000
-25,-15,58,1625853039.0,32.000000
-26,-15,58,1625853039.0,32.000000
-26,-15,58,1625853039.0,32.000000
-26,-15,58,1625853039.0,32.000000
-25,-15,58,1625853039.0,32.000000
-25,-14,58,1625853039.0,32.000000
-26,-15,58,1625853039.0,32.000000
-26,-15,58,1625853039.0,32.000000
-26,-16,58,1625853039.0,32.000000
-26,-15,58,1625853039.0,32.000000
-25,-15,58,1625853039.0,32.000000
-26,-15,58,1625853039.0,32.000000
-26,-15,58,1625853039.0,32.000000
-26,-15,58,1625853039.0,32.000000
-26,-15,58,1625853039.0,32.000000
-25,-15,58,1625853039.0,32.000000
-26,-15,58,1625853039.0,32.000000
-25,-15,58,1625853039.0,32.000000
-26,-15,57,1625853039.0,32.000000
-26,-15,57,1625853039.0,32.000000
-25,-15,58,1625853039.0,32.000000
-25,-15,58,1625853039.0,32.000000
-26,-15,58,1625853039.0,32.000000
-26,-15,57,1625853039.0,32.000000
-26,-15,58,1625853039.0,32.000000
-26,-15,58,1625853039.0,32.000000
-26,-15,58,1625853039.0,32.000000
-26,-15,58,1625853039.0,32.000000
-26,-15,58,1625853039.0,32.000000
-26,-15,58,1625853039.0,32.000000
-26,-15,58,1625853039.0,32.000000
-26,-15,58,1625853039.0,32.000000
-26,-15,58,1625853039.0,32.000000
-26,-15,58,1625853039.0,32.000000
-26,-15,58,1625853039.0,32.000000
-26,-15,58,1625853039.0,32.000000
-26,-15,58,1625853039.0,32.000000
-26,-15,58,1625853039.0,32.000000
-26,-15,58,1625853039.0,32.000000
-25,-15,58,1625853039.0,32.000000
-26,-15,58,1625853039.0,32.000000
-26,-15,57,1625853039.0,32.000000
-26,-15,58,1625853039.0,32.000000
-26,-15,57,1625853039.0,32.000000
-26,-15,58,1625853039.0,32.000000
-26,-15,59,1625853039.0,32.000000
-26,-16,57,1625853039.0,32.000000
-25,-14,59,1625853039.0,32.000000
-25,-15,59,1625853039.0,32.000000
-26,-15,57,1625853039.0,32.000000
-26,-16,59,1625853039.0,32.000000
-27,-15,58,1625853039.0,32.000000
-27,-15,57,1625853039.0,32.000000
-25,-14,58,1625853039.0,32.000000
-25,-15,59,1625853039.0,32.000000
-26,-15,58,1625853039.0,32.000000
-26,-15,57,1625853039.0,32.000000
-26,-15,57,1625853039.0,32.000000
-24,-15,58,1625853039.0,32.000000
-25,-15,59,1625853039.0,32.000000
-27,-15,57,1625853039.0,32.000000
-26,-15,58,1625853039.0,32.000000
-26,-15,58,1625853039.0,32.000000
-26,-15,58,1625853039.0,32.000000
-26,-15,58,1625853039.0,32.000000
-26,-15,57,1625853039.0,32.000000
-26,-15,58,1625853039.0,32.000000
-26,-15,58,1625853039.0,32.000000
-26,-15,58,1625853039.0,32.000000
-26,-15,57,1625853039.0,32.000000
-26,-15,58,1625853039.0,32.000000
-25,-14,58,1625853039.0,32.000000
-26,-15,58,1625853039.0,32.000000
-27,-15,58,1625853039.0,32.000000
-27,-16,57,1625853039.0,32.000000
-26,-15,58,1625853039.0,32.000000
-26,-15,58,1625853039.0,32.000000
-27,-15,57,1625853039.0,32.000000
-27,-15,57,1625853039.0,32.000000
-27,-16,58,1625853039.0,32.000000
-27,-16,57,1625853039.0,32.000000
-27,-16,57,1625853039.0,32.000000
-25,-15,57,1625853039.0,32.000000
-26,-16,57,1625853039.0,32.000000
-26,-17,57,1625853039.0,32.000000
-26,-17,57,1625853039.0,32.000000
-26,-15,57,1625853039.0,32.000000
-24,-16,58,1625853039.0,32.000000
-26,-16,58,1625853039.0,32.000000
-24,-16,58,1625853039.0,32.000000
-28,-15,56,1625853039.0,32.000000
-25,-16,58,1625853039.0,32.000000
-25,-16,57,1625853039.0,32.000000
-27,-16,57,1625853039.0,32.000000
-26,-16,57,1625853039.0,32.000000
-25,-16,58,1625853039.0,32.000000
-26,-17,57,1625853039.0,32.000000
-25,-17,57,1625853039.0,32.000000
-25,-16,58,1625853039.0,32.000000
-24,-16,59,1625853039.0,32.000000
-24,-15,58,1625853039.0,32.000000
-25,-15,58,1625853039.0,32.000000
-24,-16,58,1625853039.0,32.000000
-25,-15,58,1625853039.0,32.000000
-25,-16,58,1625853039.0,32.000000
-25,-16,58,1625853039.0,32.000000
-25,-16,58,1625853039.0,32.000000
-24,-16,58,1625853039.0,32.000000
-24,-16,58,1625853039.0,32.000000
-24,-17,58,1625853039.0,32.000000
-24,-16,58,1625853039.0,32.000000
-25,-16,58,1625853039.0,32.000000
-25,-16,57,1625853039.0,32.000000
-24,-16,58,1625853039.0,32.000000
-24,-17,58,1625853039.0,32.000000
-24,-17,58,1625853039.0,32.000000
-25,-16,58,1625853039.0,32.000000
-24,-17,58,1625853039.0,32.000000
-25,-16,58,1625853039.0,32.000000
-25,-16,58,1625853039.0,32.000000
-25,-16,58,1625853039.0,32.000000
-25,-16,58,1625853039.0,32.000000
-24,-17,58,1625853039.0,32.000000
-24,-16,58,1625853039.0,32.000000
-24,-16,58,1625853039.0,32.000000
-24,-16,58,1625853039.0,32.000000
-24,-16,58,1625853039.0,32.000000
-25,-16,58,1625853039.0,32.000000
-25,-16,58,1625853039.0,32.000000
-25,-16,58,1625853039.0,32.000000
-24,-16,58,1625853039.0,32.000000
-25,-17,58,1625853039.0,32.000000
-25,-16,58,1625853039.0,32.000000
-25,-17,58,1625853039.0,32.000000
-25,-16,58,1625853039.0,32.000000
-25,-16,57,1625853039.0,32.000000
-25,-16,58,1625853039.0,32.000000
-25,-17,58,1625853039.0,32.000000
-25,-16,58,1625853039.0,32.000000
-25,-16,57,1625853039.0,32.000000
-25,-16,58,1625853039.0,32.000000
-25,-16,58,1625853039.0,32.000000
-25,-16,58,1625853039.0,32.000000
-25,-17,58,1625853039.0,32.000000
-25,-16,58,1625853039.0,32.000000
-25,-16,58,1625853039.0,32.000000
-25,-17,58,1625853039.0,32.000000
-24,-16,58,1625853039.0,32.000000
-25,-16,58,1625853039.0,32.000000
-25,-17,58,1625853039.0,32.000000
-25,-17,58,1625853039.0,32.000000
-25,-16,58,1625853039.0,32.000000
-25,-16,58,1625853039.0,32.000000
-24,-16,58,1625853039.0,32.000000
-25,-16,58,1625853039.0,32.000000
-25,-16,58,1625853039.0,32.000000
-25,-17,57,1625853039.0,32.000000
-25,-16,58,1625853039.0,32.000000
-25,-17,58,1625853039.0,32.000000
-25,-16,57,1625853039.0,32.000000
-25,-16,58,1625853039.0,32.000000
-25,-16,58,1625853039.0,32.000000
-24,-17,58,1625853039.0,32.000000
-24,-16,57,1625853039.0,32.000000
-24,-17,58,1625853039.0,32.000000
-25,-16,58,1625853039.0,32.000000
-25,-16,57,1625853039.0,32.000000
-25,-16,58,1625853039.0,32.000000
-25,-16,58,1625853039.0,32.000000
-25,-16,59,1625853039.0,32.000000
-25,-16,58,1625853039.0,32.000000
-25,-17,58,1625853039.0,32.000000
-25,-15,57,1625853039.0,32.000000
-25,-15,58,1625853039.0,32.000000
-24,-17,58,1625853039.0,32.000000
-24,-16,58,1625853039.0,32.000000
-24,-15,57,1625853039.0,32.000000
-25,-15,57,1625853039.0,32.000000
-24,-10,57,1625853039.0,32.000000
-25,-14,55,1625853039.0,32.000000
-23,-14,56,1625853039.0,32.000000
-21,-14,59,1625853039.0,32.000000
-17,-15,60,1625853039.0,32.000000
-18,-16,58,1625853039.0,32.000000
-20,-13,58,1625853039.0,32.000000
-19,-13,58,1625853039.0,32.000000
-13,-12,59,1625853039.0,32.000000
-12,-14,61,1625853039.0,32.000000
-13,-14,62,1625853039.0,32.000000
-9,-14,66,1625853039.0,32.000000
-9,-11,69,1625853039.0,32.000000
-9,-10,68,1625853039.0,32.000000
-10,-8,66,1625853039.0,32.000000
-11,-7,63,1625853039.0,32.000000
-15,-6,63,1625853039.0,32.000000
-18,-6,62,1625853039.0,32.000000
-23,-6,62,1625853039.0,32.000000
-26,-6,62,1625853039.0,32.000000
-28,-6,62,1625853039.0,32.000000
-28,-7,59,1625853039.0,32.000000
-27,-7,59,1625853039.0,32.000000
-24,-7,58,1625853039.0,32.000000
-23,-7,59,1625853039.0,32.000000
-23,-6,61,1625853039.0,32.000000
-22,-5,63,1625853039.0,32.000000
-22,-5,63,1625853039.0,32.000000
-22,-5,61,1625853039.0,32.000000
-22,-5,62,1625853039.0,32.000000
-24,-5,62,1625853039.0,32.000000
-24,-5,60,1625853039.0,32.000000
-25,-6,59,1625853039.0,32.000000
-27,-6,59,1625853039.0,32.000000
-26,-6,59,1625853039.0,32.000000
-27,-5,60,1625853039.0,32.000000
-28,-5,59,1625853039.0,32.000000
-28,-5,60,1625853039.0,32.000000
-28,-5,59,1625853039.0,32.000000
-28,-5,59,1625853039.0,32.000000
-27,-5,59,1625853039.0,32.000000
-27,-4,59,1625853039.0,32.000000
-28,-4,59,1625853039.0,32.000000
-28,-3,60,1625853039.0,32.000000
-28,-3,60,1625853039.0,32.000000
-28,-3,60,1625853039.0,32.000000
-28,-3,59,1625853039.0,32.000000
-27,-3,59,1625853039.0,32.000000
-28,-3,59,1625853039.0,32.000000
-28,-3,59,1625853039.0,32.000000
-28,-3,59,1625853039.0,32.000000
-29,-3,58,1625853039.0,32.000000
-29,-3,59,1625853039.0,32.000000
-29,-3,59,1625853039.0,32.000000
-28,-3,59,1625853039.0,32.000000
-28,-3,59,1625853039.0,32.000000
-28,-3,59,1625853039.0,32.000000
-29,-3,59,1625853039.0,32.000000
-29,-2,60,1625853039.0,32.000000
-30,-2,60,1625853039.0,32.000000
-29,-3,58,1625853039.0,32.000000
-29,-3,58,1625853039.0,32.000000
-29,-3,58,1625853039.0,32.000000
-29,-4,59,1625853039.0,32.000000
-29,-4,59,1625853039.0,32.000000
-29,-4,58,1625853039.0,32.000000
-30,-4,58,1625853039.0,32.000000
-30,-3,59,1625853039.0,32.000000
-30,-4,58,1625853039.0,32.000000
-29,-3,58,1625853039.0,32.000000
-30,-4,58,1625853039.0,32.000000
-30,-4,58,1625853039.0,32.000000
-30,-4,58,1625853039.0,32.000000
-30,-4,58,1625853039.0,32.000000
-30,-4,58,1625853039.0,32.000000
-30,-3,58,1625853039.0,32.000000
-30,-4,58,1625853039.0,32.000000
-30,-4,58,1625853039.0,32.000000
-30,-4,58,1625853039.0,32.000000
-30,-4,58,1625853039.0,32.000000
-30,-4,58,1625853039.0,32.000000
-30,-4,58,1625853039.0,32.000000
-30,-4,58,1625853039.0,32.000000
-30,-4,58,1625853039.0,32.000000
-30,-4,58,1625853039.0,32.000000
-30,-4,58,1625853039.0,32.000000
-30,-3,58,1625853039.0,32.000000
-30,-4,58,1625853039.0,32.000000
-30,-4,58,1625853039.0,32.000000
-30,-4,58,1625853039.0,32.000000
-30,-4,58,1625853039.0,32.000000
-30,-4,58,1625853039.0,32.000000
-30,-4,58,1625853039.0,32.000000
-30,-4,58,1625853039.0,32.000000
-30,-4,58,1625853039.0,32.000000
-30,-4,58,1625853039.0,32.000000
-30,-4,58,1625853039.0,32.000000
-30,-4,58,1625853039.0,32.000000
-30,-4,58,1625853039.0,32.000000
-30,-4,57,1625853039.0,32.000000
-31,-4,58,1625853039.0,32.000000
-30,-4,58,1625853039.0,32.000000
-30,-3,58,1625853039.0,32.000000
-30,-4,58,1625853039.0,32.000000
-31,-4,58,1625853039.0,32.000000
-30,-4,58,1625853039.0,32.000000
-30,-4,58,1625853039.0,32.000000
-31,-3,58,1625853039.0,32.000000
-30,-4,58,1625853039.0,32.000000
-31,-4,58,1625853039.0,32.000000
-30,-4,58,1625853039.0,32.000000
-30,-4,58,1625853039.0,32.000000
-31,-4,57,1625853039.0,32.000000
-31,-4,58,1625853039.0,32.000000
-31,-5,57,1625853039.0,32.000000
-31,-6,57,1625853039.0,32.000000
-30,-6,58,1625853039.0,32.000000
-31,-7,57,1625853039.0,32.000000
-33,-6,57,1625853039.0,32.000000
-32,-6,56,1625853039.0,32.000000
-34,-6,56,1625853039.0,32.000000
-34,-6,56,1625853039.0,32.000000
-34,-5,57,1625853039.0,32.000000
-33,-4,58,1625853039.0,32.000000
-32,-3,59,1625853039.0,32.000000
-29,-4,58,1625853039.0,32.000000
-28,-4,58,1625853039.0,32.000000
-26,-5,58,1625853039.0,32.000000
-25,-5,58,1625853039.0,32.000000
-25,-5,60,1625853039.0,32.000000
-25,-5,61,1625853039.0,32.000000
-24,-5,61,1625853039.0,32.000000
-27,-4,61,1625853039.0,32.000000
-28,-5,61,1625853039.0,32.000000
-28,-5,61,1625853039.0,32.000000
-26,-6,60,1625853039.0,32.000000
-20,-8,59,1625853039.0,32.000000
-15,-8,59,1625853039.0,32.000000
-15,-8,60,1625853039.0,32.000000
-15,-6,64,1625853039.0,32.000000
-14,-6,65,1625853039.0,32.000000
-12,-7,65,1625853039.0,32.000000
-12,-8,65,1625853039.0,32.000000
-13,-8,65,1625853039.0,32.000000
-10,-9,63,1625853039.0,32.000000
-8,-8,62,1625853039.0,32.000000
-4,-9,60,1625853039.0,32.000000
-1,-9,61,1625853039.0,32.000000
0,-8,63,1625853039.0,32.000000
1,-6,66,1625853039.0,32.000000
3,-6,65,1625853039.0,32.000000
-5,-6,65,1625853039.0,32.000000
-6,-8,65,1625853039.0,32.000000
-5,-9,64,1625853039.0,32.000000
-4,-9,63,1625853039.0,32.000000
-4,-8,63,1625853039.0,32.000000
-4,-8,64,1625853039.0,32.000000
-5,-9,64,1625853039.0,32.000000
-4,-8,64,1625853039.0,32.000000
-5,-8,64,1625853039.0,32.000000
-8,-7,67,1625853039.0,32.000000
-19,-8,72,1625853039.0,32.000000
-33,-10,70,1625853039.0,32.000000
-40,-12,66,1625853039.0,32.000000
-41,-19,55,1625853039.0,32.000000
-38,-25,54,1625853039.0,32.000000
-36,-29,57,1625853039.0,32.000000
-32,-30,58,1625853039.0,32.000000
-27,-30,58,1625853039.0,32.000000
-22,-25,61,1625853039.0,32.000000
-20,-21,58,1625853039.0,32.000000
-27,-20,48,1625853039.0,32.000000
-28,-17,46,1625853039.0,32.000000
-29,-14,49,1625853039.0,32.000000
-29,-18,53,1625853039.0,32.000000
-27,-19,53,1625853039.0,32.000000
-31,-20,47,1625853039.0,32.000000
-35,-21,46,1625853039.0,32.000000
-37,-22,44,1625853039.0,32.000000
-38,-24,44,1625853039.0,32.000000
-39,-25,44,1625853039.0,32.000000
-39,-29,46,1625853039.0,32.000000
-35,-30,47,1625853039.0,32.000000
-41,-33,40,1625853039.0,32.000000
-41,-32,39,1625853039.0,32.000000
-40,-31,40,1625853039.0,32.000000
-49,-30,37,1625853039.0,32.000000
-40,-29,46,1625853039.0,32.000000
-37,-30,45,1625853039.0,32.000000
-38,-29,43,1625853039.0,32.000000
-40,-30,43,1625853039.0,32.000000
-43,-30,40,1625853039.0,32.000000
-44,-29,38,1625853039.0,32.000000
-40,-28,44,1625853039.0,32.000000
-34,-30,44,1625853039.0,32.000000
-33,-28,43,1625853039.0,32.000000
-32,-23,45,1625853039.0,32.000000
-30,-19,49,1625853039.0,32.000000
-26,-18,55,1625853039.0,32.000000
-26,-20,57,1625853039.0,32.000000
-29,-20,57,1625853039.0,32.000000
-32,-23,54,1625853039.0,32.000000
-36,-25,51,1625853039.0,32.000000
-40,-28,49,1625853039.0,32.000000
-40,-30,46,1625853039.0,32.000000
-41,-31,43,1625853039.0,32.000000
-39,-30,45,1625853039.0,32.000000
-38,-30,45,1625853039.0,32.000000
-35,-28,48,1625853039.0,32.000000
-34,-27,49,1625853039.0,32.000000
-31,-26,51,1625853039.0,32.000000
-30,-26,51,1625853039.0,32.000000
-28,-25,50,1625853039.0,32.000000
-29,-24,49,1625853039.0,32.000000
-30,-23,52,1625853039.0,32.000000
-30,-23,53,1625853039.0,32.000000
-27,-22,54,1625853039.0,32.000000
-27,-22,56,1625853039.0,32.000000
-29,-21,57,1625853039.0,32.000000
-29,-21,56,1625853039.0,32.000000
-29,-19,58,1625853039.0,32.000000
-33,-18,61,1625853039.0,32.000000
-30,-19,58,1625853039.0,32.000000
-26,-18,56,1625853039.0,32.000000
-25,-18,56,1625853039.0,32.000000
-25,-18,57,1625853039.0,32.000000
-24,-18,57,1625853039.0,32.000000
-25,-18,57,1625853039.0,32.000000
-30,-20,54,1625853039.0,32.000000
-32,-20,53,1625853039.0,32.000000
-28,-20,57,1625853039.0,32.000000
-25,-20,58,1625853039.0,32.000000
-25,-20,59,1625853039.0,32.000000
-29,-19,56,1625853039.0,32.000000
-31,-18,54,1625853039.0,32.000000
-31,-18,54,1625853039.0,32.000000
-30,-19,55,1625853039.0,32.000000
-30,-19,55,1625853039.0,32.000000
-31,-17,55,1625853039.0,32.000000
-31,-16,55,1625853039.0,32.000000
-27,-16,57,1625853039.0,32.000000
-28,-15,57,1625853039.0,32.000000
-30,-16,56,1625853039.0,32.000000
-31,-15,54,1625853039.0,32.000000
-32,-15,55,1625853039.0,32.000000
-27,-15,59,1625853039.0,32.000000
-26,-15,59,1625853039.0,32.000000
-28,-14,57,1625853039.0,32.000000
-28,-13,57,1625853039.0,32.000000
-27,-12,57,1625853039.0,32.000000
-28,-13,56,1625853039.0,32.000000
-29,-12,56,1625853039.0,32.000000
-28,-13,57,1625853039.0,32.000000
-27,-12,57,1625853039.0,32.000000
-28,-13,58,1625853039.0,32.000000
-27,-13,57,1625853039.0,32.000000
-28,-12,58,1625853039.0,32.000000
-27,-12,59,1625853039.0,32.000000
-26,-11,58,1625853039.0,32.000000
-26,-12,58,1625853039.0,32.000000
-28,-13,59,1625853039.0,32.000000
-27,-13,58,1625853039.0,32.000000
-26,-14,59,1625853039.0,32.000000
-27,-11,59,1625853039.0,32.000000
-27,-14,56,1625853039.0,32.000000
-27,-13,58,1625853039.0,32.000000
-28,-14,57,1625853039.0,32.000000
-25,-15,58,1625853039.0,32.000000
-25,-12,59,1625853039.0,32.000000
-27,-13,58,1625853039.0,32.000000
-28,-12,58,1625853039.0,32.000000
-27,-12,58,1625853039.0,32.000000
-25,-13,59,1625853039.0,32.000000
-25,-13,59,1625853039.0,32.000000
-25,-12,59,1625853039.0,32.000000
-24,-12,59,1625853039.0,32.000000
-25,-13,59,1625853039.0,32.000000
-27,-13,58,1625853039.0,32.000000
-26,-12,58,1625853039.0,32.000000
-27,-12,58,1625853039.0,32.000000
-26,-13,58,1625853039.0,32.000000
-25,-13,58,1625853039.0,32.000000
-24,-12,59,1625853039.0,32.000000
-26,-12,58,1625853039.0,32.000000
-26,-12,59,1625853039.0,32.000000
-26,-12,58,1625853039.0,32.000000
-26,-12,59,1625853039.0,32.000000
-25,-12,59,1625853039.0,32.000000
-26,-13,59,1625853039.0,32.000000
-25,-12,59,1625853039.0,32.000000
-25,-12,59,1625853039.0,32.000000
-24,-13,59,1625853039.0,32.000000
-25,-12,59,1625853039.0,32.000000
-26,-13,59,1625853039.0,32.000000
-27,-13,58,1625853039.0,32.000000
-26,-13,58,1625853039.0,32.000000
-25,-13,59,1625853039.0,32.000000
-26,-12,59,1625853039.0,32.000000
-26,-13,59,1625853039.0,32.000000
-26,-13,58,1625853039.0,32.000000
-26,-13,59,1625853039.0,32.000000
-26,-13,58,1625853039.0,32.000000
-25,-12,59,1625853039.0,32.000000
-24,-12,58,1625853039.0,32.000000
-25,-13,58,1625853039.0,32.000000
-25,-14,59,1625853039.0,32.000000
-25,-14,59,1625853039.0,32.000000
-24,-14,59,1625853039.0,32.000000
-24,-13,59,1625853039.0,32.000000
-25,-13,59,1625853039.0,32.000000
-24,-13,59,1625853039.0,32.000000
-24,-13,59,1625853039.0,32.000000
-25,-14,59,1625853039.0,32.000000
-24,-14,59,1625853039.0,32.000000
-24,-13,59,1625853039.0,32.000000
-23,-13,59,1625853039.0,32.000000
-23,-13,60,1625853039.0,32.000000
-23,-13,60,1625853039.0,32.000000
-22,-14,60,1625853039.0,32.000000
-23,-14,59,1625853039.0,32.000000
-22,-14,60,1625853039.0,32.000000
-24,-14,59,1625853039.0,32.000000
-22,-13,60,1625853039.0,32.000000
-24,-13,60,1625853039.0,32.000000
-21,-14,62,1625853039.0,32.000000
-15,-15,61,1625853039.0,32.000000
-12,-16,62,1625853039.0,32.000000
-21,-13,58,1625853039.0,32.000000
-23,-13,58,1625853039.0,32.000000
-18,-16,59,1625853039.0,32.000000
-15,-18,61,1625853039.0,32.000000
-9,-17,65,1625853039.0,32.000000
-10,-16,63,1625853039.0,32.000000
-11,-16,62,1625853039.0,32.000000
-11,-14,59,1625853039.0,32.000000
-12,-15,58,1625853039.0,32.000000
-11,-17,61,1625853039.0,32.000000
-10,-18,62,1625853039.0,32.000000
-10,-18,62,1625853039.0,32.000000
-12,-17,60,1625853039.0,32.000000
-11,-15,62,1625853039.0,32.000000
-9,-15,63,1625853039.0,32.000000
-5,-15,61,1625853039.0,32.000000
-6,-16,61,1625853039.0,32.000000
-8,-17,61,1625853039.0,32.000000
-10,-17,62,1625853039.0,32.000000
-14,-18,60,1625853039.0,32.000000
-12,-17,60,1625853039.0,32.000000
-11,-16,63,1625853039.0,32.000000
-9,-14,64,1625853039.0,32.000000
-7,-14,62,1625853039.0,32.000000
-3,-15,63,1625853039.0,32.000000
-5,-16,63,1625853039.0,32.000000
-6,-16,63,1625853039.0,32.000000
-10,-16,61,1625853039.0,32.000000
-9,-16,62,1625853039.0,32.000000
-7,-15,62,1625853039.0,32.000000
-7,-15,62,1625853039.0,32.000000
-9,-15,62,1625853039.0,32.000000
-9,-16,61,1625853039.0,32.000000
-7,-16,62,1625853039.0,32.000000
-6,-16,62,1625853039.0,32.000000
-8,-16,62,1625853039.0,32.000000
-6,-16,62,1625853039.0,32.000000
-5,-15,63,1625853039.0,32.000000
-5,-16,62,1625853039.0,32.000000
-7,-15,62,1625853039.0,32.000000
-7,-16,62,1625853039.0,32.000000
-7,-16,62,1625853039.0,32.000000
-7,-16,63,1625853039.0,32.000000
-9,-15,63,1625853039.0,32.000000
-16,-15,66,1625853039.0,32.000000
-15,-19,73,1625853039.0,32.000000
-21,-36,83,1625853039.0,32.000000
-39,-40,62,1625853039.0,32.000000
-40,-37,52,1625853039.0,32.000000
1,-34,60,1625853039.0,32.000000
-1,-26,52,1625853039.0,32.000000
8,-15,53,1625853039.0,32.000000
34,-3,59,1625853039.0,32.000000
33,-5,50,1625853039.0,32.000000
30,0,50,1625853039.0,32.000000
36,7,59,1625853039.0,32.000000
9,-10,59,1625853039.0,32.000000
10,-23,78,1625853039.0,32.000000
5,-29,68,1625853039.0,32.000000
12,-33,53,1625853039.0,32.000000
11,-32,50,1625853039.0,32.000000
14,-32,48,1625853039.0,32.000000
22,-36,48,1625853039.0,32.000000
26,-33,48,1625853039.0,32.000000
36,-21,64,1625853039.0,32.000000
33,-21,59,1625853039.0,32.000000
32,-20,56,1625853039.0,32.000000
35,-20,47,1625853039.0,32.000000
37,-18,45,1625853039.0,32.000000
45,-19,45,1625853039.0,32.000000
46,-20,41,1625853039.0,32.000000
44,-20,36,1625853039.0,32.000000
43,-19,36,1625853039.0,32.000000
44,-18,36,1625853039.0,32.000000
43,-16,38,1625853039.0,32.000000
45,-17,37,1625853039.0,32.000000
49,-18,33,1625853039.0,32.000000
49,-17,35,1625853039.0,32.000000
48,-16,35,1625853039.0,32.000000
50,-16,35,1625853039.0,32.000000
51,-16,35,1625853039.0,32.000000
51,-15,34,1625853039.0,32.000000
49,-15,34,1625853039.0,32.000000
47,-14,38,1625853039.0,32.000000
50,-14,37,1625853039.0,32.000000
55,-14,36,1625853039.0,32.000000
51,-15,31,1625853039.0,32.000000
49,-14,35,1625853039.0,32.000000
43,-15,41,1625853039.0,32.000000
49,-17,41,1625853039.0,32.000000
48,-17,41,1625853039.0,32.000000
48,-17,39,1625853039.0,32.000000
46,-14,43,1625853039.0,32.000000
44,-18,39,1625853039.0,32.000000
44,-21,37,1625853039.0,32.000000
46,-18,41,1625853039.0,32.000000
49,-14,44,1625853039.0,32.000000
51,-11,41,1625853039.0,32.000000
42,-10,45,1625853039.0,32.000000
38,-10,49,1625853039.0,32.000000
39,-8,51,1625853039.0,32.000000
47,-15,36,1625853039.0,32.000000
48,-16,34,1625853039.0,32.000000
42,-6,51,1625853039.0,32.000000
38,-10,42,1625853039.0,32.000000
41,-9,41,1625853039.0,32.000000
43,-4,50,1625853039.0,32.000000
41,0,54,1625853039.0,32.000000
35,-10,36,1625853039.0,32.000000
32,-6,38,1625853039.0,32.000000
31,-11,37,1625853039.0,32.000000
43,-12,37,1625853039.0,32.000000
61,-7,44,1625853039.0,32.000000
72,-8,47,1625853039.0,32.000000
68,-6,51,1625853039.0,32.000000
59,-3,55,1625853039.0,32.000000
45,-6,58,1625853039.0,32.000000
34,-4,53,1625853039.0,32.000000
28,-3,57,1625853039.0,32.000000
27,-7,51,1625853039.0,32.000000
29,-8,45,1625853039.0,32.000000
39,-3,29,1625853039.0,32.000000
50,-7,56,1625853039.0,32.000000
35,-6,39,1625853039.0,32.000000
32,-12,37,1625853039.0,32.000000
34,-2,42,1625853039.0,32.000000
51,-12,43,1625853039.0,32.000000
44,-9,36,1625853039.0,32.000000
61,5,55,1625853039.0,32.000000
63,1,54,1625853039.0,32.000000
47,-4,50,1625853039.0,32.000000
19,-2,29,1625853039.0,32.000000
-1,-1,40,1625853039.0,32.000000
9,-1,65,1625853039.0,32.000000
18,5,64,1625853039.0,32.000000
22,2,61,1625853039.0,32.000000
48,2,60,1625853039.0,32.000000
42,7,65,1625853039.0,32.000000
74,3,71,1625853039.0,32.000000
26,75,42,1625853039.0,32.000000
22,-9,32,1625853039.0,32.000000
37,14,39,1625853039.0,32.000000
26,6,38,1625853039.0,32.000000
16,-3,53,1625853039.0,32.000000
12,-4,59,1625853039.0,32.000000
11,-14,75,1625853039.0,32.000000
-3,-16,73,1625853039.0,32.000000
-2,-18,80,1625853039.0,32.000000
-1,-16,77,1625853039.0,32.000000
-4,-16,71,1625853039.0,32.000000
-3,-18,64,1625853039.0,32.000000
-2,-15,63,1625853039.0,32.000000
-2,-15,62,1625853039.0,32.000000
-5,-14,57,1625853039.0,32.000000
-5,-14,60,1625853039.0,32.000000
-16,-11,68,1625853039.0,32.000000
14,-19,75,1625853039.0,32.000000
4,-12,66,1625853039.0,32.000000
-7,-16,59,1625853039.0,32.000000
-6,-11,60,1625853039.0,32.000000
-8,-12,60,1625853039.0,32.000000
-6,-9,64,1625853039.0,32.000000
-1,-15,58,1625853039.0,32.000000
8,-15,78,1625853039.0,32.000000
-20,-13,70,1625853039.0,32.000000
-7,-13,62,1625853039.0,32.000000
-16,-12,60,1625853039.0,32.000000
-16,-15,62,1625853039.0,32.000000
-8,-13,63,1625853039.0,32.000000
-7,-13,64,1625853039.0,32.000000
-9,-13,63,1625853039.0,32.000000
-11,-13,62,1625853039.0,32.000000
-12,-12,62,1625853039.0,32.000000
-12,-14,62,1625853039.0,32.000000
-12,-14,62,1625853039.0,32.000000
-12,-13,62,1625853039.0,32.000000
-11,-13,62,1625853039.0,32.000000
-14,-14,62,1625853039.0,32.000000
-12,-13,62,1625853039.0,32.000000
-12,-13,62,1625853039.0,32.000000
-13,-14,61,1625853039.0,32.000000
-13,-13,62,1625853039.0,32.000000
-13,-13,62,1625853039.0,32.000000
-14,-13,62,1625853039.0,32.000000
-15,-14,62,1625853039.0,32.000000
-14,-13,62,1625853039.0,32.000000
-14,-14,62,1625853039.0,32.000000
-15,-13,62,1625853039.0,32.000000
-14,-13,62,1625853039.0,32.000000
-14,-13,62,1625853039.0,32.000000
-16,-14,62,1625853039.0,32.000000
-15,-14,62,1625853039.0,32.000000
-15,-13,62,1625853039.0,32.000000
-15,-13,61,1625853039.0,32.000000
-15,-13,62,1625853039.0,32.000000
-15,-13,62,1625853039.0,32.000000
-15,-13,62,1625853039.0,32.000000
-16,-13,62,1625853039.0,32.000000
-15,-13,62,1625853039.0,32.000000
-15,-13,62,1625853039.0,32.000000
-15,-13,62,1625853039.0,32.000000
-15,-13,62,1625853039.0,32.000000
-16,-13,61,1625853039.0,32.000000
-15,-13,62,1625853039.0,32.000000
-15,-13,62,1625853039.0,32.000000
-15,-13,61,1625853039.0,32.000000
-15,-13,62,1625853039.0,32.000000
-15,-13,62,1625853039.0,32.000000
-16,-13,62,1625853039.0,32.000000
-15,-13,62,1625853039.0,32.000000
-15,-13,62,1625853039.0,32.000000
-15,-13,62,1625853039.0,32.000000
-15,-13,62,1625853039.0,32.000000
-16,-13,62,1625853039.0,32.000000
-15,-13,61,1625853039.0,32.000000
-16,-13,62,1625853039.0,32.000000
-15,-13,61,1625853039.0,32.000000
-15,-13,61,1625853039.0,32.000000
-15,-13,62,1625853039.0,32.000000
-16,-13,61,1625853039.0,32.000000
-15,-13,62,1625853039.0,32.000000
-15,-13,62,1625853039.0,32.000000
-15,-13,62,1625853039.0,32.000000
-16,-13,61,1625853039.0,32.000000
-16,-13,61,1625853039.0,32.000000
-15,-13,62,1625853039.0,32.000000
-14,-13,61,1625853039.0,32.000000
-15,-14,62,1625853039.0,32.000000
-16,-14,60,1625853039.0,32.000000
-16,-13,62,1625853039.0,32.000000
-16,-13,61,1625853039.0,32.000000
-15,-13,61,1625853039.0,32.000000
-15,-13,62,1625853039.0,32.000000
-16,-13,62,1625853039.0,32.000000
-16,-13,61,1625853039.0,32.000000
-16,-14,62,1625853039.0,32.000000
-16,-13,61,1625853039.0,32.000000
-16,-13,62,1625853039.0,32.000000
-16,-13,61,1625853039.0,32.000000
-15,-13,62,1625853039.0,32.000000
-16,-13,62,1625853039.0,32.000000
-16,-13,62,1625853039.0,32.000000
-16,-13,61,1625853039.0,32.000000
-15,-13,61,1625853039.0,32.000000
-15,-13,61,1625853039.0,32.000000
-16,-13,61,1625853039.0,32.000000
-16,-13,62,1625853039.0,32.000000
-16,-13,61,1625853039.0,32.000000
-16,-13,62,1625853039.0,32.000000
-16,-13,62,1625853039.0,32.000000
-16,-13,62,1625853039.0,32.000000
-16,-13,62,1625853039.0,32.000000
-15,-14,62,1625853039.0,32.000000
-17,-12,61,1625853039.0,32.000000
-16,-13,62,1625853039.0,32.000000
-16,-13,62,1625853039.0,32.000000
-16,-13,62,1625853039.0,32.000000
-16,-13,61,1625853039.0,32.000000
-16,-13,62,1625853039.0,32.000000
-16,-13,62,1625853039.0,32.000000
-16,-13,61,1625853039.0,32.000000
-16,-13,61,1625853039.0,32.000000
-16,-13,61,1625853039.0,32.000000
-16,-13,61,1625853039.0,32.000000
-16,-13,61,1625853039.0,32.000000
-16,-13,61,1625853039.0,32.000000
-16,-13,62,1625853039.0,32.000000
-16,-13,61,1625853039.0,32.000000
-16,-13,61,1625853039.0,32.000000
-16,-13,62,1625853039.0,32.000000
-16,-13,62,1625853039.0,32.000000
-16,-13,61,1625853039.0,32.000000
-17,-13,61,1625853039.0,32.000000
-17,-13,61,1625853039.0,32.000000
-16,-13,61,1625853039.0,32.000000
-16,-13,61,1625853039.0,32.000000
-17,-13,61,1625853039.0,32.000000
-16,-13,62,1625853039.0,32.000000
-15,-13,62,1625853039.0,32.000000
-17,-13,61,1625853039.0,32.000000
-17,-13,61,1625853039.0,32.000000
-16,-13,62,1625853039.0,32.000000
-16,-13,61,1625853039.0,32.000000
-17,-13,61,1625853039.0,32.000000
-17,-13,62,1625853039.0,32.000000
-17,-13,62,1625853039.0,32.000000
-16,-13,61,1625853039.0,32.000000
-16,-13,61,1625853039.0,32.000000
-17,-13,61,1625853039.0,32.000000
-16,-13,62,1625853039.0,32.000000
-16,-13,62,1625853039.0,32.000000
-16,-13,61,1625853039.0,32.000000
-17,-13,61,1625853039.0,32.000000
-16,-13,62,1625853039.0,32.000000
-17,-13,61,1625853039.0,32.000000
-18,-13,61,1625853039.0,32.000000
-18,-13,61,1625853039.0,32.000000
-18,-13,61,1625853039.0,32.000000
-17,-13,61,1625853039.0,32.000000
-17,-13,62,1625853039.0,32.000000
-17,-13,61,1625853039.0,32.000000
-18,-13,61,1625853039.0,32.000000
-17,-13,61,1625853039.0,32.000000
-17,-13,61,1625853039.0,32.000000
-17,-13,61,1625853039.0,32.000000
-17,-14,61,1625853039.0,32.000000
-17,-13,61,1625853039.0,32.000000
-16,-14,62,1625853039.0,32.000000
-17,-14,61,1625853039.0,32.000000
-17,-13,62,1625853039.0,32.000000
-17,-13,61,1625853039.0,32.000000
-17,-14,61,1625853039.0,32.000000
-17,-13,61,1625853039.0,32.000000
-17,-14,62,1625853039.0,32.000000
-17,-13,61,1625853039.0,32.000000
-17,-13,61,1625853039.0,32.000000
-17,-13,61,1625853039.0,32.000000
-17,-13,61,1625853039.0,32.000000
-16,-13,61,1625853039.0,32.000000
-17,-13,61,1625853039.0,32.000000
-17,-14,61,1625853039.0,32.000000
-17,-13,61,1625853039.0,32.000000
-17,-13,61,1625853039.0,32.000000
-17,-13,61,1625853039.0,32.000000
-17,-13,61,1625853039.0,32.000000
-17,-13,61,1625853039.0,32.000000
-16,-13,61,1625853039.0,32.000000
-17,-13,62,1625853039.0,32.000000
-17,-13,61,1625853039.0,32.000000
-18,-13,61,1625853039.0,32.000000
-17,-13,61,1625853039.0,32.000000
-17,-13,61,1625853039.0,32.000000
-17,-13,61,1625853039.0,32.000000
-17,-13,61,1625853039.0,32.000000
-17,-13,61,1625853039.0,32.000000
-17,-14,61,1625853039.0,32.000000
-17,-14,61,1625853039.0,32.000000
-17,-13,61,1625853039.0,32.000000
-17,-14,61,1625853039.0,32.000000
-17,-13,61,1625853039.0,32.000000
-17,-13,61,1625853039.0,32.000000
-18,-13,61,1625853039.0,32.000000
-17,-13,61,1625853039.0,32.000000
-17,-14,61,1625853039.0,32.000000
-17,-13,61,1625853039.0,32.000000
-17,-13,61,1625853039.0,32.000000
-17,-14,61,1625853039.0,32.000000
-17,-13,62,1625853039.0,32.000000
-17,-13,62,1625853039.0,32.000000
-17,-14,61,1625853039.0,32.000000
-17,-13,61,1625853039.0,32.000000
-17,-13,61,1625853039.0,32.000000
-17,-13,61,1625853039.0,32.000000
-17,-14,62,1625853039.0,32.000000
-17,-14,61,1625853039.0,32.000000
-17,-13,61,1625853039.0,32.000000
-17,-13,61,1625853039.0,32.000000
-17,-14,61,1625853039.0,32.000000
-17,-13,61,1625853039.0,32.000000
-18,-13,61,1625853039.0,32.000000
-18,-13,61,1625853039.0,32.000000
-17,-14,61,1625853039.0,32.000000
-17,-14,61,1625853039.0,32.000000
-17,-13,61,1625853039.0,32.000000
-17,-13,61,1625853039.0,32.000000
-17,-13,61,1625853039.0,32.000000
-17,-14,61,1625853039.0,32.000000
-17,-13,61,1625853039.0,32.000000
-17,-13,61,1625853039.0,32.000000
-17,-13,61,1625853039.0,32.000000
-17,-14,61,1625853039.0,32.000000
-17,-13,61,1625853039.0,32.000000
-17,-13,61,1625853039.0,32.000000
-17,-13,61,1625853039.0,32.000000
-17,-13,61,1625853039.0,32.000000
-17,-13,61,1625853039.0,32.000000
-17,-13,61,1625853039.0,32.000000
-17,-13,61,1625853039.0,32.000000
-17,-14,61,1625853039.0,32.000000
-17,-13,61,1625853039.0,32.000000
-18,-13,61,1625853039.0,32.000000
-17,-13,61,1625853039.0,32.000000
-17,-13,61,1625853039.0,32.000000
-17,-14,61,1625853039.0,32.000000
-17,-13,61,1625853039.0,32.000000
-17,-13,61,1625853039.0,32.000000
-17,-14,61,1625853039.0,32.000000
-17,-14,61,1625853039.0,32.000000
-17,-13,61,1625853039.0,32.000000
-17,-13,61,1625853039.0,32.000000
-17,-14,61,1625853039.0,32.000000
-17,-13,61,1625853039.0,32.000000
-17,-13,61,1625853039.0,32.000000
-17,-13,61,1625853039.0,32.000000
-17,-13,61,1625853039.0,32.000000
-17,-14,62,1625853039.0,32.000000
-17,-14,61,1625853039.0,32.000000
-17,-14,62,1625853039.0,32.000000
-17,-13,61,1625853039.0,32.000000
-17,-14,61,1625853039.0,32.000000
-17,-13,61,1625853039.0,32.000000
-17,-13,61,1625853039.0,32.000000
-17,-13,61,1625853039.0,32.000000
-17,-14,61,1625853039.0,32.000000
-17,-14,61,1625853039.0,32.000000
-17,-13,61,1625853039.0,32.000000
-17,-13,61,1625853039.0,32.000000
-17,-13,61,1625853039.0,32.000000
-17,-13,62,1625853039.0,32.000000
-17,-14,62,1625853039.0,32.000000
-18,-13,61,1625853039.0,32.000000
-17,-13,61,1625853039.0,32.000000
-17,-13,61,1625853039.0,32.000000
-17,-13,61,1625853039.0,32.000000
-17,-14,61,1625853039.0,32.000000
-17,-14,61,1625853039.0,32.000000
-17,-13,61,1625853039.0,32.000000
-17,-13,61,1625853039.0,32.000000
-17,-13,61,1625853039.0,32.000000
-17,-13,61,1625853039.0,32.000000
-17,-13,61,1625853039.0,32.000000
-17,-13,61,1625853039.0,32.000000
-17,-13,61,1625853039.0,32.000000
-17,-14,61,1625853039.0,32.000000
-17,-13,61,1625853039.0,32.000000
-17,-13,61,1625853039.0,32.000000
-17,-14,61,1625853039.0,32.000000
-17,-14,61,1625853039.0,32.000000
-17,-14,61,1625853039.0,32.000000
-17,-13,61,1625853039.0,32.000000
-17,-13,61,1625853039.0,32.000000
-17,-13,61,1625853039.0,32.000000
-17,-13,61,1625853039.0,32.000000
-17,-13,61,1625853039.0,32.000000
-17,-13,61,1625853039.0,32.000000
-17,-13,61,1625853039.0,32.000000
-17,-14,61,1625853039.0,32.000000
-18,-14,61,1625853039.0,32.000000
-17,-13,61,1625853039.0,32.000000
-17,-13,61,1625853039.0,32.000000
-17,-14,61,1625853039.0,32.000000
-17,-13,61,1625853039.0,32.000000
-17,-13,61,1625853039.0,32.000000
-17,-13,61,1625853039.0,32.000000
-17,-13,61,1625853039.0,32.000000
-17,-13,61,1625853039.0,32.000000
-18,-13,61,1625853039.0,32.000000
-17,-13,61,1625853039.0,32.000000
-17,-14,61,1625853039.0,32.000000
-17,-13,61,1625853039.0,32.000000
-17,-13,61,1625853039.0,32.000000
-17,-13,61,1625853039.0,32.000000
-17,-14,61,1625853039.0,32.000000
-17,-13,61,1625853039.0,32.000000
-17,-13,62,1625853039.0,32.000000
-17,-13,61,1625853039.0,32.000000
-17,-13,61,1625853039.0,32.000000
-17,-13,61,1625853039.0,32.000000
-17,-14,61,1625853039.0,32.000000
-17,-13,61,1625853039.0,32.000000
-17,-13,61,1625853039.0,32.000000
-17,-14,61,1625853039.0,32.000000
-17,-13,61,1625853039.0,32.000000
-17,-13,61,1625853039.0,32.000000
-17,-13,61,1625853039.0,32.000000
-17,-13,61,1625853039.0,32.000000
-17,-13,61,1625853039.0,32.000000
-17,-14,61,1625853039.0,32.000000
-17,-13,61,1625853039.0,32.000000
-17,-13,61,1625853039.0,32.000000
-17,-14,61,1625853039.0,32.000000
-17,-13,61,1625853039.0,32.000000
-17,-13,61,1625853039.0,32.000000
-17,-13,61,1625853039.0,32.000000
-17,-13,61,1625853039.0,32.000000
-17,-13,61,1625853039.0,32.000000
-17,-14,61,1625853039.0,32.000000
-17,-14,61,1625853039.0,32.000000
-17,-13,61,1625853039.0,32.000000
-17,-13,61,1625853039.0,32.000000
-17,-13,61,1625853039.0,32.000000
-17,-14,61,1625853039.0,32.000000
-17,-13,61,1625853039.0,32.000000
-17,-13,61,1625853039.0,32.000000
-17,-13,61,1625853039.0,32.000000
-17,-13,61,1625853039.0,32.000000
-18,-13,61,1625853039.0,32.000000
-17,-13,61,1625853039.0,32.000000
-17,-13,61,1625853039.0,32.000000
-17,-13,61,1625853039.0,32.000000
-18,-13,61,1625853039.0,32.000000
-17,-13,61,1625853039.0,32.000000
-17,-13,61,1625853039.0,32.000000
-17,-14,61,1625853039.0,32.000000
-17,-13,61,1625853039.0,32.000000
-17,-13,61,1625853039.0,32.000000
-17,-13,61,1625853039.0,32.000000
-17,-14,61,1625853039.0,32.000000
-17,-13,61,1625853039.0,32.000000
-17,-13,61,1625853039.0,32.000000
-18,-13,61,1625853039.0,32.000000
-17,-13,61,1625853039.0,32.000000
-17,-13,61,1625853039.0,32.000000
-17,-14,61,1625853039.0,32.000000
-17,-13,61,1625853039.0,32.000000
-17,-13,61,1625853039.0,32.000000
-17,-13,61,1625853039.0,32.000000
-17,-13,61,1625853039.0,32.000000
-17,-13,61,1625853039.0,32.000000
-18,-13,61,1625853039.0,32.000000
-17,-14,61,1625853039.0,32.000000
-17,-13,61,1625853039.0,32.000000
-17,-14,61,1625853039.0,32.000000
-17,-13,61,1625853039.0,32.000000
-17,-14,61,1625853039.0,32.000000
-17,-13,61,1625853039.0,32.000000
-17,-13,61,1625853039.0,32.000000
-17,-14,61,1625853039.0,32.000000
-18,-13,61,1625853039.0,32.000000
-17,-14,61,1625853039.0,32.000000
-17,-13,61,1625853039.0,32.000000
-17,-13,61,1625853039.0,32.000000
-17,-14,61,1625853039.0,32.000000
-17,-13,61,1625853039.0,32.000000
-17,-13,61,1625853039.0,32.000000
-17,-13,61,1625853039.0,32.000000
-17,-14,61,1625853039.0,32.000000
-17,-14,61,1625853039.0,32.000000
-17,-13,61,1625853039.0,32.000000
-17,-13,61,1625853039.0,32.000000
-17,-14,61,1625853039.0,32.000000
-17,-13,61,1625853039.0,32.000000
-18,-13,61,1625853039.0,32.000000
-17,-13,61,1625853039.0,32.000000
-17,-13,61,1625853039.0,32.000000
-17,-14,61,1625853039.0,32.000000
-17,-13,61,1625853039.0,32.000000
-17,-13,61,1625853039.0,32.000000
-17,-14,61,1625853039.0,32.000000
-17,-13,61,1625853039.0,32.000000
-17,-13,61,1625853039.0,32.000000
-17,-13,61,1625853039.0,32.000000
-17,-13,61,1625853039.0,32.000000
-17,-13,61,1625853039.0,32.000000
-18,-14,61,1625853039.0,32.000000
-17,-13,61,1625853039.0,32.000000
-18,-13,61,1625853039.0,32.000000
-17,-14,61,1625853039.0,32.000000
-17,-13,61,1625853039.0,32.000000
-17,-13,61,1625853039.0,32.000000
-17,-14,61,1625853039.0,32.000000
-17,-13,61,1625853039.0,32.000000
-17,-14,61,1625853039.0,32.000000
-18,-14,61,1625853039.0,32.000000
-17,-13,61,1625853039.0,32.000000
-17,-13,61,1625853039.0,32.000000
-17,-14,61,1625853039.0,32.000000
-18,-14,61,1625853039.0,32.000000
-18,-14,61,1625853039.0,32.000000
-17,-13,61,1625853039.0,32.000000
-17,-13,61,1625853039.0,32.000000
-17,-14,61,1625853039.0,32.000000
-18,-13,61,1625853039.0,32.000000
-17,-13,61,1625853039.0,32.000000
-18,-13,61,1625853039.0,32.000000
-17,-14,61,1625853039.0,32.000000
-17,-13,61,1625853039.0,32.000000
-17,-13,61,1625853039.0,32.000000
-17,-14,61,1625853039.0,32.000000
-17,-14,61,1625853039.0,32.000000
-17,-13,61,1625853039.0,32.000000
-17,-13,61,1625853039.0,32.000000
-17,-13,61,1625853039.0,32.000000
-17,-13,61,1625853039.0,32.000000
-17,-14,61,1625853039.0,32.000000
-17,-13,61,1625853039.0,32.000000
-17,-14,61,1625853039.0,32.000000
-17,-14,61,1625853039.0,32.000000
-17,-13,61,1625853039.0,32.000000
-17,-14,61,1625853039.0,32.000000
-17,-13,61,1625853039.0,32.000000
-18,-14,61,1625853039.0,32.000000
-17,-14,61,1625853039.0,32.000000
-17,-13,61,1625853039.0,32.000000
-17,-13,61,1625853039.0,32.000000
-17,-13,61,1625853039.0,32.000000
-17,-13,61,1625853039.0,32.000000
-17,-14,61,1625853039.0,32.000000
-17,-13,61,1625853039.0,32.000000
-17,-13,61,1625853039.0,32.000000
-17,-13,61,1625853039.0,32.000000
-18,-14,61,1625853039.0,32.000000
-18,-13,61,1625853039.0,32.000000
-17,-13,61,1625853039.0,32.000000
-17,-14,61,1625853039.0,32.000000
-17,-14,61,1625853039.0,32.000000
-18,-13,62,1625853039.0,32.000000
-17,-13,61,1625853039.0,32.000000
-17,-13,61,1625853039.0,32.000000
-18,-13,61,1625853039.0,32.000000
-18,-13,61,1625853039.0,32.000000
-17,-14,61,1625853039.0,32.000000
-17,-14,61,1625853039.0,32.000000
-17,-13,61,1625853039.0,32.000000
-17,-13,61,1625853039.0,32.000000
-17,-14,61,1625853039.0,32.000000
-17,-14,61,1625853039.0,32.000000
-18,-13,61,1625853039.0,32.000000
-17,-13,61,1625853039.0,32.000000
-17,-13,61,1625853039.0,32.000000
-17,-14,61,1625853039.0,32.000000
-17,-14,61,1625853039.0,32.000000
-17,-14,61,1625853039.0,32.000000
-17,-13,61,1625853039.0,32.000000
-17,-13,61,1625853039.0,32.000000
-18,-14,61,1625853039.0,32.000000
-18,-13,61,1625853039.0,32.000000
-17,-13,61,1625853039.0,32.000000
-18,-14,61,1625853039.0,32.000000
-17,-13,61,1625853039.0,32.000000
-17,-13,61,1625853039.0,32.000000
-18,-14,61,1625853039.0,32.000000
-17,-13,61,1625853039.0,32.000000
-17,-14,61,1625853039.0,32.000000
-17,-14,61,1625853039.0,32.000000
-17,-13,61,1625853039.0,32.000000
-18,-14,61,1625853039.0,32.000000
-17,-13,61,1625853039.0,32.000000
-17,-13,61,1625853039.0,32.000000
-17,-14,61,1625853039.0,32.000000
-18,-14,61,1625853039.0,32.000000
-17,-14,61,1625853039.0,32.000000
-17,-13,61,1625853039.0,32.000000
-17,-13,61,1625853039.0,32.000000
-17,-13,61,1625853039.0,32.000000
-18,-13,61,1625853039.0,32.000000
-17,-14,61,1625853039.0,32.000000
-17,-13,61,1625853039.0,32.000000
-17,-13,61,1625853039.0,32.000000
-17,-13,61,1625853039.0,32.000000
-17,-13,61,1625853039.0,32.000000
-17,-13,61,1625853039.0,32.000000
-17,-13,61,1625853039.0,32.000000
-17,-14,61,1625853039.0,32.000000
-17,-14,61,1625853039.0,32.000000
-17,-13,61,1625853039.0,32.000000
-17,-13,61,1625853039.0,32.000000
-17,-13,61,1625853039.0,32.000000
-17,-13,61,1625853039.0,32.000000
-17,-14,61,1625853039.0,32.000000
-17,-13,61,1625853039.0,32.000000
-17,-13,61,1625853039.0,32.000000
-18,-13,61,1625853039.0,32.000000
-17,-14,61,1625853039.0,32.000000
-17,-14,61,1625853039.0,32.000000
-18,-13,61,1625853039.0,32.000000
-17,-13,61,1625853039.0,32.000000
-17,-13,61,1625853039.0,32.000000
-17,-13,61,1625853039.0,32.000000
-17,-13,61,1625853039.0,32.000000
-17,-14,61,1625853039.0,32.000000
-17,-13,61,1625853039.0,32.000000
-18,-14,61,1625853039.0,32.000000
-17,-14,61,1625853039.0,32.000000
-17,-14,61,1625853039.0,32.000000
-17,-13,61,1625853039.0,32.000000
-17,-13,61,1625853039.0,32.000000
-17,-13,61,1625853039.0,32.000000
-17,-14,62,1625853039.0,32.000000
-18,-13,62,1625853039.0,32.000000
-18,-13,62,1625853039.0,32.000000
-17,-15,62,1625853039.0,32.000000
-27,-9,64,1625853039.0,32.000000
-37,-8,79,1625853039.0,32.000000
-48,-7,96,1625853039.0,32.000000
-52,-13,90,1625853039.0,32.000000
-49,-16,85,1625853039.0,32.000000
-34,-20,68,1625853039.0,32.000000
-28,-26,55,1625853039.0,32.000000
-12,-23,43,1625853039.0,32.000000
-6,-20,42,1625853039.0,32.000000
13,-10,33,1625853039.0,32.000000
19,-9,30,1625853039.0,32.000000
32,-16,45,1625853039.0,32.000000
43,-20,45,1625853039.0,32.000000
44,-26,40,1625853039.0,32.000000
40,-33,48,1625853039.0,32.000000
32,-35,38,1625853039.0,32.000000
33,-39,40,1625853039.0,32.000000
25,-35,46,1625853039.0,32.000000
22,-32,51,1625853039.0,32.000000
22,-35,49,1625853039.0,32.000000
26,-36,40,1625853039.0,32.000000
26,-37,32,1625853039.0,32.000000
46,-28,42,1625853039.0,32.000000
52,-25,46,1625853039.0,32.000000
48,-25,36,1625853039.0,32.000000
41,-26,34,1625853039.0,32.000000
29,-26,36,1625853039.0,32.000000
41,-25,37,1625853039.0,32.000000
30,-25,32,1625853039.0,32.000000
20,-27,40,1625853039.0,32.000000
29,-27,43,1625853039.0,32.000000
37,-33,37,1625853039.0,32.000000
57,-27,54,1625853039.0,32.000000
38,-28,46,1625853039.0,32.000000
38,-29,46,1625853039.0,32.000000
45,-24,51,1625853039.0,32.000000
39,-29,44,1625853039.0,32.000000
41,-22,42,1625853039.0,32.000000
37,-20,40,1625853039.0,32.000000
24,-24,37,1625853039.0,32.000000
29,-16,46,1625853039.0,32.000000
11,-27,41,1625853039.0,32.000000
-6,-25,37,1625853039.0,32.000000
-8,-25,38,1625853039.0,32.000000
-35,-40,40,1625853039.0,32.000000
-38,-40,46,1625853039.0,32.000000
-56,-40,37,1625853039.0,32.000000
-50,-49,24,1625853039.0,32.000000
-42,-50,23,1625853039.0,32.000000
-42,-43,25,1625853039.0,32.000000
-31,-40,36,1625853039.0,32.000000
16,-38,67,1625853039.0,32.000000
18,-31,64,1625853039.0,32.000000
-47,-17,51,1625853039.0,32.000000
-51,-20,61,1625853039.0,32.000000
-42,-20,60,1625853039.0,32.000000
-33,-12,60,1625853039.0,32.000000
-24,-13,69,1625853039.0,32.000000
-8,-13,71,1625853039.0,32.000000
-12,-11,68,1625853039.0,32.000000
-12,-10,72,1625853039.0,32.000000
-13,-14,71,1625853039.0,32.000000
-18,-16,62,1625853039.0,32.000000
-15,-17,56,1625853039.0,32.000000
-18,-25,56,1625853039.0,32.000000
-16,-23,60,1625853039.0,32.000000
-12,-16,62,1625853039.0,32.000000
-17,-17,60,1625853039.0,32.000000
-27,-9,58,1625853039.0,32.000000
-26,-15,63,1625853039.0,32.000000
-16,-14,59,1625853039.0,32.000000
-15,-11,60,1625853039.0,32.000000
-14,-14,62,1625853039.0,32.000000
-33,-16,66,1625853039.0,32.000000
-21,-16,59,1625853039.0,32.000000
-19,-12,59,1625853039.0,32.000000
-18,-14,60,1625853039.0,32.000000
-18,-13,63,1625853039.0,32.000000
-17,-13,61,1625853039.0,32.000000
-18,-13,61,1625853039.0,32.000000
-18,-13,61,1625853039.0,32.000000
-18,-13,61,1625853039.0,32.000000
-18,-14,61,1625853039.0,32.000000
-17,-14,61,1625853039.0,32.000000
-18,-13,62,1625853039.0,32.000000
-18,-14,61,1625853039.0,32.000000
-18,-14,62,1625853039.0,32.000000
-19,-13,60,1625853039.0,32.000000
-20,-13,60,1625853039.0,32.000000
-19,-13,60,1625853039.0,32.000000
-19,-13,60,1625853039.0,32.000000
-20,-14,61,1625853039.0,32.000000
-20,-14,61,1625853039.0,32.000000
-19,-13,60,1625853039.0,32.000000
-20,-13,60,1625853039.0,32.000000
-21,-14,60,1625853039.0,32.000000
-20,-14,60,1625853039.0,32.000000
-20,-13,61,1625853039.0,32.000000
-21,-14,60,1625853039.0,32.000000
-22,-13,60,1625853039.0,32.000000
-17,-13,61,1625853039.0,32.000000
-20,-14,60,1625853039.0,32.000000
-23,-13,59,1625853039.0,32.000000
-21,-13,60,1625853039.0,32.000000
-20,-13,60,1625853039.0,32.000000
-21,-14,60,1625853039.0,32.000000
-21,-13,60,1625853039.0,32.000000
-22,-13,60,1625853039.0,32.000000
-22,-13,60,1625853039.0,32.000000
-22,-13,60,1625853039.0,32.000000
-21,-14,60,1625853039.0,32.000000
-21,-13,61,1625853039.0,32.000000
-22,-13,60,1625853039.0,32.000000
-22,-14,59,1625853039.0,32.000000
-23,-13,59,1625853039.0,32.000000
-22,-13,59,1625853039.0,32.000000
-23,-11,58,1625853039.0,32.000000
-22,-12,59,1625853039.0,32.000000
-23,-12,61,1625853039.0,32.000000
-21,-12,59,1625853039.0,32.000000
-22,-12,61,1625853039.0,32.000000
-22,-14,61,1625853039.0,32.000000
-19,-14,61,1625853039.0,32.000000
-20,-15,60,1625853039.0,32.000000
-20,-15,61,1625853039.0,32.000000
-20,-12,61,1625853039.0,32.000000
-20,-12,61,1625853039.0,32.000000
-20,-11,60,1625853039.0,32.000000
-22,-11,59,1625853039.0,32.000000
-24,-13,59,1625853039.0,32.000000
-22,-11,59,1625853039.0,32.000000
-20,-11,59,1625853039.0,32.000000
-20,-12,61,1625853039.0,32.000000
-16,-15,63,1625853039.0,32.000000
-14,-15,63,1625853039.0,32.000000
-15,-14,62,1625853039.0,32.000000
-20,-13,60,1625853039.0,32.000000
-23,-14,59,1625853039.0,32.000000
-17,-15,61,1625853039.0,32.000000
-17,-14,61,1625853039.0,32.000000
-18,-14,61,1625853039.0,32.000000
-18,-15,61,1625853039.0,32.000000
-18,-15,61,1625853039.0,32.000000
-17,-15,61,1625853039.0,32.000000
-18,-14,61,1625853039.0,32.000000
-18,-14,61,1625853039.0,32.000000
-18,-14,61,1625853039.0,32.000000
-18,-14,61,1625853039.0,32.000000
-18,-13,61,1625853039.0,32.000000
-18,-13,61,1625853039.0,32.000000
-18,-13,61,1625853039.0,32.000000
-19,-12,61,1625853039.0,32.000000
-18,-12,61,1625853039.0,32.000000
-17,-12,61,1625853039.0,32.000000
-18,-12,61,1625853039.0,32.000000
-18,-13,61,1625853039.0,32.000000
-17,-12,61,1625853039.0,32.000000
-16,-12,62,1625853039.0,32.000000
-18,-12,61,1625853039.0,32.000000
-18,-12,61,1625853039.0,32.000000
-17,-12,61,1625853039.0,32.000000
-18,-12,61,1625853039.0,32.000000
-17,-12,61,1625853039.0,32.000000
-17,-12,62,1625853039.0,32.000000
-17,-13,61,1625853039.0,32.000000
-16,-13,62,1625853039.0,32.000000
-16,-12,62,1625853039.0,32.000000
-17,-13,61,1625853039.0,32.000000
-17,-13,61,1625853039.0,32.000000
-17,-13,61,1625853039.0,32.000000
-17,-13,61,1625853039.0,32.000000
-17,-12,62,1625853039.0,32.000000
-16,-12,62,1625853039.0,32.000000
-17,-13,62,1625853039.0,32.000000
-17,-13,61,1625853039.0,32.000000
-17,-13,61,1625853039.0,32.000000
-17,-12,61,1625853039.0,32.000000
-17,-13,61,1625853039.0,32.000000
-17,-13,61,1625853039.0,32.000000
-16,-13,62,1625853039.0,32.000000
-17,-13,61,1625853039.0,32.000000
-17,-13,61,1625853039.0,32.000000
-17,-13,61,1625853039.0,32.000000
-17,-13,61,1625853039.0,32.000000
-17,-13,61,1625853039.0,32.000000
-17,-13,62,1625853039.0,32.000000
-17,-13,62,1625853039.0,32.000000
-17,-13,61,1625853039.0,32.000000
-17,-13,61,1625853039.0,32.000000
-17,-13,61,1625853039.0,32.000000
-17,-13,62,1625853039.0,32.000000
-17,-13,61,1625853039.0,32.000000
-17,-13,61,1625853039.0,32.000000
-17,-13,62,1625853039.0,32.000000
-17,-13,61,1625853039.0,32.000000
-17,-13,61,1625853039.0,32.000000
-17,-13,61,1625853039.0,32.000000
-17,-13,61,1625853039.0,32.000000
-17,-13,61,1625853039.0,32.000000
-17,-13,61,1625853039.0,32.000000
-17,-13,61,1625853039.0,32.000000
-17,-13,61,1625853039.0,32.000000
-17,-13,61,1625853039.0,32.000000
-17,-13,61,1625853039.0,32.000000
-17,-13,61,1625853039.0,32.000000
-17,-13,61,1625853039.0,32.000000
-17,-13,61,1625853039.0,32.000000
-17,-13,61,1625853039.0,32.000000
-17,-13,61,1625853039.0,32.000000
-17,-13,62,1625853039.0,32.000000
-17,-13,61,1625853039.0,32.000000
-18,-13,61,1625853039.0,32.000000
-17,-13,61,1625853039.0,32.000000
-17,-13,61,1625853039.0,32.000000
-17,-13,61,1625853039.0,32.000000
-17,-13,61,1625853039.0,32.000000
-17,-13,61,1625853039.0,32.000000
-17,-13,61,1625853039.0,32.000000
-17,-13,61,1625853039.0,32.000000
-17,-13,61,1625853039.0,32.000000
-17,-13,61,1625853039.0,32.000000
-17,-13,61,1625853039.0,32.000000
-17,-13,61,1625853039.0,32.000000
-17,-13,61,1625853039.0,32.000000
-17,-13,61,1625853039.0,32.000000
-17,-13,61,1625853039.0,32.000000
-17,-13,61,1625853039.0,32.000000
-17,-13,61,1625853039.0,32.000000
-17,-13,61,1625853039.0,32.000000
-17,-13,61,1625853039.0,32.000000
-17,-13,61,1625853039.0,32.000000
-17,-13,61,1625853039.0,32.000000
-17,-13,61,1625853039.0,32.000000
-17,-13,61,1625853039.0,32.000000
-17,-13,62,1625853039.0,32.000000
-17,-13,61,1625853039.0,32.000000
-17,-13,61,1625853039.0,32.000000
-17,-13,61,1625853039.0,32.000000
-17,-13,61,1625853039.0,32.000000
-17,-13,61,1625853039.0,32.000000
-17,-13,61,1625853039.0,32.000000
-17,-13,61,1625853039.0,32.000000
-17,-13,61,1625853039.0,32.000000
-17,-13,61,1625853039.0,32.000000
-17,-13,61,1625853039.0,32.000000
-17,-13,61,1625853039.0,32.000000
-18,-13,61,1625853039.0,32.000000
-17,-13,61,1625853039.0,32.000000
-16,-13,61,1625853039.0,32.000000
-17,-13,61,1625853039.0,32.000000
-17,-13,61,1625853039.0,32.000000
-17,-13,61,1625853039.0,32.000000
-17,-13,61,1625853039.0,32.000000
-17,-13,61,1625853039.0,32.000000
-17,-13,61,1625853039.0,32.000000
-17,-13,61,1625853039.0,32.000000
-17,-13,61,1625853039.0,32.000000
-17,-13,61,1625853039.0,32.000000
-17,-13,61,1625853039.0,32.000000
-17,-13,61,1625853039.0,32.000000
-17,-13,61,1625853039.0,32.000000
-17,-13,61,1625853039.0,32.000000
-17,-13,61,1625853039.0,32.000000
-17,-13,61,1625853039.0,32.000000
-17,-13,61,1625853039.0,32.000000
-17,-13,61,1625853039.0,32.000000
-17,-13,61,1625853039.0,32.000000
-17,-13,61,1625853039.0,32.000000
-17,-13,61,1625853039.0,32.000000
-17,-13,61,1625853039.0,32.000000
-17,-13,61,1625853039.0,32.000000
-17,-13,61,1625853039.0,32.000000
-17,-13,61,1625853039.0,32.000000
-17,-13,61,1625853039.0,32.000000
-17,-13,61,1625853039.0,32.000000
-17,-13,61,1625853039.0,32.000000
-17,-13,61,1625853039.0,32.000000
-17,-13,61,1625853039.0,32.000000
-17,-13,61,1625853039.0,32.000000
-17,-13,61,1625853039.0,32.000000
-17,-13,61,1625853039.0,32.000000
-17,-13,62,1625853039.0,32.000000
-17,-13,61,1625853039.0,32.000000
-17,-13,61,1625853039.0,32.000000
-17,-13,61,1625853039.0,32.000000
-17,-13,61,1625853039.0,32.000000
-17,-13,61,1625853039.0,32.000000
-17,-13,61,1625853039.0,32.000000
-17,-13,61,1625853039.0,32.000000
-17,-13,61,1625853039.0,32.000000
-17,-13,61,1625853039.0,32.000000
-17,-13,61,1625853039.0,32.000000
-17,-13,61,1625853039.0,32.000000
-17,-13,61,1625853039.0,32.000000
-17,-13,61,1625853039.0,32.000000
-17,-13,61,1625853039.0,32.000000
-17,-13,61,1625853039.0,32.000000
-17,-13,61,1625853039.0,32.000000
-17,-13,61,1625853039.0,32.000000
-17,-13,61,1625853039.0,32.000000
-17,-14,61,1625853039.0,32.000000
-17,-13,62,1625853039.0,32.000000
-17,-13,61,1625853039.0,32.000000
-17,-13,61,1625853039.0,32.000000
-17,-13,61,1625853039.0,32.000000
-17,-13,61,1625853039.0,32.000000
-17,-13,62,1625853039.0,32.000000
-17,-13,61,1625853039.0,32.000000
-17,-13,61,1625853039.0,32.000000
-17,-12,62,1625853039.0,32.000000
-16,-12,62,1625853039.0,32.000000
-17,-12,61,1625853039.0,32.000000
-17,-12,62,1625853039.0,32.000000
-17,-13,62,1625853039.0,32.000000
-17,-13,62,1625853039.0,32.000000
-16,-13,62,1625853039.0,32.000000
-16,-11,62,1625853039.0,32.000000
-16,-12,62,1625853039.0,32.000000
-16,-11,61,1625853039.0,32.000000
-16,-10,62,1625853039.0,32.000000
-16,-10,62,1625853039.0,32.000000
-16,-11,62,1625853039.0,32.000000
-16,-11,62,1625853039.0,32.000000
-18,-13,62,1625853039.0,32.000000
-17,-12,62,1625853039.0,32.000000
-14,-11,63,1625853039.0,32.000000
-15,-11,62,1625853039.0,32.000000
-15,-11,62,1625853039.0,32.000000
-16,-11,61,1625853039.0,32.000000
-16,-11,62,1625853039.0,32.000000
-16,-12,62,1625853039.0,32.000000
-16,-11,61,1625853039.0,32.000000
-15,-12,62,1625853039.0,32.000000
-14,-12,62,1625853039.0,32.000000
-16,-14,62,1625853039.0,32.000000
-11,-13,62,1625853039.0,32.000000
-9,-10,63,1625853039.0,32.000000
-17,-12,61,1625853039.0,32.000000
-16,-16,61,1625853039.0,32.000000
-13,-14,62,1625853039.0,32.000000
-15,-13,61,1625853039.0,32.000000
-15,-12,62,1625853039.0,32.000000
-14,-12,62,1625853039.0,32.000000
-14,-13,61,1625853039.0,32.000000
-13,-13,62,1625853039.0,32.000000
-13,-13,62,1625853039.0,32.000000
-14,-13,61,1625853039.0,32.000000
-14,-14,62,1625853039.0,32.000000
-11,-14,63,1625853039.0,32.000000
-18,-14,61,1625853039.0,32.000000
-12,-13,60,1625853039.0,32.000000
-10,-14,66,1625853039.0,32.000000
-7,-13,65,1625853039.0,32.000000
-13,-12,62,1625853039.0,32.000000
-15,-14,62,1625853039.0,32.000000
-14,-14,62,1625853039.0,32.000000
-13,-14,62,1625853039.0,32.000000
-13,-14,62,1625853039.0,32.000000
-13,-13,62,1625853039.0,32.000000
-13,-13,62,1625853039.0,32.000000
-14,-13,62,1625853039.0,32.000000
-13,-14,62,1625853039.0,32.000000
-13,-14,62,1625853039.0,32.000000
-13,-13,62,1625853039.0,32.000000
-12,-13,62,1625853039.0,32.000000
-12,-13,62,1625853039.0,32.000000
-12,-13,62,1625853039.0,32.000000
-13,-13,62,1625853039.0,32.000000
-13,-15,62,1625853039.0,32.000000
-16,-15,61,1625853039.0,32.000000
-15,-14,62,1625853039.0,32.000000
-14,-14,62,1625853039.0,32.000000
-13,-13,62,1625853039.0,32.000000
-14,-14,62,1625853039.0,32.000000
-14,-14,62,1625853039.0,32.000000
-14,-14,61,1625853039.0,32.000000
-14,-14,62,1625853039.0,32.000000
-13,-14,62,1625853039.0,32.000000
-14,-14,62,1625853039.0,32.000000
-14,-14,62,1625853039.0,32.000000
-13,-14,62,1625853039.0,32.000000
-13,-14,62,1625853039.0,32.000000
-14,-14,62,1625853039.0,32.000000
-13,-14,62,1625853039.0,32.000000
-13,-14,62,1625853039.0,32.000000
-13,-14,62,1625853039.0,32.000000
-13,-14,62,1625853039.0,32.000000
-13,-14,62,1625853039.0,32.000000
-14,-14,61,1625853039.0,32.000000
-13,-14,62,1625853039.0,32.000000
-13,-14,62,1625853039.0,32.000000
-14,-14,62,1625853039.0,32.000000
-14,-14,62,1625853039.0,32.000000
-13,-14,62,1625853039.0,32.000000
-13,-14,62,1625853039.0,32.000000
-13,-14,62,1625853039.0,32.000000
-14,-14,62,1625853039.0,32.000000
-13,-14,62,1625853039.0,32.000000
-13,-14,62,1625853039.0,32.000000
-14,-14,62,1625853039.0,32.000000
-14,-14,62,1625853039.0,32.000000
-14,-14,62,1625853039.0,32.000000
-14,-14,62,1625853039.0,32.000000
-14,-14,62,1625853039.0,32.000000
-14,-14,62,1625853039.0,32.000000
-14,-14,62,1625853039.0,32.000000
-14,-14,61,1625853039.0,32.000000
-14,-14,62,1625853039.0,32.000000
-14,-14,62,1625853039.0,32.000000
-14,-14,62,1625853039.0,32.000000
-14,-14,62,1625853039.0,32.000000
-14,-14,62,1625853039.0,32.000000
-13,-14,62,1625853039.0,32.000000
-14,-14,62,1625853039.0,32.000000
-14,-14,62,1625853039.0,32.000000
-14,-14,62,1625853039.0,32.000000
-13,-14,61,1625853039.0,32.000000
-13,-14,62,1625853039.0,32.000000
-13,-14,62,1625853039.0,32.000000
-13,-14,62,1625853039.0,32.000000
-14,-14,62,1625853039.0,32.000000
-14,-14,62,1625853039.0,32.000000
-13,-14,62,1625853039.0,32.000000
-13,-14,62,1625853039.0,32.000000
-13,-14,62,1625853039.0,32.000000
-13,-14,62,1625853039.0,32.000000
-13,-14,62,1625853039.0,32.000000
-13,-14,62,1625853039.0,32.000000
-13,-14,62,1625853039.0,32.000000
-14,-14,62,1625853039.0,32.000000
-14,-14,62,1625853039.0,32.000000
-14,-14,62,1625853039.0,32.000000
-14,-14,62,1625853039.0,32.000000
-13,-14,61,1625853039.0,32.000000
-13,-14,62,1625853039.0,32.000000
-14,-14,62,1625853039.0,32.000000
-14,-14,62,1625853039.0,32.000000
-13,-14,62,1625853039.0,32.000000
-14,-14,62,1625853039.0,32.000000
-14,-14,62,1625853039.0,32.000000
-14,-14,62,1625853039.0,32.000000
-13,-14,62,1625853039.0,32.000000
-13,-14,62,1625853039.0,32.000000
-13,-14,62,1625853039.0,32.000000
-14,-14,62,1625853039.0,32.000000
-13,-14,62,1625853039.0,32.000000
-13,-14,62,1625853039.0,32.000000
-13,-14,62,1625853039.0,32.000000
-13,-14,62,1625853039.0,32.000000
-13,-14,62,1625853039.0,32.000000
-13,-14,62,1625853039.0,32.000000
-13,-14,62,1625853039.0,32.000000
-14,-14,62,1625853039.0,32.000000
-13,-14,62,1625853039.0,32.000000
-13,-14,62,1625853039.0,32.000000
-13,-14,62,1625853039.0,32.000000
-13,-14,62,1625853039.0,32.000000
-13,-14,62,1625853039.0,32.000000
-13,-14,62,1625853039.0,32.000000
-13,-14,62,1625853039.0,32.000000
-13,-14,62,1625853039.0,32.000000
-14,-14,62,1625853039.0,32.000000
-14,-14,62,1625853039.0,32.000000
-13,-14,62,1625853039.0,32.000000
-13,-14,62,1625853039.0,32.000000
-14,-14,62,1625853039.0,32.000000
-14,-14,62,1625853039.0,32.000000
-14,-14,62,1625853039.0,32.000000
-13,-14,62,1625853039.0,32.000000
-13,-14,62,1625853039.0,32.000000
-14,-14,62,1625853039.0,32.000000
-13,-14,62,1625853039.0,32.000000
-14,-14,62,1625853039.0,32.000000
-13,-14,62,1625853039.0,32.000000
-13,-14,62,1625853039.0,32.000000
-14,-14,62,1625853039.0,32.000000
-13,-14,62,1625853039.0,32.000000
-13,-14,62,1625853039.0,32.000000
-13,-14,62,1625853039.0,32.000000
-13,-14,61,1625853039.0,32.000000
-14,-14,62,1625853039.0,32.000000
-13,-14,62,1625853039.0,32.000000
-13,-14,62,1625853039.0,32.000000
-13,-14,62,1625853039.0,32.000000
-13,-14,62,1625853039.0,32.000000
-13,-14,62,1625853039.0,32.000000
-13,-14,62,1625853039.0,32.000000
-13,-14,62,1625853039.0,32.000000
-14,-14,62,1625853039.0,32.000000
-14,-14,62,1625853039.0,32.000000
-14,-14,62,1625853039.0,32.000000
-13,-14,62,1625853039.0,32.000000
-13,-14,62,1625853039.0,32.000000
-13,-14,62,1625853039.0,32.000000
-13,-14,62,1625853039.0,32.000000
-13,-14,62,1625853039.0,32.000000
-13,-14,62,1625853039.0,32.000000
-13,-14,62,1625853039.0,32.000000
-13,-14,62,1625853039.0,32.000000
-13,-14,62,1625853039.0,32.000000
-13,-14,62,1625853039.0,32.000000
-13,-14,62,1625853039.0,32.000000
-13,-14,62,1625853039.0,32.000000
-13,-14,62,1625853039.0,32.000000
-13,-14,62,1625853039.0,32.000000
-13,-14,62,1625853039.0,32.000000
-13,-14,62,1625853039.0,32.000000
-13,-14,62,1625853039.0,32.000000
-13,-14,62,1625853039.0,32.000000
-14,-14,62,1625853039.0,32.000000
-14,-14,62,1625853039.0,32.000000
-13,-14,62,1625853039.0,32.000000
-13,-14,62,1625853039.0,32.000000
-14,-14,62,1625853039.0,32.000000
-13,-14,62,1625853039.0,32.000000
-13,-14,62,1625853039.0,32.000000
-14,-14,62,1625853039.0,32.000000
-13,-14,62,1625853039.0,32.000000
-13,-14,62,1625853039.0,32.000000
-14,-14,62,1625853039.0,32.000000
-13,-14,62,1625853039.0,32.000000
-13,-14,62,1625853039.0,32.000000
-14,-14,62,1625853039.0,32.000000
-13,-14,62,1625853039.0,32.000000
-13,-14,62,1625853039.0,32.000000
-13,-14,62,1625853039.0,32.000000
-13,-14,62,1625853039.0,32.000000
-13,-14,62,1625853039.0,32.000000
-13,-14,62,1625853039.0,32.000000
-13,-14,62,1625853039.0,32.000000
-13,-14,62,1625853039.0,32.000000
-13,-14,62,1625853039.0,32.000000
-13,-14,62,1625853039.0,32.000000
-13,-14,62,1625853039.0,32.000000
-14,-14,62,1625853039.0,32.000000
-13,-14,62,1625853039.0,32.000000
-14,-14,62,1625853039.0,32.000000
-13,-14,62,1625853039.0,32.000000
-13,-14,62,1625853039.0,32.000000
-13,-14,62,1625853039.0,32.000000
-14,-14,62,1625853039.0,32.000000
-13,-14,62,1625853039.0,32.000000
-13,-14,62,1625853039.0,32.000000
-13,-14,62,1625853039.0,32.000000
-13,-14,62,1625853039.0,32.000000
-13,-14,62,1625853039.0,32.000000
-13,-14,62,1625853039.0,32.000000
-14,-14,62,1625853039.0,32.000000
-14,-14,62,1625853039.0,32.000000
-13,-14,62,1625853039.0,32.000000
-13,-14,62,1625853039.0,32.000000
-14,-14,62,1625853039.0,32.000000
-13,-14,62,1625853039.0,32.000000
-13,-14,62,1625853039.0,32.000000
-14,-14,62,1625853039.0,32.000000
-13,-14,62,1625853039.0,32.000000
-13,-14,62,1625853039.0,32.000000
-13,-14,62,1625853039.0,32.000000
-13,-14,61,1625853039.0,32.000000
-14,-14,62,1625853039.0,32.000000
-13,-14,62,1625853039.0,32.000000
-13,-14,62,1625853039.0,32.000000
-13,-14,62,1625853039.0,32.000000
-13,-14,62,1625853039.0,32.000000
-13,-14,62,1625853039.0,32.000000
-13,-14,62,1625853039.0,32.000000
-13,-14,62,1625853039.0,32.000000
-14,-14,62,1625853039.0,32.000000
-13,-14,62,1625853039.0,32.000000
-13,-14,62,1625853039.0,32.000000
-13,-14,62,1625853039.0,32.000000
-13,-14,62,1625853039.0,32.000000
-13,-14,62,1625853039.0,32.000000
-13,-14,62,1625853039.0,32.000000
-13,-14,62,1625853039.0,32.000000
-13,-14,62,1625853039.0,32.000000
-13,-14,62,1625853039.0,32.000000
-13,-14,62,1625853039.0,32.000000
-13,-14,62,1625853039.0,32.000000
-13,-14,62,1625853039.0,32.000000
-13,-14,62,1625853039.0,32.000000
-13,-14,62,1625853039.0,32.000000
-14,-14,62,1625853039.0,32.000000
-13,-14,62,1625853039.0,32.000000
-13,-14,62,1625853039.0,32.000000
-13,-14,62,1625853039.0,32.000000
-13,-14,62,1625853039.0,32.000000
-13,-14,62,1625853039.0,32.000000
-13,-14,62,1625853039.0,32.000000
-13,-14,62,1625853039.0,32.000000
-13,-14,62,1625853039.0,32.000000
-13,-14,62,1625853039.0,32.000000
-13,-14,62,1625853039.0,32.000000
-13,-14,62,1625853039.0,32.000000
-13,-14,62,1625853039.0,32.000000
-13,-14,62,1625853039.0,32.000000
-14,-14,62,1625853039.0,32.000000
-12,-14,62,1625853039.0,32.000000
-14,-14,62,1625853039.0,32.000000
-13,-14,62,1625853039.0,32.000000
-14,-14,62,1625853039.0,32.000000
-14,-14,62,1625853039.0,32.000000
-13,-14,62,1625853039.0,32.000000
-13,-14,62,1625853039.0,32.000000
-13,-14,62,1625853039.0,32.000000
-14,-14,62,1625853039.0,32.000000
-13,-14,62,1625853039.0,32.000000
-13,-14,62,1625853039.0,32.000000
-13,-14,62,1625853039.0,32.000000
-13,-14,62,1625853039.0,32.000000
-13,-14,62,1625853039.0,32.000000
-13,-14,62,1625853039.0,32.000000
-13,-14,62,1625853039.0,32.000000
-13,-14,62,1625853039.0,32.000000
-13,-14,62,1625853039.0,32.000000
-13,-14,62,1625853039.0,32.000000
-13,-14,62,1625853039.0,32.000000
-13,-14,62,1625853039.0,32.000000
-13,-14,62,1625853039.0,32.000000
-13,-14,62,1625853039.0,32.000000
-13,-14,62,1625853039.0,32.000000
-13,-14,62,1625853039.0,32.000000
-13,-14,62,1625853039.0,32.000000
-13,-14,62,1625853039.0,32.000000
-13,-14,62,1625853039.0,32.000000
-13,-14,62,1625853039.0,32.000000
-13,-14,62,1625853039.0,32.000000
-14,-14,62,1625853039.0,32.000000
-13,-14,62,1625853039.0,32.000000
-13,-14,62,1625853039.0,32.000000
-14,-14,62,1625853039.0,32.000000
-13,-14,62,1625853039.0,32.000000
-13,-14,62,1625853039.0,32.000000
-13,-14,62,1625853039.0,32.000000
-13,-14,62,1625853039.0,32.000000
-13,-14,62,1625853039.0,32.000000
-13,-14,62,1625853039.0,32.000000
-13,-14,62,1625853039.0,32.000000
-13,-14,62,1625853039.0,32.000000
-14,-14,62,1625853039.0,32.000000
-13,-14,62,1625853039.0,32.000000
-13,-14,62,1625853039.0,32.000000
-13,-14,62,1625853039.0,32.000000
-13,-14,62,1625853039.0,32.000000
-13,-14,62,1625853039.0,32.000000
-14,-14,62,1625853039.0,32.000000
-13,-14,62,1625853039.0,32.000000
-13,-14,62,1625853039.0,32.000000
-13,-14,62,1625853039.0,32.000000
-13,-14,62,1625853039.0,32.000000
-14,-14,62,1625853039.0,32.000000
-13,-14,62,1625853039.0,32.000000
-13,-14,61,1625853039.0,32.000000
-13,-14,62,1625853039.0,32.000000
-13,-14,62,1625853039.0,32.000000
-13,-14,62,1625853039.0,32.000000
-13,-14,62,1625853039.0,32.000000
-13,-14,62,1625853039.0,32.000000
-13,-14,61,1625853039.0,32.000000
-13,-14,62,1625853039.0,32.000000
-13,-14,62,1625853039.0,32.000000
-14,-14,62,1625853039.0,32.000000
-14,-14,62,1625853039.0,32.000000
-13,-14,62,1625853039.0,32.000000
-13,-14,62,1625853039.0,32.000000
-13,-14,62,1625853039.0,32.000000
-13,-14,62,1625853039.0,32.000000
-13,-14,62,1625853039.0,32.000000
-13,-14,62,1625853039.0,32.000000
-13,-14,62,1625853039.0,32.000000
-13,-14,62,1625853039.0,32.000000
-13,-14,62,1625853039.0,32.000000
-14,-14,62,1625853039.0,32.000000
-13,-14,62,1625853039.0,32.000000
-13,-14,62,1625853039.0,32.000000
-13,-14,62,1625853039.0,32.000000
-13,-14,62,1625853039.0,32.000000
-14,-14,62,1625853039.0,32.000000
-13,-14,62,1625853039.0,32.000000
-13,-14,62,1625853039.0,32.000000
-14,-14,62,1625853039.0,32.000000
-13,-14,62,1625853039.0,32.000000
-13,-14,62,1625853039.0,32.000000
-13,-14,62,1625853039.0,32.000000
-13,-14,62,1625853039.0,32.000000
-13,-14,62,1625853039.0,32.000000
-13,-14,62,1625853039.0,32.000000
-13,-14,62,1625853039.0,32.000000
-13,-14,62,1625853039.0,32.000000
-13,-14,62,1625853039.0,32.000000
-13,-14,62,1625853039.0,32.000000
-13,-14,62,1625853039.0,32.000000
-13,-14,62,1625853039.0,32.000000
-14,-14,61,1625853039.0,32.000000
-13,-14,62,1625853039.0,32.000000
-14,-14,62,1625853039.0,32.000000
-13,-14,62,1625853039.0,32.000000
-13,-14,62,1625853039.0,32.000000
-14,-14,62,1625853039.0,32.000000
-14,-14,61,1625853039.0,32.000000
-13,-14,62,1625853039.0,32.000000
-14,-14,62,1625853039.0,32.000000
-14,-14,62,1625853039.0,32.000000
-14,-14,62,1625853039.0,32.000000
-13,-14,62,1625853039.0,32.000000
-13,-14,62,1625853039.0,32.000000
-13,-14,62,1625853039.0,32.000000
-13,-14,62,1625853039.0,32.000000
-14,-14,62,1625853039.0,32.000000
-14,-14,62,1625853039.0,32.000000
-13,-14,62,1625853039.0,32.000000
-14,-14,62,1625853039.0,32.000000
-13,-14,62,1625853039.0,32.000000
-14,-14,62,1625853039.0,32.000000
-14,-14,62,1625853039.0,32.000000
-14,-14,62,1625853039.0,32.000000
-13,-14,62,1625853039.0,32.000000
-14,-14,62,1625853039.0,32.000000
-13,-14,62,1625853039.0,32.000000
-14,-14,62,1625853039.0,32.000000
-14,-14,62,1625853039.0,32.000000
-14,-14,62,1625853039.0,32.000000
-13,-14,62,1625853039.0,32.000000
-14,-14,62,1625853039.0,32.000000
-14,-14,62,1625853039.0,32.000000
-13,-14,62,1625853039.0,32.000000
-13,-14,62,1625853039.0,32.000000
-13,-14,62,1625853039.0,32.000000
-14,-14,61,1625853039.0,32.000000
-14,-14,62,1625853039.0,32.000000
-13,-14,62,1625853039.0,32.000000
-14,-14,62,1625853039.0,32.000000
-14,-14,62,1625853039.0,32.000000
-14,-14,62,1625853039.0,32.000000
-14,-14,62,1625853039.0,32.000000
-13,-14,62,1625853039.0,32.000000
-13,-14,62,1625853039.0,32.000000
-13,-14,62,1625853039.0,32.000000
-14,-14,62,1625853039.0,32.000000
-13,-14,62,1625853039.0,32.000000
-14,-14,62,1625853039.0,32.000000
-13,-14,62,1625853039.0,32.000000
-13,-14,62,1625853039.0,32.000000
-14,-14,62,1625853039.0,32.000000
-13,-14,62,1625853039.0,32.000000
-14,-14,62,1625853039.0,32.000000
-13,-14,62,1625853039.0,32.000000
-14,-14,62,1625853039.0,32.000000
-14,-14,62,1625853039.0,32.000000
-14,-14,62,1625853039.0,32.000000
-14,-14,62,1625853039.0,32.000000
-13,-14,62,1625853039.0,32.000000
-13,-14,62,1625853039.0,32.000000
-13,-14,62,1625853039.0,32.000000
-14,-14,61,1625853039.0,32.000000
-14,-14,62,1625853039.0,32.000000
-14,-14,62,1625853039.0,32.000000
-13,-14,62,1625853039.0,32.000000
-14,-14,62,1625853039.0,32.000000
-14,-14,62,1625853039.0,32.000000
-14,-14,62,1625853039.0,32.000000
-14,-14,62,1625853039.0,32.000000
-14,-14,62,1625853039.0,32.000000
-14,-14,62,1625853039.0,32.000000
-14,-14,62,1625853039.0,32.000000
-13,-14,62,1625853039.0,32.000000
-13,-14,62,1625853039.0,32.000000
-14,-14,62,1625853039.0,32.000000
-14,-14,62,1625853039.0,32.000000
-14,-14,62,1625853039.0,32.000000
-14,-14,62,1625853039.0,32.000000
-14,-14,62,1625853039.0,32.000000
-14,-14,61,1625853039.0,32.000000
-14,-14,62,1625853039.0,32.000000
-14,-14,61,1625853039.0,32.000000
-14,-14,62,1625853039.0,32.000000
-14,-14,62,1625853039.0,32.000000
-14,-14,62,1625853039.0,32.000000
-14,-14,62,1625853039.0,32.000000
-14,-14,62,1625853039.0,32.000000
-14,-14,62,1625853039.0,32.000000
-14,-14,62,1625853039.0,32.000000
-14,-14,62,1625853039.0,32.000000
-13,-14,62,1625853039.0,32.000000
-14,-14,62,1625853039.0,32.000000
-14,-14,62,1625853039.0,32.000000
-14,-14,62,1625853039.0,32.000000
-14,-14,62,1625853039.0,32.000000
-14,-14,62,1625853039.0,32.000000
-14,-14,62,1625853039.0,32.000000
-14,-14,61,1625853039.0,32.000000
-14,-14,62,1625853039.0,32.000000
-14,-14,62,1625853039.0,32.000000
-14,-14,62,1625853039.0,32.000000
-13,-14,62,1625853039.0,32.000000
-14,-14,62,1625853039.0,32.000000
-13,-14,62,1625853039.0,32.000000
-14,-14,62,1625853039.0,32.000000
-14,-14,62,1625853039.0,32.000000
-13,-14,62,1625853039.0,32.000000
-14,-14,61,1625853039.0,32.000000
-13,-15,62,1625853039.0,32.000000
-13,-14,62,1625853039.0,32.000000
-16,-14,62,1625853039.0,32.000000
-16,-16,62,1625853039.0,32.000000
-14,-13,63,1625853039.0,32.000000
-21,-14,66,1625853039.0,32.000000
-18,-11,80,1625853039.0,32.000000
-17,-12,86,1625853039.0,32.000000
-15,-19,81,1625853039.0,32.000000
-14,-23,79,1625853039.0,32.000000
-20,-32,73,1625853039.0,32.000000
-12,-33,62,1625853039.0,32.000000
-9,-36,56,1625853039.0,32.000000
6,-38,48,1625853039.0,32.000000
16,-39,38,1625853039.0,32.000000
18,-39,33,1625853039.0,32.000000
22,-36,26,1625853039.0,32.000000
27,-34,22,1625853039.0,32.000000
41,-35,14,1625853039.0,32.000000
45,-35,10,1625853039.0,32.000000
43,-34,6,1625853039.0,32.000000
41,-39,8,1625853039.0,32.000000
40,-39,9,1625853039.0,32.000000
40,-43,9,1625853039.0,32.000000
39,-42,8,1625853039.0,32.000000
40,-42,8,1625853039.0,32.000000
42,-44,4,1625853039.0,32.000000
42,-42,3,1625853039.0,32.000000
45,-40,1,1625853039.0,32.000000
44,-40,1,1625853039.0,32.000000
46,-41,-3,1625853039.0,32.000000
50,-41,-4,1625853039.0,32.000000
49,-42,-1,1625853039.0,32.000000
43,-42,2,1625853039.0,32.000000
43,-42,2,1625853039.0,32.000000
45,-42,2,1625853039.0,32.000000
46,-44,-1,1625853039.0,32.000000
45,-44,-2,1625853039.0,32.000000
46,-44,-1,1625853039.0,32.000000
46,-45,-1,1625853039.0,32.000000
48,-43,-1,1625853039.0,32.000000
46,-43,-2,1625853039.0,32.000000
47,-44,-1,1625853039.0,32.000000
48,-43,-3,1625853039.0,32.000000
47,-43,-3,1625853039.0,32.000000
44,-43,-4,1625853039.0,32.000000
41,-37,-6,1625853039.0,32.000000
42,-35,-4,1625853039.0,32.000000
39,-32,-5,1625853039.0,32.000000
36,-32,-6,1625853039.0,32.000000
39,-29,0,1625853039.0,32.000000
43,-31,2,1625853039.0,32.000000
43,-32,4,1625853039.0,32.000000
42,-33,13,1625853039.0,32.000000
37,-34,16,1625853039.0,32.000000
38,-34,31,1625853039.0,32.000000
32,-32,45,1625853039.0,32.000000
25,-32,53,1625853039.0,32.000000
-2,-25,60,1625853039.0,32.000000
-16,-23,69,1625853039.0,32.000000
-14,-25,81,1625853039.0,32.000000
-8,-24,81,1625853039.0,32.000000
0,-24,73,1625853039.0,32.000000
0,-20,68,1625853039.0,32.000000
-2,-18,68,1625853039.0,32.000000
-5,-18,69,1625853039.0,32.000000
-6,-19,68,1625853039.0,32.000000
-5,-18,66,1625853039.0,32.000000
-6,-17,62,1625853039.0,32.000000
-7,-17,61,1625853039.0,32.000000
-6,-18,61,1625853039.0,32.000000
-7,-18,60,1625853039.0,32.000000
-9,-18,59,1625853039.0,32.000000
-7,-18,59,1625853039.0,32.000000
-7,-17,59,1625853039.0,32.000000
-12,-10,70,1625853039.0,32.000000
-21,-15,88,1625853039.0,32.000000
-18,-19,53,1625853039.0,32.000000
-11,-13,55,1625853039.0,32.000000
-9,-11,63,1625853039.0,32.000000
-9,-18,62,1625853039.0,32.000000
-9,-18,59,1625853039.0,32.000000
-4,-18,64,1625853039.0,32.000000
1,-17,64,1625853039.0,32.000000
2,-15,64,1625853039.0,32.000000
-1,-17,66,1625853039.0,32.000000
-3,-16,63,1625853039.0,32.000000
-5,-18,62,1625853039.0,32.000000
-5,-18,61,1625853039.0,32.000000
-2,-18,62,1625853039.0,32.000000
-1,-18,60,1625853039.0,32.000000
-2,-17,60,1625853039.0,32.000000
-5,-17,62,1625853039.0,32.000000
-6,-17,61,1625853039.0,32.000000
-6,-18,61,1625853039.0,32.000000
-6,-18,63,1625853039.0,32.000000
-7,-18,63,1625853039.0,32.000000
-8,-17,62,1625853039.0,32.000000
-7,-17,61,1625853039.0,32.000000
-3,-17,63,1625853039.0,32.000000
-1,-19,59,1625853039.0,32.000000
3,-19,60,1625853039.0,32.000000
6,-19,59,1625853039.0,32.000000
9,-17,60,1625853039.0,32.000000
2,-16,62,1625853039.0,32.000000
-1,-15,59,1625853039.0,32.000000
-1,-15,61,1625853039.0,32.000000
-8,-16,73,1625853039.0,32.000000
-15,-18,71,1625853039.0,32.000000
-12,-19,58,1625853039.0,32.000000
-3,-19,60,1625853039.0,32.000000
2,-17,61,1625853039.0,32.000000
9,-16,58,1625853039.0,32.000000
8,-15,56,1625853039.0,32.000000
5,-17,62,1625853039.0,32.000000
0,-18,61,1625853039.0,32.000000
-3,-18,62,1625853039.0,32.000000
-6,-18,63,1625853039.0,32.000000
-8,-18,62,1625853039.0,32.000000
-11,-18,65,1625853039.0,32.000000
-7,-17,60,1625853039.0,32.000000
-3,-16,63,1625853039.0,32.000000
-3,-16,63,1625853039.0,32.000000
-4,-17,62,1625853039.0,32.000000
-4,-17,62,1625853039.0,32.000000
-4,-17,62,1625853039.0,32.000000
-4,-17,62,1625853039.0,32.000000
-4,-17,62,1625853039.0,32.000000
-3,-16,61,1625853039.0,32.000000
-2,-20,64,1625853039.0,32.000000
-3,-13,61,1625853039.0,32.000000
-2,-19,66,1625853039.0,32.000000
-4,-15,61,1625853039.0,32.000000
-3,-16,62,1625853039.0,32.000000
-4,-15,61,1625853039.0,32.000000
-3,-17,63,1625853039.0,32.000000
-4,-17,62,1625853039.0,32.000000
-3,-16,62,1625853039.0,32.000000
-3,-16,63,1625853039.0,32.000000
-6,-18,62,1625853039.0,32.000000
-5,-15,61,1625853039.0,32.000000
-3,-16,62,1625853039.0,32.000000
-3,-16,62,1625853039.0,32.000000
-3,-16,61,1625853039.0,32.000000
-6,-16,61,1625853039.0,32.000000
-3,-15,63,1625853039.0,32.000000
-4,-15,63,1625853039.0,32.000000
-4,-16,63,1625853039.0,32.000000
-1,-17,63,1625853039.0,32.000000
-17,-14,61,1625853039.0,32.000000
-9,-15,65,1625853039.0,32.000000
-8,-14,62,1625853039.0,32.000000
-7,-14,63,1625853039.0,32.000000
-8,-15,62,1625853039.0,32.000000
-10,-14,62,1625853039.0,32.000000
-10,-14,61,1625853039.0,32.000000
-15,-15,61,1625853039.0,32.000000
-16,-14,62,1625853039.0,32.000000
-15,-14,63,1625853039.0,32.000000
-19,-13,60,1625853039.0,32.000000
-17,-13,62,1625853039.0,32.000000
-16,-15,61,1625853039.0,32.000000
-15,-12,63,1625853039.0,32.000000
-17,-14,60,1625853039.0,32.000000
-16,-12,61,1625853039.0,32.000000
-16,-13,61,1625853039.0,32.000000
-15,-13,62,1625853039.0,32.000000
-15,-14,61,1625853039.0,32.000000
-15,-14,61,1625853039.0,32.000000
-15,-14,62,1625853039.0,32.000000
-13,-14,62,1625853039.0,32.000000
-14,-13,62,1625853039.0,32.000000
-10,-15,63,1625853039.0,32.000000
-9,-15,62,1625853039.0,32.000000
-15,-16,60,1625853039.0,32.000000
-17,-19,60,1625853039.0,32.000000
-16,-12,61,1625853039.0,32.000000
-13,-13,62,1625853039.0,32.000000
-14,-13,62,1625853039.0,32.000000
-13,-13,64,1625853039.0,32.000000
-13,-14,66,1625853039.0,32.000000
-11,-15,68,1625853039.0,32.000000
-25,-7,66,1625853039.0,32.000000
-53,-9,78,1625853039.0,32.000000
-74,-18,86,1625853039.0,32.000000
-61,-19,83,1625853039.0,32.000000
-52,-35,62,1625853039.0,32.000000
-35,-30,46,1625853039.0,32.000000
-27,-28,44,1625853039.0,32.000000
-8,-26,44,1625853039.0,32.000000
-6,-24,40,1625853039.0,32.000000
9,-22,39,1625853039.0,32.000000
15,-23,39,1625853039.0,32.000000
11,-28,39,1625853039.0,32.000000
16,-34,41,1625853039.0,32.000000
9,-37,40,1625853039.0,32.000000
0,-43,39,1625853039.0,32.000000
0,-45,43,1625853039.0,32.000000
2,-47,44,1625853039.0,32.000000
3,-51,41,1625853039.0,32.000000
5,-50,42,1625853039.0,32.000000
7,-50,40,1625853039.0,32.000000
7,-50,39,1625853039.0,32.000000
5,-49,36,1625853039.0,32.000000
6,-49,38,1625853039.0,32.000000
6,-49,38,1625853039.0,32.000000
6,-49,38,1625853039.0,32.000000
7,-50,37,1625853039.0,32.000000
9,-49,38,1625853039.0,32.000000
8,-49,36,1625853039.0,32.000000
7,-49,35,1625853039.0,32.000000
6,-48,37,1625853039.0,32.000000
6,-49,38,1625853039.0,32.000000
6,-49,40,1625853039.0,32.000000
5,-50,39,1625853039.0,32.000000
6,-50,39,1625853039.0,32.000000
6,-50,40,1625853039.0,32.000000
6,-49,39,1625853039.0,32.000000
8,-48,40,1625853039.0,32.000000
5,-49,41,1625853039.0,32.000000
5,-49,42,1625853039.0,32.000000
6,-50,41,1625853039.0,32.000000
6,-49,40,1625853039.0,32.000000
6,-48,40,1625853039.0,32.000000
7,-49,40,1625853039.0,32.000000
6,-49,39,1625853039.0,32.000000
7,-50,37,1625853039.0,32.000000
7,-50,37,1625853039.0,32.000000
8,-50,37,1625853039.0,32.000000
6,-50,36,1625853039.0,32.000000
6,-49,39,1625853039.0,32.000000
6,-48,40,1625853039.0,32.000000
5,-49,38,1625853039.0,32.000000
12,-49,43,1625853039.0,32.000000
9,-49,43,1625853039.0,32.000000
7,-49,42,1625853039.0,32.000000
10,-50,39,1625853039.0,32.000000
11,-49,38,1625853039.0,32.000000
10,-49,35,1625853039.0,32.000000
9,-49,36,1625853039.0,32.000000
7,-50,37,1625853039.0,32.000000
8,-50,37,1625853039.0,32.000000
9,-50,38,1625853039.0,32.000000
10,-50,38,1625853039.0,32.000000
9,-51,38,1625853039.0,32.000000
8,-50,37,1625853039.0,32.000000
8,-48,40,1625853039.0,32.000000
8,-47,41,1625853039.0,32.000000
9,-50,36,1625853039.0,32.000000
8,-54,28,1625853039.0,32.000000
11,-54,28,1625853039.0,32.000000
10,-52,35,1625853039.0,32.000000
6,-52,35,1625853039.0,32.000000
4,-51,36,1625853039.0,32.000000
6,-50,38,1625853039.0,32.000000
12,-52,38,1625853039.0,32.000000
7,-54,36,1625853039.0,32.000000
5,-52,35,1625853039.0,32.000000
7,-49,37,1625853039.0,32.000000
8,-50,37,1625853039.0,32.000000
0,-50,37,1625853039.0,32.000000
-5,-49,40,1625853039.0,32.000000
-2,-49,44,1625853039.0,32.000000
-1,-52,40,1625853039.0,32.000000
-8,-52,38,1625853039.0,32.000000
0,-49,45,1625853039.0,32.000000
-2,-49,40,1625853039.0,32.000000
-9,-48,39,1625853039.0,32.000000
0,-48,44,1625853039.0,32.000000
3,-48,43,1625853039.0,32.000000
0,-53,30,1625853039.0,32.000000
10,-51,34,1625853039.0,32.000000
12,-48,44,1625853039.0,32.000000
8,-46,50,1625853039.0,32.000000
15,-44,51,1625853039.0,32.000000
13,-43,43,1625853039.0,32.000000
14,-43,44,1625853039.0,32.000000
19,-43,43,1625853039.0,32.000000
25,-40,41,1625853039.0,32.000000
23,-42,39,1625853039.0,32.000000
20,-44,35,1625853039.0,32.000000
24,-45,36,1625853039.0,32.000000
27,-45,35,1625853039.0,32.000000
25,-45,31,1625853039.0,32.000000
25,-45,31,1625853039.0,32.000000
35,-47,30,1625853039.0,32.000000
36,-44,28,1625853039.0,32.000000
37,-43,27,1625853039.0,32.000000
34,-43,27,1625853039.0,32.000000
35,-44,25,1625853039.0,32.000000
39,-45,24,1625853039.0,32.000000
37,-43,21,1625853039.0,32.000000
37,-44,21,1625853039.0,32.000000
36,-43,23,1625853039.0,32.000000
34,-44,18,1625853039.0,32.000000
38,-44,22,1625853039.0,32.000000
38,-42,30,1625853039.0,32.000000
37,-43,31,1625853039.0,32.000000
34,-44,31,1625853039.0,32.000000
33,-44,33,1625853039.0,32.000000
35,-45,28,1625853039.0,32.000000
31,-47,23,1625853039.0,32.000000
43,-43,33,1625853039.0,32.000000
42,-43,34,1625853039.0,32.000000
35,-41,30,1625853039.0,32.000000
36,-39,31,1625853039.0,32.000000
32,-40,31,1625853039.0,32.000000
31,-46,36,1625853039.0,32.000000
37,-47,41,1625853039.0,32.000000
33,-49,37,1625853039.0,32.000000
31,-45,31,1625853039.0,32.000000
31,-43,27,1625853039.0,32.000000
39,-40,28,1625853039.0,32.000000
35,-40,26,1625853039.0,32.000000
30,-42,23,1625853039.0,32.000000
30,-42,30,1625853039.0,32.000000
31,-45,31,1625853039.0,32.000000
33,-48,31,1625853039.0,32.000000
33,-47,31,1625853039.0,32.000000
35,-46,31,1625853039.0,32.000000
32,-44,36,1625853039.0,32.000000
28,-46,35,1625853039.0,32.000000
34,-45,33,1625853039.0,32.000000
34,-44,33,1625853039.0,32.000000
37,-43,28,1625853039.0,32.000000
34,-43,24,1625853039.0,32.000000
33,-41,24,1625853039.0,32.000000
42,-30,22,1625853039.0,32.000000
43,-32,17,1625853039.0,32.000000
48,-40,16,1625853039.0,32.000000
33,-38,17,1625853039.0,32.000000
32,-41,23,1625853039.0,32.000000
18,-45,21,1625853039.0,32.000000
21,-47,23,1625853039.0,32.000000
25,-45,27,1625853039.0,32.000000
23,-44,34,1625853039.0,32.000000
20,-44,40,1625853039.0,32.000000
12,-47,43,1625853039.0,32.000000
9,-48,43,1625853039.0,32.000000
-20,-29,53,1625853039.0,32.000000
-25,-30,62,1625853039.0,32.000000
-30,-30,59,1625853039.0,32.000000
-22,-29,49,1625853039.0,32.000000
-13,-24,62,1625853039.0,32.000000
-4,-28,66,1625853039.0,32.000000
-5,-29,56,1625853039.0,32.000000
0,-22,69,1625853039.0,32.000000
0,-26,69,1625853039.0,32.000000
-11,-25,64,1625853039.0,32.000000
-10,-26,67,1625853039.0,32.000000
-16,-24,59,1625853039.0,32.000000
-21,-24,58,1625853039.0,32.000000
-23,-17,60,1625853039.0,32.000000
-21,-18,63,1625853039.0,32.000000
-19,-19,63,1625853039.0,32.000000
-16,-18,63,1625853039.0,32.000000
-11,-16,61,1625853039.0,32.000000
-12,-15,60,1625853039.0,32.000000
-18,-7,64,1625853039.0,32.000000
-8,-13,67,1625853039.0,32.000000
-11,-14,61,1625853039.0,32.000000
-19,-15,53,1625853039.0,32.000000
-10,-13,69,1625853039.0,32.000000
-3,-12,68,1625853039.0,32.000000
-9,-13,63,1625853039.0,32.000000
-9,-15,63,1625853039.0,32.000000
-11,-16,62,1625853039.0,32.000000
-10,-15,64,1625853039.0,32.000000
-9,-13,64,1625853039.0,32.000000
-8,-9,63,1625853039.0,32.000000
-10,-11,62,1625853039.0,32.000000
-15,-14,60,1625853039.0,32.000000
-15,-12,62,1625853039.0,32.000000
-16,-13,61,1625853039.0,32.000000
-16,-18,60,1625853039.0,32.000000
-17,-16,61,1625853039.0,32.000000
-14,-17,61,1625853039.0,32.000000
-13,-14,63,1625853039.0,32.000000
-13,-13,63,1625853039.0,32.000000
-14,-13,62,1625853039.0,32.000000
-14,-13,62,1625853039.0,32.000000
-14,-13,62,1625853039.0,32.000000
-15,-13,62,1625853039.0,32.000000
-15,-13,61,1625853039.0,32.000000
-14,-13,62,1625853039.0,32.000000
-13,-13,62,1625853039.0,32.000000
-13,-14,62,1625853039.0,32.000000
-14,-13,62,1625853039.0,32.000000
-14,-13,62,1625853039.0,32.000000
-14,-13,61,1625853039.0,32.000000
-13,-13,62,1625853039.0,32.000000
-13,-13,62,1625853039.0,32.000000
-13,-13,62,1625853039.0,32.000000
-13,-13,62,1625853039.0,32.000000
-13,-13,62,1625853039.0,32.000000
-13,-13,62,1625853039.0,32.000000
-12,-14,62,1625853039.0,32.000000
-13,-13,62,1625853039.0,32.000000
-14,-13,62,1625853039.0,32.000000
-13,-13,62,1625853039.0,32.000000
-13,-13,62,1625853039.0,32.000000
-14,-13,62,1625853039.0,32.000000
-14,-13,62,1625853039.0,32.000000
-14,-13,62,1625853039.0,32.000000
-12,-13,62,1625853039.0,32.000000
-12,-13,62,1625853039.0,32.000000
-13,-14,62,1625853039.0,32.000000
-15,-13,61,1625853039.0,32.000000
-15,-13,62,1625853039.0,32.000000
-14,-12,62,1625853039.0,32.000000
-13,-13,62,1625853039.0,32.000000
-14,-12,62,1625853039.0,32.000000
-14,-12,62,1625853039.0,32.000000
-14,-13,62,1625853039.0,32.000000
-14,-13,62,1625853039.0,32.000000
-14,-13,62,1625853039.0,32.000000
-15,-12,62,1625853039.0,32.000000
-14,-12,62,1625853039.0,32.000000
-15,-13,61,1625853039.0,32.000000
-14,-13,62,1625853039.0,32.000000
-14,-13,62,1625853039.0,32.000000
-17,-13,61,1625853039.0,32.000000
-17,-13,61,1625853039.0,32.000000
-16,-13,62,1625853039.0,32.000000
-16,-13,62,1625853039.0,32.000000
-16,-12,62,1625853039.0,32.000000
-16,-12,62,1625853039.0,32.000000
-16,-13,61,1625853039.0,32.000000
-16,-14,62,1625853039.0,32.000000
-16,-14,62,1625853039.0,32.000000
-16,-14,61,1625853039.0,32.000000
-15,-14,62,1625853039.0,32.000000
-16,-13,62,1625853039.0,32.000000
-16,-13,62,1625853039.0,32.000000
-17,-13,61,1625853039.0,32.000000
-17,-13,61,1625853039.0,32.000000
-15,-13,62,1625853039.0,32.000000
-15,-13,62,1625853039.0,32.000000
-16,-14,61,1625853039.0,32.000000
-17,-14,61,1625853039.0,32.000000
-16,-14,61,1625853039.0,32.000000
-16,-13,62,1625853039.0,32.000000
-15,-13,62,1625853039.0,32.000000
-17,-13,61,1625853039.0,32.000000
-15,-12,62,1625853039.0,32.000000
-15,-13,62,1625853039.0,32.000000
-16,-13,62,1625853039.0,32.000000
-16,-14,61,1625853039.0,32.000000
-16,-13,61,1625853039.0,32.000000
-16,-13,61,1625853039.0,32.000000
-16,-13,61,1625853039.0,32.000000
-16,-13,62,1625853039.0,32.000000
-16,-13,61,1625853039.0,32.000000
-16,-13,62,1625853039.0,32.000000
-16,-13,62,1625853039.0,32.000000
-16,-13,62,1625853039.0,32.000000
-16,-13,61,1625853039.0,32.000000
-16,-13,61,1625853039.0,32.000000
-16,-13,61,1625853039.0,32.000000
-16,-13,62,1625853039.0,32.000000
-16,-13,62,1625853039.0,32.000000
-16,-14,61,1625853039.0,32.000000
-15,-14,62,1625853039.0,32.000000
-16,-13,61,1625853039.0,32.000000
-16,-13,61,1625853039.0,32.000000
-16,-13,61,1625853039.0,32.000000
-15,-14,62,1625853039.0,32.000000
-16,-14,61,1625853039.0,32.000000
-16,-13,62,1625853039.0,32.000000
-15,-13,62,1625853039.0,32.000000
-16,-13,62,1625853039.0,32.000000
-16,-13,62,1625853039.0,32.000000
-15,-13,62,1625853039.0,32.000000
-16,-13,62,1625853039.0,32.000000
-16,-13,62,1625853039.0,32.000000
-16,-13,61,1625853039.0,32.000000
-16,-13,62,1625853039.0,32.000000
-16,-13,61,1625853039.0,32.000000
-16,-14,61,1625853039.0,32.000000
-16,-14,61,1625853039.0,32.000000
-16,-13,61,1625853039.0,32.000000
-16,-13,61,1625853039.0,32.000000
-16,-13,62,1625853039.0,32.000000
-16,-13,62,1625853039.0,32.000000
-16,-14,61,1625853039.0,32.000000
-16,-14,62,1625853039.0,32.000000
-16,-13,61,1625853039.0,32.000000
-16,-13,61,1625853039.0,32.000000
-16,-13,61,1625853039.0,32.000000
-16,-14,61,1625853039.0,32.000000
-16,-13,62,1625853039.0,32.000000
-15,-13,62,1625853039.0,32.000000
-16,-13,62,1625853039.0,32.000000
-16,-13,62,1625853039.0,32.000000
-16,-13,62,1625853039.0,32.000000
-16,-13,61,1625853039.0,32.000000
-16,-13,61,1625853039.0,32.000000
-16,-14,61,1625853039.0,32.000000
-16,-14,62,1625853039.0,32.000000
-16,-14,62,1625853039.0,32.000000
-16,-13,62,1625853039.0,32.000000
-16,-14,61,1625853039.0,32.000000
-16,-13,62,1625853039.0,32.000000
-16,-13,62,1625853039.0,32.000000
-16,-13,61,1625853039.0,32.000000
-16,-13,62,1625853039.0,32.000000
-16,-14,61,1625853039.0,32.000000
-16,-13,62,1625853039.0,32.000000
-16,-13,62,1625853039.0,32.000000
-16,-13,62,1625853039.0,32.000000
-16,-13,61,1625853039.0,32.000000
-16,-13,61,1625853039.0,32.000000
-16,-13,62,1625853039.0,32.000000
-16,-13,62,1625853039.0,32.000000
-16,-13,61,1625853039.0,32.000000
-16,-13,62,1625853039.0,32.000000
-16,-13,62,1625853039.0,32.000000
-16,-13,61,1625853039.0,32.000000
-16,-13,61,1625853039.0,32.000000
-16,-14,61,1625853039.0,32.000000
-16,-14,61,1625853039.0,32.000000
-16,-14,62,1625853039.0,32.000000
-16,-13,61,1625853039.0,32.000000
-16,-13,62,1625853039.0,32.000000
-16,-13,61,1625853039.0,32.000000
-15,-13,61,1625853039.0,32.000000
-15,-14,62,1625853039.0,32.000000
-16,-13,62,1625853039.0,32.000000
-16,-13,62,1625853039.0,32.000000
-15,-13,62,1625853039.0,32.000000
-16,-13,61,1625853039.0,32.000000
-16,-13,62,1625853039.0,32.000000
-16,-13,61,1625853039.0,32.000000
-15,-13,62,1625853039.0,32.000000
-15,-14,61,1625853039.0,32.000000
-16,-13,61,1625853039.0,32.000000
-16,-13,61,1625853039.0,32.000000
-16,-13,62,1625853039.0,32.000000
-15,-14,61,1625853039.0,32.000000
-16,-13,62,1625853039.0,32.000000
-16,-13,62,1625853039.0,32.000000
-16,-13,61,1625853039.0,32.000000
-16,-13,62,1625853039.0,32.000000
-16,-13,61,1625853039.0,32.000000
-15,-13,62,1625853039.0,32.000000
-16,-13,61,1625853039.0,32.000000
-15,-13,62,1625853039.0,32.000000
-16,-13,61,1625853039.0,32.000000
-16,-13,62,1625853039.0,32.000000
-15,-13,61,1625853039.0,32.000000
-15,-13,62,1625853039.0,32.000000
-16,-14,62,1625853039.0,32.000000
-16,-13,61,1625853039.0,32.000000
-16,-13,61,1625853039.0,32.000000
-15,-13,61,1625853039.0,32.000000
-15,-13,61,1625853039.0,32.000000
-16,-13,62,1625853039.0,32.000000
-16,-13,62,1625853039.0,32.000000
-16,-13,62,1625853039.0,32.000000
-16,-13,62,1625853039.0,32.000000
-15,-13,62,1625853039.0,32.000000
-16,-13,62,1625853039.0,32.000000
-16,-13,61,1625853039.0,32.000000
-15,-13,61,1625853039.0,32.000000
-15,-13,61,1625853039.0,32.000000
-16,-13,62,1625853039.0,32.000000
-16,-13,62,1625853039.0,32.000000
-16,-13,62,1625853039.0,32.000000
-15,-13,61,1625853039.0,32.000000
-16,-13,62,1625853039.0,32.000000
-16,-13,61,1625853039.0,32.000000
-16,-13,62,1625853039.0,32.000000
-16,-13,62,1625853039.0,32.000000
-15,-13,61,1625853039.0,32.000000
-16,-14,61,1625853039.0,32.000000
-16,-13,62,1625853039.0,32.000000
-16,-13,62,1625853039.0,32.000000
-15,-13,62,1625853039.0,32.000000
-16,-13,62,1625853039.0,32.000000
-16,-13,62,1625853039.0,32.000000
-16,-13,62,1625853039.0,32.000000
-15,-13,62,1625853039.0,32.000000
-15,-13,62,1625853039.0,32.000000
-15,-13,62,1625853039.0,32.000000
-16,-13,61,1625853039.0,32.000000
-15,-13,62,1625853039.0,32.000000
-15,-14,61,1625853039.0,32.000000
-15,-13,61,1625853039.0,32.000000
-16,-13,62,1625853039.0,32.000000
-16,-13,61,1625853039.0,32.000000
-16,-13,61,1625853039.0,32.000000
-15,-13,61,1625853039.0,32.000000
-15,-13,62,1625853039.0,32.000000
-15,-13,62,1625853039.0,32.000000
-15,-13,62,1625853039.0,32.000000
-15,-13,62,1625853039.0,32.000000
-16,-13,62,1625853039.0,32.000000
-15,-14,61,1625853039.0,32.000000
-15,-13,62,1625853039.0,32.000000
-16,-13,61,1625853039.0,32.000000
-16,-13,61,1625853039.0,32.000000
-16,-14,62,1625853039.0,32.000000
-16,-14,61,1625853039.0,32.000000
-15,-13,62,1625853039.0,32.000000
-15,-13,62,1625853039.0,32.000000
-16,-14,62,1625853039.0,32.000000
-16,-13,62,1625853039.0,32.000000
-16,-14,62,1625853039.0,32.000000
-15,-13,61,1625853039.0,32.000000
-15,-13,61,1625853039.0,32.000000
-16,-13,62,1625853039.0,32.000000
-16,-13,62,1625853039.0,32.000000
-16,-14,61,1625853039.0,32.000000
-15,-13,62,1625853039.0,32.000000
-16,-13,61,1625853039.0,32.000000
-16,-14,62,1625853039.0,32.000000
-15,-13,61,1625853039.0,32.000000
-16,-13,62,1625853039.0,32.000000
-16,-14,62,1625853039.0,32.000000
-16,-13,62,1625853039.0,32.000000
-16,-14,61,1625853039.0,32.000000
-16,-14,62,1625853039.0,32.000000
-16,-13,61,1625853039.0,32.000000
-16,-13,62,1625853039.0,32.000000
-15,-13,61,1625853039.0,32.000000
-16,-14,61,1625853039.0,32.000000
-15,-14,62,1625853039.0,32.000000
-15,-13,61,1625853039.0,32.000000
-16,-14,62,1625853039.0,32.000000
-16,-14,62,1625853039.0,32.000000
-16,-13,61,1625853039.0,32.000000
-16,-14,62,1625853039.0,32.000000
-16,-13,62,1625853039.0,32.000000
-16,-13,61,1625853039.0,32.000000
-16,-13,61,1625853039.0,32.000000
-15,-14,62,1625853039.0,32.000000
-16,-13,62,1625853039.0,32.000000
-16,-14,61,1625853039.0,32.000000
-16,-13,62,1625853039.0,32.000000
-16,-14,62,1625853039.0,32.000000
-16,-13,61,1625853039.0,32.000000
-16,-13,62,1625853039.0,32.000000
-16,-14,62,1625853039.0,32.000000
-15,-14,62,1625853039.0,32.000000
-15,-13,61,1625853039.0,32.000000
-15,-14,61,1625853039.0,32.000000
-15,-13,62,1625853039.0,32.000000
-15,-13,62,1625853039.0,32.000000
-16,-14,61,1625853039.0,32.000000
-16,-14,62,1625853039.0,32.000000
-16,-13,62,1625853039.0,32.000000
-15,-13,62,1625853039.0,32.000000
-15,-14,62,1625853039.0,32.000000
-16,-13,61,1625853039.0,32.000000
-16,-14,61,1625853039.0,32.000000
-16,-13,62,1625853039.0,32.000000
-15,-13,62,1625853039.0,32.000000
-16,-13,62,1625853039.0,32.000000
-16,-14,61,1625853039.0,32.000000
-16,-14,61,1625853039.0,32.000000
-15,-14,61,1625853039.0,32.000000
-15,-13,62,1625853039.0,32.000000
-16,-13,61,1625853039.0,32.000000
-16,-14,61,1625853039.0,32.000000
-16,-14,62,1625853039.0,32.000000
-15,-13,62,1625853039.0,32.000000
-16,-14,61,1625853039.0,32.000000
-16,-14,61,1625853039.0,32.000000
-15,-13,62,1625853039.0,32.000000
-16,-14,61,1625853039.0,32.000000
-15,-14,62,1625853039.0,32.000000
-16,-13,62,1625853039.0,32.000000
-16,-13,62,1625853039.0,32.000000
-16,-14,62,1625853039.0,32.000000
-15,-14,62,1625853039.0,32.000000
-15,-13,62,1625853039.0,32.000000
-16,-13,61,1625853039.0,32.000000
-16,-14,62,1625853039.0,32.000000
-15,-14,62,1625853039.0,32.000000
-16,-14,61,1625853039.0,32.000000
-15,-14,62,1625853039.0,32.000000
-16,-14,61,1625853039.0,32.000000
-15,-14,62,1625853039.0,32.000000
-16,-13,62,1625853039.0,32.000000
-16,-14,62,1625853039.0,32.000000
-16,-13,62,1625853039.0,32.000000
-16,-13,62,1625853039.0,32.000000
-16,-14,61,1625853039.0,32.000000
-15,-14,61,1625853039.0,32.000000
-15,-14,62,1625853039.0,32.000000
-15,-14,62,1625853039.0,32.000000
-16,-14,61,1625853039.0,32.000000
-16,-14,61,1625853039.0,32.000000
-16,-14,61,1625853039.0,32.000000
-16,-13,62,1625853039.0,32.000000
-15,-13,62,1625853039.0,32.000000
-15,-13,62,1625853039.0,32.000000
-16,-13,61,1625853039.0,32.000000
-16,-13,61,1625853039.0,32.000000
-16,-13,62,1625853039.0,32.000000
-15,-13,61,1625853039.0,32.000000
-16,-13,61,1625853039.0,32.000000
-16,-13,61,1625853039.0,32.000000
-16,-14,62,1625853039.0,32.000000
-16,-13,62,1625853039.0,32.000000
-15,-13,61,1625853039.0,32.000000
-15,-14,62,1625853039.0,32.000000
-16,-13,62,1625853039.0,32.000000
-16,-13,61,1625853039.0,32.000000
-15,-14,62,1625853039.0,32.000000
-16,-14,62,1625853039.0,32.000000
-15,-13,62,1625853039.0,32.000000
-15,-13,62,1625853039.0,32.000000
-15,-13,62,1625853039.0,32.000000
-16,-14,62,1625853039.0,32.000000
-16,-13,62,1625853039.0,32.000000
-16,-13,61,1625853039.0,32.000000
-16,-13,62,1625853039.0,32.000000
-16,-13,62,1625853039.0,32.000000
-16,-14,61,1625853039.0,32.000000
-16,-13,62,1625853039.0,32.000000
-15,-13,61,1625853039.0,32.000000
-16,-13,62,1625853039.0,32.000000
-16,-13,61,1625853039.0,32.000000
-16,-14,61,1625853039.0,32.000000
-16,-13,62,1625853039.0,32.000000
-16,-13,62,1625853039.0,32.000000
-15,-13,61,1625853039.0,32.000000
-16,-13,62,1625853039.0,32.000000
-16,-13,62,1625853039.0,32.000000
-16,-13,62,1625853039.0,32.000000
-15,-13,62,1625853039.0,32.000000
-15,-14,61,1625853039.0,32.000000
-15,-13,61,1625853039.0,32.000000
-16,-14,62,1625853039.0,32.000000
-15,-13,62,1625853039.0,32.000000
-16,-14,61,1625853039.0,32.000000
-16,-14,61,1625853039.0,32.000000
-16,-13,62,1625853039.0,32.000000
-15,-14,61,1625853039.0,32.000000
-15,-14,61,1625853039.0,32.000000
-15,-14,62,1625853039.0,32.000000
-15,-14,62,1625853039.0,32.000000
-16,-14,62,1625853039.0,32.000000
-16,-13,62,1625853039.0,32.000000
-16,-13,61,1625853039.0,32.000000
-16,-14,61,1625853039.0,32.000000
-15,-13,62,1625853039.0,32.000000
-15,-14,62,1625853039.0,32.000000
-16,-14,61,1625853039.0,32.000000
-15,-13,61,1625853039.0,32.000000
-16,-14,62,1625853039.0,32.000000
-16,-13,62,1625853039.0,32.000000
-16,-14,61,1625853039.0,32.000000
-16,-13,61,1625853039.0,32.000000
-16,-14,62,1625853039.0,32.000000
-16,-13,61,1625853039.0,32.000000
-15,-14,62,1625853039.0,32.000000
-15,-13,62,1625853039.0,32.000000
-16,-14,62,1625853039.0,32.000000
-16,-13,62,1625853039.0,32.000000
-16,-13,61,1625853039.0,32.000000
-16,-13,62,1625853039.0,32.000000
-15,-13,61,1625853039.0,32.000000
-16,-13,61,1625853039.0,32.000000
-16,-14,62,1625853039.0,32.000000
-16,-14,62,1625853039.0,32.000000
-16,-13,62,1625853039.0,32.000000
-15,-14,61,1625853039.0,32.000000
-15,-13,61,1625853039.0,32.000000
-16,-13,61,1625853039.0,32.000000
-16,-13,61,1625853039.0,32.000000
-15,-14,62,1625853039.0,32.000000
-15,-13,62,1625853039.0,32.000000
-16,-14,62,1625853039.0,32.000000
-15,-14,61,1625853039.0,32.000000
-16,-14,62,1625853039.0,32.000000
-15,-13,62,1625853039.0,32.000000
-16,-13,62,1625853039.0,32.000000
-16,-13,61,1625853039.0,32.000000
-16,-13,62,1625853039.0,32.000000
-15,-14,62,1625853039.0,32.000000
-16,-14,61,1625853039.0,32.000000
-16,-13,62,1625853039.0,32.000000
-16,-13,61,1625853039.0,32.000000
-16,-13,62,1625853039.0,32.000000
-16,-14,62,1625853039.0,32.000000
-16,-13,62,1625853039.0,32.000000
-16,-14,61,1625853039.0,32.000000
-15,-13,62,1625853039.0,32.000000
-16,-14,61,1625853039.0,32.000000
-15,-14,61,1625853039.0,32.000000
-15,-13,62,1625853039.0,32.000000
-16,-14,62,1625853039.0,32.000000
-15,-13,61,1625853039.0,32.000000
-15,-13,62,1625853039.0,32.000000
-15,-14,61,1625853039.0,32.000000
-16,-13,61,1625853039.0,32.000000
-16,-14,62,1625853039.0,32.000000
-15,-13,61,1625853039.0,32.000000
-16,-13,61,1625853039.0,32.000000
-16,-13,61,1625853039.0,32.000000
-16,-13,62,1625853039.0,32.000000
-16,-13,62,1625853039.0,32.000000
-16,-13,61,1625853039.0,32.000000
-16,-13,62,1625853039.0,32.000000
-15,-14,62,1625853039.0,32.000000
-15,-13,62,1625853039.0,32.000000
-15,-13,61,1625853039.0,32.000000
-16,-14,62,1625853039.0,32.000000
-16,-14,61,1625853039.0,32.000000
-15,-14,62,1625853039.0,32.000000
-16,-13,62,1625853039.0,32.000000
-15,-14,61,1625853039.0,32.000000
-15,-13,62,1625853039.0,32.000000
-16,-14,62,1625853039.0,32.000000
-16,-14,62,1625853039.0,32.000000
-16,-13,62,1625853039.0,32.000000
-16,-14,62,1625853039.0,32.000000
-16,-13,62,1625853039.0,32.000000
-16,-13,61,1625853039.0,32.000000
-15,-13,61,1625853039.0,32.000000
-15,-13,61,1625853039.0,32.000000
-16,-13,62,1625853039.0,32.000000
-15,-14,62,1625853039.0,32.000000
-16,-13,62,1625853039.0,32.000000
-16,-13,62,1625853039.0,32.000000
-15,-14,61,1625853039.0,32.000000
-15,-14,62,1625853039.0,32.000000
-15,-13,62,1625853039.0,32.000000
-16,-13,61,1625853039.0,32.000000
-16,-13,62,1625853039.0,32.000000
-15,-14,61,1625853039.0,32.000000
-15,-14,62,1625853039.0,32.000000
-16,-14,62,1625853039.0,32.000000
-16,-14,61,1625853039.0,32.000000
-15,-13,62,1625853039.0,32.000000
-15,-13,62,1625853039.0,32.000000
-15,-14,62,1625853039.0,32.000000
-16,-14,61,1625853039.0,32.000000
-16,-13,61,1625853039.0,32.000000
-15,-13,62,1625853039.0,32.000000
-16,-14,62,1625853039.0,32.000000
-16,-13,61,1625853039.0,32.000000
-16,-14,61,1625853039.0,32.000000
-15,-14,62,1625853039.0,32.000000
-15,-13,61,1625853039.0,32.000000
-16,-13,61,1625853039.0,32.000000
-16,-13,62,1625853039.0,32.000000
-16,-13,61,1625853039.0,32.000000
-15,-13,62,1625853039.0,32.000000
-15,-13,61,1625853039.0,32.000000
-16,-13,61,1625853039.0,32.000000
-16,-13,61,1625853039.0,32.000000
-16,-14,62,1625853039.0,32.000000
-15,-14,62,1625853039.0,32.000000
-16,-13,62,1625853039.0,32.000000
-15,-13,62,1625853039.0,32.000000
-15,-13,62,1625853039.0,32.000000
-16,-13,61,1625853039.0,32.000000
-16,-14,61,1625853039.0,32.000000
-16,-14,61,1625853039.0,32.000000
-16,-13,61,1625853039.0,32.000000
-15,-13,62,1625853039.0,32.000000
-15,-13,62,1625853039.0,32.000000
-16,-13,62,1625853039.0,32.000000
-16,-14,61,1625853039.0,32.000000
-16,-14,62,1625853039.0,32.000000
-15,-14,61,1625853039.0,32.000000
-16,-13,62,1625853039.0,32.000000
-16,-13,62,1625853039.0,32.000000
-16,-14,62,1625853039.0,32.000000
-16,-13,62,1625853039.0,32.000000
-16,-13,62,1625853039.0,32.000000
-16,-13,61,1625853039.0,32.000000
-15,-13,62,1625853039.0,32.000000
-15,-14,62,1625853039.0,32.000000
-15,-13,62,1625853039.0,32.000000
-16,-14,61,1625853039.0,32.000000
-16,-14,61,1625853039.0,32.000000
-16,-14,62,1625853039.0,32.000000
-15,-13,62,1625853039.0,32.000000
-14,-14,61,1625853039.0,32.000000
-16,-14,61,1625853039.0,32.000000
-16,-13,62,1625853039.0,32.000000
-16,-14,61,1625853039.0,32.000000
-15,-14,62,1625853039.0,32.000000
-15,-14,62,1625853039.0,32.000000
-16,-14,61,1625853039.0,32.000000
-16,-13,61,1625853039.0,32.000000
-15,-14,61,1625853039.0,32.000000
-16,-13,62,1625853039.0,32.000000
-16,-13,61,1625853039.0,32.000000
-16,-14,61,1625853039.0,32.000000
-16,-14,62,1625853039.0,32.000000
-16,-14,62,1625853039.0,32.000000
-15,-14,62,1625853039.0,32.000000
-15,-14,62,1625853039.0,32.000000
-16,-14,61,1625853039.0,32.000000
-16,-14,61,1625853039.0,32.000000
-16,-14,62,1625853039.0,32.000000
-16,-13,61,1625853039.0,32.000000
-16,-13,62,1625853039.0,32.000000
-15,-13,61,1625853039.0,32.000000
-15,-14,62,1625853039.0,32.000000
-16,-13,61,1625853039.0,32.000000
-16,-13,62,1625853039.0,32.000000
-16,-13,62,1625853039.0,32.000000
-16,-14,61,1625853039.0,32.000000
-16,-13,61,1625853039.0,32.000000
-16,-13,61,1625853039.0,32.000000
-16,-14,62,1625853039.0,32.000000
-16,-14,62,1625853039.0,32.000000
-16,-14,61,1625853039.0,32.000000
-16,-14,61,1625853039.0,32.000000
-15,-14,62,1625853039.0,32.000000
-16,-13,61,1625853039.0,32.000000
-15,-13,62,1625853039.0,32.000000
-16,-14,61,1625853039.0,32.000000
-16,-14,62,1625853039.0,32.000000
-15,-13,61,1625853039.0,32.000000
-16,-14,62,1625853039.0,32.000000
-16,-13,61,1625853039.0,32.000000
-16,-14,62,1625853039.0,32.000000
-15,-14,62,1625853039.0,32.000000
-16,-14,62,1625853039.0,32.000000
-16,-14,61,1625853039.0,32.000000
-16,-13,61,1625853039.0,32.000000
-16,-13,62,1625853039.0,32.000000
-16,-13,61,1625853039.0,32.000000
-16,-14,61,1625853039.0,32.000000
-16,-14,61,1625853039.0,32.000000
-16,-14,61,1625853039.0,32.000000
-16,-14,62,1625853039.0,32.000000
-15,-13,61,1625853039.0,32.000000
-16,-14,62,1625853039.0,32.000000
-15,-13,62,1625853039.0,32.000000
-16,-13,61,1625853039.0,32.000000
-16,-13,62,1625853039.0,32.000000
-16,-13,61,1625853039.0,32.000000
-16,-14,61,1625853039.0,32.000000
-16,-14,61,1625853039.0,32.000000
-16,-14,61,1625853039.0,32.000000
-15,-14,62,1625853039.0,32.000000
-16,-14,61,1625853039.0,32.000000
-16,-14,61,1625853039.0,32.000000
-16,-14,61,1625853039.0,32.000000
-15,-13,61,1625853039.0,32.000000
-16,-13,62,1625853039.0,32.000000
-15,-14,61,1625853039.0,32.000000
-16,-14,62,1625853039.0,32.000000
-16,-13,61,1625853039.0,32.000000
-15,-14,62,1625853039.0,32.000000
-16,-13,62,1625853039.0,32.000000
-16,-13,61,1625853039.0,32.000000
-15,-14,62,1625853039.0,32.000000
-16,-13,61,1625853039.0,32.000000
-16,-14,61,1625853039.0,32.000000
-16,-14,61,1625853039.0,32.000000
-15,-13,62,1625853039.0,32.000000
-16,-14,61,1625853039.0,32.000000
-15,-13,62,1625853039.0,32.000000
-15,-14,62,1625853039.0,32.000000
-15,-13,62,1625853039.0,32.000000
-16,-13,62,1625853039.0,32.000000
-16,-14,61,1625853039.0,32.000000
-16,-14,61,1625853039.0,32.000000
-16,-14,61,1625853039.0,32.000000
-15,-14,62,1625853039.0,32.000000
-16,-13,62,1625853039.0,32.000000
-16,-13,61,1625853039.0,32.000000
-16,-14,62,1625853039.0,32.000000
-16,-13,62,1625853039.0,32.000000
-15,-13,61,1625853039.0,32.000000
-16,-14,61,1625853039.0,32.000000
-16,-13,61,1625853039.0,32.000000
-16,-14,61,1625853039.0,32.000000
-15,-13,61,1625853039.0,32.000000
-16,-14,61,1625853039.0,32.000000
-16,-14,61,1625853039.0,32.000000
-16,-14,61,1625853039.0,32.000000
-16,-14,62,1625853039.0,32.000000
-16,-14,62,1625853039.0,32.000000
-16,-13,62,1625853039.0,32.000000
-16,-14,62,1625853039.0,32.000000
-16,-13,62,1625853039.0,32.000000
-16,-14,61,1625853039.0,32.000000
-16,-14,61,1625853039.0,32.000000
-16,-14,62,1625853039.0,32.000000
-16,-14,62,1625853039.0,32.000000
-15,-14,61,1625853039.0,32.000000
-16,-14,62,1625853039.0,32.000000
-16,-13,61,1625853039.0,32.000000
-16,-14,62,1625853039.0,32.000000
-16,-13,61,1625853039.0,32.000000
-16,-13,62,1625853039.0,32.000000
-16,-14,61,1625853039.0,32.000000
-16,-13,61,1625853039.0,32.000000
-16,-13,62,1625853039.0,32.000000
-15,-14,62,1625853039.0,32.000000
-16,-13,62,1625853039.0,32.000000
-16,-13,61,1625853039.0,32.000000
-16,-14,61,1625853039.0,32.000000
-16,-14,62,1625853039.0,32.000000
-16,-13,62,1625853039.0,32.000000
-16,-13,62,1625853039.0,32.000000
-16,-14,61,1625853039.0,32.000000
-16,-14,61,1625853039.0,32.000000
-15,-14,62,1625853039.0,32.000000
-16,-13,62,1625853039.0,32.000000
-16,-13,61,1625853039.0,32.000000
-16,-14,61,1625853039.0,32.000000
-16,-14,62,1625853039.0,32.000000
-15,-14,61,1625853039.0,32.000000
-16,-13,62,1625853039.0,32.000000
-15,-13,62,1625853039.0,32.000000
-16,-14,61,1625853039.0,32.000000
-15,-13,62,1625853039.0,32.000000
-16,-13,61,1625853039.0,32.000000
-16,-14,62,1625853039.0,32.000000
-16,-13,61,1625853039.0,32.000000
-15,-13,61,1625853039.0,32.000000
-16,-14,61,1625853039.0,32.000000
-16,-14,61,1625853039.0,32.000000
-16,-13,62,1625853039.0,32.000000
-16,-13,62,1625853039.0,32.000000
-16,-14,61,1625853039.0,32.000000
-16,-14,62,1625853039.0,32.000000
-16,-14,62,1625853039.0,32.000000
-16,-13,62,1625853039.0,32.000000
-16,-14,62,1625853039.0,32.000000
-15,-14,61,1625853039.0,32.000000
-16,-13,61,1625853039.0,32.000000
-16,-13,61,1625853039.0,32.000000
-16,-13,62,1625853039.0,32.000000
-16,-14,62,1625853039.0,32.000000
-16,-13,62,1625853039.0,32.000000
-15,-13,62,1625853039.0,32.000000
-16,-14,61,1625853039.0,32.000000
-16,-14,61,1625853039.0,32.000000
-16,-14,61,1625853039.0,32.000000
-16,-13,62,1625853039.0,32.000000
-16,-14,62,1625853039.0,32.000000
-15,-13,62,1625853039.0,32.000000
-16,-13,62,1625853039.0,32.000000
-16,-14,62,1625853039.0,32.000000
-16,-14,62,1625853039.0,32.000000
-16,-14,62,1625853039.0,32.000000
-16,-14,62,1625853039.0,32.000000
-16,-14,62,1625853039.0,32.000000
-16,-14,62,1625853039.0,32.000000
-16,-13,61,1625853039.0,32.000000
-15,-14,62,1625853039.0,32.000000
-16,-14,62,1625853039.0,32.000000
-16,-14,61,1625853039.0,32.000000
-16,-14,62,1625853039.0,32.000000
-15,-14,62,1625853039.0,32.000000
-15,-14,61,1625853039.0,32.000000
-16,-14,62,1625853039.0,32.000000
-16,-14,62,1625853039.0,32.000000
-15,-14,61,1625853039.0,32.000000
-16,-14,62,1625853039.0,32.000000
-16,-14,61,1625853039.0,32.000000
-15,-14,61,1625853039.0,32.000000
-15,-13,61,1625853039.0,32.000000
-15,-13,62,1625853039.0,32.000000
-16,-14,62,1625853039.0,32.000000
-16,-14,62,1625853039.0,32.000000
-16,-14,61,1625853039.0,32.000000
-15,-13,61,1625853039.0,32.000000
-16,-13,61,1625853039.0,32.000000
-14,-15,62,1625853039.0,32.000000
-16,-13,61,1625853039.0,32.000000
-15,-13,61,1625853039.0,32.000000
-16,-13,61,1625853039.0,32.000000
-16,-13,62,1625853039.0,32.000000
-15,-13,61,1625853039.0,32.000000
-16,-14,62,1625853039.0,32.000000
-16,-13,61,1625853039.0,32.000000
-16,-13,61,1625853039.0,32.000000
-15,-14,62,1625853039.0,32.000000
-16,-14,62,1625853039.0,32.000000
-15,-13,61,1625853039.0,32.000000
-16,-13,61,1625853039.0,32.000000
-16,-13,61,1625853039.0,32.000000
-16,-14,62,1625853039.0,32.000000
-16,-13,61,1625853039.0,32.000000
-16,-13,61,1625853039.0,32.000000
-16,-14,62,1625853039.0,32.000000
-15,-13,61,1625853039.0,32.000000
-16,-14,62,1625853039.0,32.000000
-16,-13,62,1625853039.0,32.000000
-16,-14,61,1625853039.0,32.000000
-15,-14,62,1625853039.0,32.000000
-16,-13,61,1625853039.0,32.000000
-16,-14,62,1625853039.0,32.000000
-16,-14,61,1625853039.0,32.000000
-16,-14,62,1625853039.0,32.000000
-15,-14,61,1625853039.0,32.000000
-15,-14,62,1625853039.0,32.000000
-16,-14,62,1625853039.0,32.000000
-16,-14,61,1625853039.0,32.000000
-16,-14,61,1625853039.0,32.000000
-15,-14,62,1625853039.0,32.000000
-16,-13,61,1625853039.0,32.000000
-16,-13,62,1625853039.0,32.000000
-16,-14,62,1625853039.0,32.000000
-16,-13,61,1625853039.0,32.000000
-16,-13,61,1625853039.0,32.000000
-16,-14,62,1625853039.0,32.000000
-16,-13,62,1625853039.0,32.000000
-16,-14,62,1625853039.0,32.000000
-16,-13,62,1625853039.0,32.000000
-16,-14,61,1625853039.0,32.000000
-16,-13,62,1625853039.0,32.000000
-16,-13,61,1625853039.0,32.000000
-16,-14,62,1625853039.0,32.000000
-16,-13,62,1625853039.0,32.000000
-16,-13,61,1625853039.0,32.000000
-15,-14,61,1625853039.0,32.000000
-16,-14,62,1625853039.0,32.000000
-15,-14,61,1625853039.0,32.000000
-15,-14,62,1625853039.0,32.000000
-16,-13,61,1625853039.0,32.000000
-16,-14,61,1625853039.0,32.000000
-16,-13,62,1625853039.0,32.000000
-16,-14,61,1625853039.0,32.000000
-16,-13,62,1625853039.0,32.000000
-16,-13,62,1625853039.0,32.000000
-16,-14,62,1625853039.0,32.000000
-16,-13,61,1625853039.0,32.000000
-16,-14,61,1625853039.0,32.000000
-16,-14,62,1625853039.0,32.000000
-16,-14,61,1625853039.0,32.000000
-16,-13,61,1625853039.0,32.000000
-16,-14,61,1625853039.0,32.000000
-16,-14,61,1625853039.0,32.000000
-16,-14,61,1625853039.0,32.000000
-16,-14,61,1625853039.0,32.000000
-15,-14,61,1625853039.0,32.000000
-16,-14,62,1625853039.0,32.000000
-16,-14,61,1625853039.0,32.000000
-15,-13,61,1625853039.0,32.000000
-16,-13,62,1625853039.0,32.000000
-16,-14,61,1625853039.0,32.000000
-16,-14,61,1625853039.0,32.000000
-16,-13,61,1625853039.0,32.000000
-15,-14,62,1625853039.0,32.000000
-16,-14,61,1625853039.0,32.000000
-16,-13,61,1625853039.0,32.000000
-16,-13,62,1625853039.0,32.000000
-16,-14,61,1625853039.0,32.000000
-16,-13,61,1625853039.0,32.000000
-16,-13,62,1625853039.0,32.000000
-16,-13,62,1625853039.0,32.000000
-16,-13,61,1625853039.0,32.000000
-15,-13,62,1625853039.0,32.000000
-16,-14,62,1625853039.0,32.000000
-15,-14,61,1625853039.0,32.000000
-16,-14,61,1625853039.0,32.000000
-16,-13,61,1625853039.0,32.000000
-16,-14,62,1625853039.0,32.000000
-16,-14,61,1625853039.0,32.000000
-16,-13,61,1625853039.0,32.000000
-16,-13,61,1625853039.0,32.000000
-16,-14,61,1625853039.0,32.000000
-16,-14,62,1625853039.0,32.000000
-16,-13,61,1625853039.0,32.000000
-16,-14,61,1625853039.0,32.000000
-16,-14,61,1625853039.0,32.000000
-16,-14,62,1625853039.0,32.000000
-16,-14,62,1625853039.0,32.000000
-16,-14,61,1625853039.0,32.000000
-15,-14,61,1625853039.0,32.000000
-16,-14,61,1625853039.0,32.000000
-16,-14,62,1625853039.0,32.000000
-16,-14,61,1625853039.0,32.000000
-16,-14,62,1625853039.0,32.000000
-16,-14,62,1625853039.0,32.000000
-16,-13,62,1625853039.0,32.000000
-16,-14,62,1625853039.0,32.000000
-15,-13,61,1625853039.0,32.000000
-14,-15,61,1625853039.0,32.000000
-16,-13,62,1625853039.0,32.000000
-16,-13,61,1625853039.0,32.000000
-16,-14,62,1625853039.0,32.000000
-16,-13,62,1625853039.0,32.000000
-16,-13,62,1625853039.0,32.000000
-16,-14,61,1625853039.0,32.000000
-15,-13,62,1625853039.0,32.000000
-15,-14,61,1625853039.0,32.000000
-15,-14,61,1625853039.0,32.000000
-16,-13,62,1625853039.0,32.000000
-15,-14,62,1625853039.0,32.000000
-15,-14,62,1625853039.0,32.000000
-15,-13,61,1625853039.0,32.000000
-16,-14,61,1625853039.0,32.000000
-15,-14,62,1625853039.0,32.000000
-16,-13,62,1625853039.0,32.000000
-16,-13,62,1625853039.0,32.000000
-16,-14,61,1625853039.0,32.000000
-16,-14,61,1625853039.0,32.000000
-16,-13,62,1625853039.0,32.000000
-15,-14,61,1625853039.0,32.000000
-16,-14,61,1625853039.0,32.000000
-16,-13,62,1625853039.0,32.000000
-16,-14,61,1625853039.0,32.000000
-15,-13,61,1625853039.0,32.000000
-16,-14,62,1625853039.0,32.000000
-16,-14,62,1625853039.0,32.000000
-16,-14,62,1625853039.0,32.000000
-16,-14,62,1625853039.0,32.000000
-16,-13,62,1625853039.0,32.000000
-16,-13,62,1625853039.0,32.000000
-16,-14,62,1625853039.0,32.000000
-16,-13,62,1625853039.0,32.000000
-16,-14,62,1625853039.0,32.000000
-16,-13,61,1625853039.0,32.000000
-16,-14,62,1625853039.0,32.000000
-15,-14,61,1625853039.0,32.000000
-15,-14,62,1625853039.0,32.000000
-16,-14,61,1625853039.0,32.000000
-16,-14,61,1625853039.0,32.000000
-16,-14,61,1625853039.0,32.000000
-16,-14,61,1625853039.0,32.000000
-15,-13,61,1625853039.0,32.000000
-16,-14,61,1625853039.0,32.000000
-16,-14,61,1625853039.0,32.000000
-16,-13,62,1625853039.0,32.000000
-16,-14,61,1625853039.0,32.000000
-16,-14,62,1625853039.0,32.000000
-16,-14,61,1625853039.0,32.000000
-16,-13,62,1625853039.0,32.000000
-16,-14,62,1625853039.0,32.000000
-16,-14,61,1625853039.0,32.000000
-16,-14,62,1625853039.0,32.000000
-16,-13,62,1625853039.0,32.000000
-16,-14,61,1625853039.0,32.000000
-16,-14,61,1625853039.0,32.000000
-16,-13,61,1625853039.0,32.000000
-16,-13,62,1625853039.0,32.000000
-16,-13,61,1625853039.0,32.000000
-15,-14,62,1625853039.0,32.000000
-16,-14,62,1625853039.0,32.000000
-16,-13,62,1625853039.0,32.000000
-15,-14,61,1625853039.0,32.000000
-16,-14,61,1625853039.0,32.000000
-15,-14,61,1625853039.0,32.000000
-16,-14,61,1625853039.0,32.000000
-15,-13,61,1625853039.0,32.000000
-16,-14,61,1625853039.0,32.000000
-16,-13,61,1625853039.0,32.000000
-16,-13,62,1625853039.0,32.000000
-16,-14,62,1625853039.0,32.000000
-16,-13,61,1625853039.0,32.000000
-16,-14,61,1625853039.0,32.000000
-16,-14,62,1625853039.0,32.000000
-15,-13,61,1625853039.0,32.000000
-16,-14,62,1625853039.0,32.000000
-16,-14,61,1625853039.0,32.000000
