ACC_X,ACC_Y,ACC_Z,start_time_unix,sampling_rate
-9,-7,60,1625853038.0,32.000000
-6,-7,62,1625853038.0,32.000000
-9,-9,61,1625853038.0,32.000000
-10,-10,63,1625853038.0,32.000000
-10,-7,62,1625853038.0,32.000000
-13,-6,60,1625853038.0,32.000000
-11,-4,63,1625853038.0,32.000000
-14,-5,58,1625853038.0,32.000000
-14,-4,61,1625853038.0,32.000000
-11,-3,65,1625853038.0,32.000000
-18,-4,61,1625853038.0,32.000000
-11,-4,62,1625853038.0,32.000000
-13,-4,62,1625853038.0,32.000000
-15,-5,61,1625853038.0,32.000000
-16,-5,61,1625853038.0,32.000000
-18,-4,60,1625853038.0,32.000000
-17,-5,61,1625853038.0,32.000000
-15,-5,61,1625853038.0,32.000000
-15,-4,61,1625853038.0,32.000000
-15,-6,62,1625853038.0,32.000000
-15,-5,61,1625853038.0,32.000000
-15,-5,61,1625853038.0,32.000000
-15,-5,61,1625853038.0,32.000000
-15,-6,61,1625853038.0,32.000000
-15,-6,61,1625853038.0,32.000000
-15,-6,61,1625853038.0,32.000000
-18,-4,60,1625853038.0,32.000000
-16,-5,60,1625853038.0,32.000000
-16,-4,61,1625853038.0,32.000000
-16,-5,61,1625853038.0,32.000000
-17,-5,61,1625853038.0,32.000000
-16,-4,61,1625853038.0,32.000000
-18,-4,60,1625853038.0,32.000000
-18,-4,60,1625853038.0,32.000000
-19,-4,60,1625853038.0,32.000000
-18,-5,60,1625853038.0,32.000000
-19,-3,60,1625853038.0,32.000000
-19,-4,60,1625853038.0,32.000000
-20,-4,60,1625853038.0,32.000000
-19,-4,60,1625853038.0,32.000000
-19,-5,60,1625853038.0,32.000000
-18,-5,60,1625853038.0,32.000000
-18,-3,61,1625853038.0,32.000000
-20,-3,61,1625853038.0,32.000000
-19,-4,60,1625853038.0,32.000000
-19,-4,61,1625853038.0,32.000000
-21,-2,61,1625853038.0,32.000000
-18,-5,60,1625853038.0,32.000000
-16,-6,62,1625853038.0,32.000000
-18,-6,60,1625853038.0,32.000000
-21,-5,59,1625853038.0,32.000000
-19,-6,60,1625853038.0,32.000000
-18,-5,60,1625853038.0,32.000000
-19,-6,60,1625853038.0,32.000000
-19,-6,59,1625853038.0,32.000000
-21,-8,59,1625853038.0,32.000000
-21,-8,60,1625853038.0,32.000000
-20,-8,59,1625853038.0,32.000000
-19,-7,61,1625853038.0,32.000000
-19,-7,60,1625853038.0,32.000000
-22,-6,59,1625853038.0,32.000000
-22,-7,59,1625853038.0,32.000000
-24,-8,57,1625853038.0,32.000000
-21,-11,59,1625853038.0,32.000000
-22,-13,57,1625853038.0,32.000000
-20,-15,57,1625853038.0,32.000000
-20,-14,58,1625853038.0,32.000000
-22,-13,57,1625853038.0,32.000000
-22,-11,58,1625853038.0,32.000000
-21,-9,59,1625853038.0,32.000000
-23,-3,61,1625853038.0,32.000000
-28,-7,58,1625853038.0,32.000000
-25,-10,55,1625853038.0,32.000000
-25,-10,58,1625853038.0,32.000000
-27,-10,57,1625853038.0,32.000000
-24,-12,57,1625853038.0,32.000000
-25,-11,59,1625853038.0,32.000000
-32,-14,58,1625853038.0,32.000000
-25,-14,58,1625853038.0,32.000000
-25,-13,56,1625853038.0,32.000000
-18,-14,56,1625853038.0,32.000000
-16,-13,58,1625853038.0,32.000000
-19,-11,57,1625853038.0,32.000000
-23,-15,56,1625853038.0,32.000000
-17,-17,57,1625853038.0,32.000000
-19,-17,58,1625853038.0,32.000000
-17,-15,58,1625853038.0,32.000000
-20,-15,58,1625853038.0,32.000000
-20,-15,59,1625853038.0,32.000000
-22,-15,58,1625853038.0,32.000000
-18,-16,58,1625853038.0,32.000000
-19,-14,58,1625853038.0,32.000000
-19,-15,58,1625853038.0,32.000000
-20,-12,60,1625853038.0,32.000000
-22,-12,59,1625853038.0,32.000000
-21,-13,58,1625853038.0,32.000000
-19,-13,58,1625853038.0,32.000000
-18,-13,58,1625853038.0,32.000000
-21,-13,58,1625853038.0,32.000000
-21,-13,56,1625853038.0,32.000000
-19,-12,58,1625853038.0,32.000000
-24,-13,58,1625853038.0,32.000000
-23,-11,56,1625853038.0,32.000000
-18,-8,57,1625853038.0,32.000000
-21,-10,58,1625853038.0,32.000000
-29,-8,55,1625853038.0,32.000000
-19,-8,59,1625853038.0,32.000000
-30,12,64,1625853038.0,32.000000
-30,-2,58,1625853038.0,32.000000
-18,6,59,1625853038.0,32.000000
-18,8,64,1625853038.0,32.000000
-23,3,59,1625853038.0,32.000000
-19,3,60,1625853038.0,32.000000
-20,4,60,1625853038.0,32.000000
-23,3,60,1625853038.0,32.000000
-21,2,61,1625853038.0,32.000000
-22,7,60,1625853038.0,32.000000
-22,7,60,1625853038.0,32.000000
-21,8,59,1625853038.0,32.000000
-21,11,58,1625853038.0,32.000000
-24,13,56,1625853038.0,32.000000
-25,17,54,1625853038.0,32.000000
-28,17,54,1625853038.0,32.000000
-28,19,53,1625853038.0,32.000000
-32,20,50,1625853038.0,32.000000
-24,8,58,1625853038.0,32.000000
-28,12,56,1625853038.0,32.000000
-31,19,51,1625853038.0,32.000000
-25,21,55,1625853038.0,32.000000
-24,23,54,1625853038.0,32.000000
-25,20,56,1625853038.0,32.000000
-23,18,57,1625853038.0,32.000000
-19,17,58,1625853038.0,32.000000
-20,16,58,1625853038.0,32.000000
-20,15,59,1625853038.0,32.000000
-23,9,58,1625853038.0,32.000000
-22,12,56,1625853038.0,32.000000
-18,28,53,1625853038.0,32.000000
-34,36,44,1625853038.0,32.000000
-35,27,48,1625853038.0,32.000000
-30,18,52,1625853038.0,32.000000
-31,18,51,1625853038.0,32.000000
-34,18,52,1625853038.0,32.000000
-28,18,54,1625853038.0,32.000000
-27,20,54,1625853038.0,32.000000
-27,23,54,1625853038.0,32.000000
-26,21,54,1625853038.0,32.000000
-29,20,52,1625853038.0,32.000000
-33,19,51,1625853038.0,32.000000
-32,18,52,1625853038.0,32.000000
-31,17,53,1625853038.0,32.000000
-30,16,53,1625853038.0,32.000000
-29,16,53,1625853038.0,32.000000
-27,16,55,1625853038.0,32.000000
-26,16,55,1625853038.0,32.000000
-27,17,55,1625853038.0,32.000000
-26,16,57,1625853038.0,32.000000
-27,16,56,1625853038.0,32.000000
-26,18,53,1625853038.0,32.000000
-27,18,52,1625853038.0,32.000000
-29,15,53,1625853038.0,32.000000
-28,16,55,1625853038.0,32.000000
-28,16,54,1625853038.0,32.000000
-27,18,55,1625853038.0,32.000000
-27,17,55,1625853038.0,32.000000
-26,16,55,1625853038.0,32.000000
-30,16,53,1625853038.0,32.000000
-29,16,53,1625853038.0,32.000000
-29,16,53,1625853038.0,32.000000
-31,14,52,1625853038.0,32.000000
-33,16,52,1625853038.0,32.000000
-29,16,54,1625853038.0,32.000000
-28,17,54,1625853038.0,32.000000
-31,17,52,1625853038.0,32.000000
-32,18,52,1625853038.0,32.000000
-32,18,52,1625853038.0,32.000000
-31,19,52,1625853038.0,32.000000
-33,18,51,1625853038.0,32.000000
-30,19,53,1625853038.0,32.000000
-30,19,53,1625853038.0,32.000000
-32,18,51,1625853038.0,32.000000
-31,18,52,1625853038.0,32.000000
-31,19,53,1625853038.0,32.000000
-31,17,53,1625853038.0,32.000000
-29,17,54,1625853038.0,32.000000
-29,16,54,1625853038.0,32.000000
-29,17,54,1625853038.0,32.000000
-29,17,53,1625853038.0,32.000000
-30,17,53,1625853038.0,32.000000
-31,17,53,1625853038.0,32.000000
-30,17,54,1625853038.0,32.000000
-30,17,53,1625853038.0,32.000000
-28,17,54,1625853038.0,32.000000
-28,17,54,1625853038.0,32.000000
-29,16,54,1625853038.0,32.000000
-30,17,53,1625853038.0,32.000000
-30,17,53,1625853038.0,32.000000
-29,18,54,1625853038.0,32.000000
-30,16,53,1625853038.0,32.000000
-30,16,54,1625853038.0,32.000000
-30,16,53,1625853038.0,32.000000
-29,16,53,1625853038.0,32.000000
-29,16,53,1625853038.0,32.000000
-30,16,53,1625853038.0,32.000000
-30,17,54,1625853038.0,32.000000
-33,19,52,1625853038.0,32.000000
-33,18,49,1625853038.0,32.000000
-37,21,47,1625853038.0,32.000000
-37,19,48,1625853038.0,32.000000
-35,18,49,1625853038.0,32.000000
-35,16,50,1625853038.0,32.000000
-34,17,51,1625853038.0,32.000000
-35,17,51,1625853038.0,32.000000
-33,17,51,1625853038.0,32.000000
-34,18,51,1625853038.0,32.000000
-35,18,50,1625853038.0,32.000000
-36,18,49,1625853038.0,32.000000
-36,18,49,1625853038.0,32.000000
-35,18,50,1625853038.0,32.000000
-34,18,50,1625853038.0,32.000000
-34,18,50,1625853038.0,32.000000
-34,17,50,1625853038.0,32.000000
-34,18,50,1625853038.0,32.000000
-35,18,50,1625853038.0,32.000000
-35,18,50,1625853038.0,32.000000
-35,18,50,1625853038.0,32.000000
-34,18,51,1625853038.0,32.000000
-34,18,51,1625853038.0,32.000000
-35,17,50,1625853038.0,32.000000
-35,17,50,1625853038.0,32.000000
-35,17,50,1625853038.0,32.000000
-35,17,50,1625853038.0,32.000000
-34,17,50,1625853038.0,32.000000
-35,17,50,1625853038.0,32.000000
-34,17,51,1625853038.0,32.000000
-34,17,50,1625853038.0,32.000000
-34,17,51,1625853038.0,32.000000
-34,17,51,1625853038.0,32.000000
-34,17,51,1625853038.0,32.000000
-34,17,51,1625853038.0,32.000000
-34,17,51,1625853038.0,32.000000
-34,17,51,1625853038.0,32.000000
-34,17,51,1625853038.0,32.000000
-34,16,51,1625853038.0,32.000000
-34,17,51,1625853038.0,32.000000
-34,17,51,1625853038.0,32.000000
-34,16,51,1625853038.0,32.000000
-34,17,50,1625853038.0,32.000000
-34,16,51,1625853038.0,32.000000
-34,17,51,1625853038.0,32.000000
-34,16,51,1625853038.0,32.000000
-34,16,51,1625853038.0,32.000000
-34,17,50,1625853038.0,32.000000
-34,17,51,1625853038.0,32.000000
-34,17,51,1625853038.0,32.000000
-34,16,51,1625853038.0,32.000000
-34,17,51,1625853038.0,32.000000
-35,17,50,1625853038.0,32.000000
-35,17,50,1625853038.0,32.000000
-35,17,50,1625853038.0,32.000000
-34,17,51,1625853038.0,32.000000
-34,17,51,1625853038.0,32.000000
-34,17,51,1625853038.0,32.000000
-34,17,51,1625853038.0,32.000000
-33,18,51,1625853038.0,32.000000
-34,17,51,1625853038.0,32.000000
-34,17,50,1625853038.0,32.000000
-34,17,50,1625853038.0,32.000000
-34,17,51,1625853038.0,32.000000
-34,17,50,1625853038.0,32.000000
-34,17,50,1625853038.0,32.000000
-34,17,50,1625853038.0,32.000000
-34,17,50,1625853038.0,32.000000
-35,17,50,1625853038.0,32.000000
-34,17,50,1625853038.0,32.000000
-34,17,50,1625853038.0,32.000000
-34,17,51,1625853038.0,32.000000
-35,17,50,1625853038.0,32.000000
-34,17,51,1625853038.0,32.000000
-34,17,51,1625853038.0,32.000000
-34,17,51,1625853038.0,32.000000
-33,17,51,1625853038.0,32.000000
-33,17,51,1625853038.0,32.000000
-32,17,52,1625853038.0,32.000000
-32,17,52,1625853038.0,32.000000
-32,17,51,1625853038.0,32.000000
-34,17,53,1625853038.0,32.000000
-34,17,51,1625853038.0,32.000000
-33,17,51,1625853038.0,32.000000
-33,17,51,1625853038.0,32.000000
-33,17,51,1625853038.0,32.000000
-34,16,51,1625853038.0,32.000000
-32,16,51,1625853038.0,32.000000
-32,17,51,1625853038.0,32.000000
-32,19,51,1625853038.0,32.000000
-32,19,50,1625853038.0,32.000000
-33,18,51,1625853038.0,32.000000
-33,19,51,1625853038.0,32.000000
-33,19,50,1625853038.0,32.000000
-32,19,51,1625853038.0,32.000000
-30,18,53,1625853038.0,32.000000
-31,17,53,1625853038.0,32.000000
-29,19,52,1625853038.0,32.000000
-30,17,53,1625853038.0,32.000000
-32,19,51,1625853038.0,32.000000
-32,19,51,1625853038.0,32.000000
-33,18,50,1625853038.0,32.000000
-34,19,51,1625853038.0,32.000000
-32,18,51,1625853038.0,32.000000
-32,18,51,1625853038.0,32.000000
-32,18,52,1625853038.0,32.000000
-33,18,51,1625853038.0,32.000000
-33,18,51,1625853038.0,32.000000
-32,19,51,1625853038.0,32.000000
-32,18,51,1625853038.0,32.000000
-32,18,51,1625853038.0,32.000000
-33,19,50,1625853038.0,32.000000
-34,19,51,1625853038.0,32.000000
-32,19,51,1625853038.0,32.000000
-33,18,51,1625853038.0,32.000000
-32,18,51,1625853038.0,32.000000
-33,19,51,1625853038.0,32.000000
-33,19,50,1625853038.0,32.000000
-34,19,50,1625853038.0,32.000000
-34,18,51,1625853038.0,32.000000
-33,18,51,1625853038.0,32.000000
-33,19,51,1625853038.0,32.000000
-33,18,50,1625853038.0,32.000000
-33,19,51,1625853038.0,32.000000
-33,18,51,1625853038.0,32.000000
-33,18,51,1625853038.0,32.000000
-33,18,50,1625853038.0,32.000000
-34,18,50,1625853038.0,32.000000
-34,18,50,1625853038.0,32.000000
-33,18,51,1625853038.0,32.000000
-33,18,51,1625853038.0,32.000000
-33,18,51,1625853038.0,32.000000
-33,18,51,1625853038.0,32.000000
-33,18,51,1625853038.0,32.000000
-34,18,51,1625853038.0,32.000000
-34,18,51,1625853038.0,32.000000
-34,18,51,1625853038.0,32.000000
-33,18,51,1625853038.0,32.000000
-34,18,51,1625853038.0,32.000000
-33,18,51,1625853038.0,32.000000
-34,18,50,1625853038.0,32.000000
-34,18,50,1625853038.0,32.000000
-34,18,51,1625853038.0,32.000000
-34,18,50,1625853038.0,32.000000
-34,18,50,1625853038.0,32.000000
-34,18,51,1625853038.0,32.000000
-34,18,51,1625853038.0,32.000000
-34,18,50,1625853038.0,32.000000
-34,18,50,1625853038.0,32.000000
-34,18,50,1625853038.0,32.000000
-34,19,50,1625853038.0,32.000000
-35,18,51,1625853038.0,32.000000
-35,18,51,1625853038.0,32.000000
-35,18,50,1625853038.0,32.000000
-34,17,50,1625853038.0,32.000000
-35,18,50,1625853038.0,32.000000
-35,18,49,1625853038.0,32.000000
-34,18,50,1625853038.0,32.000000
-33,17,51,1625853038.0,32.000000
-34,18,51,1625853038.0,32.000000
-36,18,49,1625853038.0,32.000000
-35,18,49,1625853038.0,32.000000
-34,18,50,1625853038.0,32.000000
-34,17,50,1625853038.0,32.000000
-35,18,50,1625853038.0,32.000000
-35,18,49,1625853038.0,32.000000
-34,18,50,1625853038.0,32.000000
-34,17,50,1625853038.0,32.000000
-34,17,51,1625853038.0,32.000000
-34,17,50,1625853038.0,32.000000
-35,18,50,1625853038.0,32.000000
-34,17,50,1625853038.0,32.000000
-34,18,50,1625853038.0,32.000000
-34,18,50,1625853038.0,32.000000
-33,17,51,1625853038.0,32.000000
-34,18,51,1625853038.0,32.000000
-34,17,50,1625853038.0,32.000000
-34,17,51,1625853038.0,32.000000
-35,18,50,1625853038.0,32.000000
-34,18,50,1625853038.0,32.000000
-34,18,51,1625853038.0,32.000000
-33,17,51,1625853038.0,32.000000
-33,17,51,1625853038.0,32.000000
-34,17,50,1625853038.0,32.000000
-34,18,51,1625853038.0,32.000000
-35,18,51,1625853038.0,32.000000
-34,16,50,1625853038.0,32.000000
-33,16,50,1625853038.0,32.000000
-34,16,51,1625853038.0,32.000000
-35,17,50,1625853038.0,32.000000
-36,18,50,1625853038.0,32.000000
-32,18,52,1625853038.0,32.000000
-33,17,51,1625853038.0,32.000000
-34,16,51,1625853038.0,32.000000
-34,17,51,1625853038.0,32.000000
-35,18,50,1625853038.0,32.000000
-35,17,50,1625853038.0,32.000000
-36,17,50,1625853038.0,32.000000
-35,16,50,1625853038.0,32.000000
-35,16,51,1625853038.0,32.000000
-34,17,51,1625853038.0,32.000000
-34,17,51,1625853038.0,32.000000
-35,17,51,1625853038.0,32.000000
-35,17,51,1625853038.0,32.000000
-31,20,54,1625853038.0,32.000000
-37,26,53,1625853038.0,32.000000
-43,35,54,1625853038.0,32.000000
-32,29,63,1625853038.0,32.000000
-31,29,60,1625853038.0,32.000000
-31,36,51,1625853038.0,32.000000
-20,21,50,1625853038.0,32.000000
-24,23,46,1625853038.0,32.000000
-19,16,42,1625853038.0,32.000000
-20,9,42,1625853038.0,32.000000
-20,7,44,1625853038.0,32.000000
-20,4,47,1625853038.0,32.000000
-22,4,49,1625853038.0,32.000000
-16,3,53,1625853038.0,32.000000
-19,8,56,1625853038.0,32.000000
-17,8,65,1625853038.0,32.000000
-20,9,83,1625853038.0,32.000000
-18,7,83,1625853038.0,32.000000
-19,7,64,1625853038.0,32.000000
-15,7,55,1625853038.0,32.000000
-14,8,53,1625853038.0,32.000000
-16,9,60,1625853038.0,32.000000
-17,9,64,1625853038.0,32.000000
-20,9,62,1625853038.0,32.000000
-18,8,63,1625853038.0,32.000000
-19,6,62,1625853038.0,32.000000
-20,7,57,1625853038.0,32.000000
-17,7,60,1625853038.0,32.000000
-17,6,61,1625853038.0,32.000000
-18,5,62,1625853038.0,32.000000
-18,5,61,1625853038.0,32.000000
-17,5,60,1625853038.0,32.000000
-17,8,61,1625853038.0,32.000000
-19,7,60,1625853038.0,32.000000
-17,6,60,1625853038.0,32.000000
-15,8,60,1625853038.0,32.000000
-15,8,60,1625853038.0,32.000000
-18,3,63,1625853038.0,32.000000
-20,6,60,1625853038.0,32.000000
-18,5,61,1625853038.0,32.000000
-20,7,59,1625853038.0,32.000000
-20,7,59,1625853038.0,32.000000
-19,7,60,1625853038.0,32.000000
-19,7,60,1625853038.0,32.000000
-20,9,57,1625853038.0,32.000000
-19,6,63,1625853038.0,32.000000
-19,4,63,1625853038.0,32.000000
-20,8,58,1625853038.0,32.000000
-20,7,59,1625853038.0,32.000000
-19,7,59,1625853038.0,32.000000
-19,6,61,1625853038.0,32.000000
-19,6,60,1625853038.0,32.000000
-19,6,60,1625853038.0,32.000000
-20,6,60,1625853038.0,32.000000
-20,6,60,1625853038.0,32.000000
-20,6,60,1625853038.0,32.000000
-20,6,60,1625853038.0,32.000000
-20,8,58,1625853038.0,32.000000
-20,6,61,1625853038.0,32.000000
-18,5,61,1625853038.0,32.000000
-20,8,58,1625853038.0,32.000000
-21,6,60,1625853038.0,32.000000
-20,6,61,1625853038.0,32.000000
-20,6,60,1625853038.0,32.000000
-21,6,59,1625853038.0,32.000000
-21,7,61,1625853038.0,32.000000
-21,8,56,1625853038.0,32.000000
-23,9,56,1625853038.0,32.000000
-20,7,60,1625853038.0,32.000000
-21,8,59,1625853038.0,32.000000
-22,6,60,1625853038.0,32.000000
-22,7,59,1625853038.0,32.000000
-23,8,59,1625853038.0,32.000000
-22,9,58,1625853038.0,32.000000
-23,10,57,1625853038.0,32.000000
-24,9,59,1625853038.0,32.000000
-23,10,55,1625853038.0,32.000000
-24,10,53,1625853038.0,32.000000
-28,5,60,1625853038.0,32.000000
-24,8,57,1625853038.0,32.000000
-25,6,59,1625853038.0,32.000000
-24,8,57,1625853038.0,32.000000
-23,9,58,1625853038.0,32.000000
-25,9,58,1625853038.0,32.000000
-24,10,57,1625853038.0,32.000000
-24,10,58,1625853038.0,32.000000
-24,10,57,1625853038.0,32.000000
-25,10,58,1625853038.0,32.000000
-25,11,57,1625853038.0,32.000000
-24,11,58,1625853038.0,32.000000
-24,10,58,1625853038.0,32.000000
-24,11,57,1625853038.0,32.000000
-25,11,57,1625853038.0,32.000000
-25,12,56,1625853038.0,32.000000
-26,12,56,1625853038.0,32.000000
-26,12,56,1625853038.0,32.000000
-26,13,56,1625853038.0,32.000000
-27,13,56,1625853038.0,32.000000
-27,13,55,1625853038.0,32.000000
-28,14,55,1625853038.0,32.000000
-27,14,55,1625853038.0,32.000000
-27,15,55,1625853038.0,32.000000
-27,16,55,1625853038.0,32.000000
-27,16,55,1625853038.0,32.000000
-27,15,55,1625853038.0,32.000000
-27,15,55,1625853038.0,32.000000
-27,16,55,1625853038.0,32.000000
-27,17,55,1625853038.0,32.000000
-26,16,55,1625853038.0,32.000000
-26,18,54,1625853038.0,32.000000
-26,17,55,1625853038.0,32.000000
-26,18,54,1625853038.0,32.000000
-25,18,55,1625853038.0,32.000000
-27,18,54,1625853038.0,32.000000
-26,18,54,1625853038.0,32.000000
-26,18,55,1625853038.0,32.000000
-27,18,54,1625853038.0,32.000000
-28,19,54,1625853038.0,32.000000
-28,18,54,1625853038.0,32.000000
-28,18,54,1625853038.0,32.000000
-36,18,48,1625853038.0,32.000000
-31,18,53,1625853038.0,32.000000
-32,19,51,1625853038.0,32.000000
-33,17,51,1625853038.0,32.000000
-37,17,47,1625853038.0,32.000000
-33,17,51,1625853038.0,32.000000
-34,18,50,1625853038.0,32.000000
-37,17,48,1625853038.0,32.000000
-37,18,48,1625853038.0,32.000000
-29,16,56,1625853038.0,32.000000
-30,18,53,1625853038.0,32.000000
-31,16,53,1625853038.0,32.000000
-30,16,54,1625853038.0,32.000000
-31,17,53,1625853038.0,32.000000
-32,17,52,1625853038.0,32.000000
-33,16,51,1625853038.0,32.000000
-32,17,52,1625853038.0,32.000000
-32,17,51,1625853038.0,32.000000
-32,17,51,1625853038.0,32.000000
-32,17,51,1625853038.0,32.000000
-32,17,52,1625853038.0,32.000000
-31,16,52,1625853038.0,32.000000
-32,17,52,1625853038.0,32.000000
-32,16,53,1625853038.0,32.000000
-32,17,52,1625853038.0,32.000000
-32,17,52,1625853038.0,32.000000
-32,17,52,1625853038.0,32.000000
-32,17,52,1625853038.0,32.000000
-32,17,52,1625853038.0,32.000000
-31,16,52,1625853038.0,32.000000
-33,17,52,1625853038.0,32.000000
-32,17,52,1625853038.0,32.000000
-32,17,52,1625853038.0,32.000000
-32,17,52,1625853038.0,32.000000
-32,17,52,1625853038.0,32.000000
-31,16,52,1625853038.0,32.000000
-32,17,51,1625853038.0,32.000000
-32,17,52,1625853038.0,32.000000
-31,17,52,1625853038.0,32.000000
-33,17,51,1625853038.0,32.000000
-33,17,51,1625853038.0,32.000000
-32,17,52,1625853038.0,32.000000
-32,17,52,1625853038.0,32.000000
-33,17,51,1625853038.0,32.000000
-32,17,51,1625853038.0,32.000000
-33,17,51,1625853038.0,32.000000
-32,18,52,1625853038.0,32.000000
-31,18,52,1625853038.0,32.000000
-31,17,52,1625853038.0,32.000000
-32,17,52,1625853038.0,32.000000
-31,17,52,1625853038.0,32.000000
-32,18,51,1625853038.0,32.000000
-32,18,52,1625853038.0,32.000000
-32,18,52,1625853038.0,32.000000
-32,18,52,1625853038.0,32.000000
-32,18,52,1625853038.0,32.000000
-33,18,51,1625853038.0,32.000000
-33,19,50,1625853038.0,32.000000
-34,19,49,1625853038.0,32.000000
-35,20,49,1625853038.0,32.000000
-35,20,48,1625853038.0,32.000000
-37,20,48,1625853038.0,32.000000
-36,19,49,1625853038.0,32.000000
-35,20,49,1625853038.0,32.000000
-35,20,48,1625853038.0,32.000000
-35,20,48,1625853038.0,32.000000
-35,20,49,1625853038.0,32.000000
-36,19,48,1625853038.0,32.000000
-35,19,48,1625853038.0,32.000000
-36,19,49,1625853038.0,32.000000
-35,18,50,1625853038.0,32.000000
-33,19,50,1625853038.0,32.000000
-33,20,50,1625853038.0,32.000000
-33,18,51,1625853038.0,32.000000
-33,18,52,1625853038.0,32.000000
-30,17,54,1625853038.0,32.000000
-30,18,53,1625853038.0,32.000000
-29,18,53,1625853038.0,32.000000
-29,18,53,1625853038.0,32.000000
-30,18,52,1625853038.0,32.000000
-30,18,52,1625853038.0,32.000000
-31,18,52,1625853038.0,32.000000
-31,19,51,1625853038.0,32.000000
-32,19,51,1625853038.0,32.000000
-32,19,51,1625853038.0,32.000000
-32,19,51,1625853038.0,32.000000
-32,19,51,1625853038.0,32.000000
-32,19,51,1625853038.0,32.000000
-32,18,51,1625853038.0,32.000000
-32,18,51,1625853038.0,32.000000
-32,18,51,1625853038.0,32.000000
-32,18,51,1625853038.0,32.000000
-33,18,51,1625853038.0,32.000000
-34,17,51,1625853038.0,32.000000
-35,16,50,1625853038.0,32.000000
-36,16,49,1625853038.0,32.000000
-37,17,49,1625853038.0,32.000000
-35,16,50,1625853038.0,32.000000
-37,16,50,1625853038.0,32.000000
-38,14,50,1625853038.0,32.000000
-38,16,51,1625853038.0,32.000000
-34,13,54,1625853038.0,32.000000
-33,16,54,1625853038.0,32.000000
-22,20,54,1625853038.0,32.000000
-11,19,56,1625853038.0,32.000000
-7,18,58,1625853038.0,32.000000
-3,17,60,1625853038.0,32.000000
2,14,61,1625853038.0,32.000000
4,13,63,1625853038.0,32.000000
6,12,62,1625853038.0,32.000000
5,13,62,1625853038.0,32.000000
4,14,61,1625853038.0,32.000000
4,13,63,1625853038.0,32.000000
2,14,62,1625853038.0,32.000000
5,13,63,1625853038.0,32.000000
3,13,62,1625853038.0,32.000000
5,14,63,1625853038.0,32.000000
6,13,64,1625853038.0,32.000000
4,13,65,1625853038.0,32.000000
3,16,63,1625853038.0,32.000000
-6,6,71,1625853038.0,32.000000
-7,7,69,1625853038.0,32.000000
-7,7,67,1625853038.0,32.000000
-3,6,69,1625853038.0,32.000000
0,15,64,1625853038.0,32.000000
5,20,59,1625853038.0,32.000000
8,22,57,1625853038.0,32.000000
18,26,52,1625853038.0,32.000000
21,26,50,1625853038.0,32.000000
25,25,49,1625853038.0,32.000000
26,25,52,1625853038.0,32.000000
26,26,50,1625853038.0,32.000000
25,26,51,1625853038.0,32.000000
23,25,52,1625853038.0,32.000000
22,28,48,1625853038.0,32.000000
21,28,51,1625853038.0,32.000000
20,27,54,1625853038.0,32.000000
21,26,52,1625853038.0,32.000000
24,19,57,1625853038.0,32.000000
14,28,54,1625853038.0,32.000000
17,26,53,1625853038.0,32.000000
16,23,52,1625853038.0,32.000000
19,35,54,1625853038.0,32.000000
21,32,52,1625853038.0,32.000000
0,-14,52,1625853038.0,32.000000
16,38,52,1625853038.0,32.000000
18,48,49,1625853038.0,32.000000
15,41,50,1625853038.0,32.000000
11,42,54,1625853038.0,32.000000
11,41,52,1625853038.0,32.000000
8,43,48,1625853038.0,32.000000
-8,40,40,1625853038.0,32.000000
-3,40,44,1625853038.0,32.000000
4,40,49,1625853038.0,32.000000
9,42,52,1625853038.0,32.000000
8,30,59,1625853038.0,32.000000
-18,14,53,1625853038.0,32.000000
1,30,58,1625853038.0,32.000000
2,23,56,1625853038.0,32.000000
3,25,57,1625853038.0,32.000000
6,26,59,1625853038.0,32.000000
-1,27,52,1625853038.0,32.000000
-5,26,54,1625853038.0,32.000000
-17,22,53,1625853038.0,32.000000
-22,19,55,1625853038.0,32.000000
-30,16,58,1625853038.0,32.000000
-26,16,59,1625853038.0,32.000000
-19,15,56,1625853038.0,32.000000
-26,11,60,1625853038.0,32.000000
-24,7,66,1625853038.0,32.000000
-18,8,63,1625853038.0,32.000000
-20,9,59,1625853038.0,32.000000
-22,8,61,1625853038.0,32.000000
-15,10,60,1625853038.0,32.000000
-15,9,64,1625853038.0,32.000000
-14,9,64,1625853038.0,32.000000
-8,8,63,1625853038.0,32.000000
-10,-5,69,1625853038.0,32.000000
-23,10,57,1625853038.0,32.000000
-16,4,60,1625853038.0,32.000000
-17,5,61,1625853038.0,32.000000
-20,8,62,1625853038.0,32.000000
-18,3,57,1625853038.0,32.000000
-20,3,62,1625853038.0,32.000000
-15,2,62,1625853038.0,32.000000
-17,5,60,1625853038.0,32.000000
-16,6,61,1625853038.0,32.000000
-17,5,61,1625853038.0,32.000000
-19,5,60,1625853038.0,32.000000
-18,5,60,1625853038.0,32.000000
-19,5,60,1625853038.0,32.000000
-18,6,60,1625853038.0,32.000000
-20,5,59,1625853038.0,32.000000
-19,5,60,1625853038.0,32.000000
-21,6,59,1625853038.0,32.000000
-18,6,60,1625853038.0,32.000000
-19,5,61,1625853038.0,32.000000
-20,6,60,1625853038.0,32.000000
-19,6,60,1625853038.0,32.000000
-20,5,60,1625853038.0,32.000000
-19,5,60,1625853038.0,32.000000
-19,6,60,1625853038.0,32.000000
-20,5,60,1625853038.0,32.000000
-21,6,60,1625853038.0,32.000000
-22,6,59,1625853038.0,32.000000
-19,6,61,1625853038.0,32.000000
-20,3,66,1625853038.0,32.000000
-25,5,61,1625853038.0,32.000000
-18,8,60,1625853038.0,32.000000
-15,7,57,1625853038.0,32.000000
-13,4,55,1625853038.0,32.000000
-10,3,54,1625853038.0,32.000000
-24,18,63,1625853038.0,32.000000
-16,7,66,1625853038.0,32.000000
-23,6,62,1625853038.0,32.000000
-18,9,59,1625853038.0,32.000000
-15,7,62,1625853038.0,32.000000
-20,6,60,1625853038.0,32.000000
-21,6,59,1625853038.0,32.000000
-20,7,61,1625853038.0,32.000000
-20,9,59,1625853038.0,32.000000
-22,9,58,1625853038.0,32.000000
-22,8,60,1625853038.0,32.000000
-22,8,60,1625853038.0,32.000000
-21,9,59,1625853038.0,32.000000
-21,9,59,1625853038.0,32.000000
-19,10,58,1625853038.0,32.000000
-21,10,60,1625853038.0,32.000000
-20,11,59,1625853038.0,32.000000
-20,11,58,1625853038.0,32.000000
-26,10,58,1625853038.0,32.000000
-24,8,59,1625853038.0,32.000000
-23,8,61,1625853038.0,32.000000
-22,9,59,1625853038.0,32.000000
-22,11,58,1625853038.0,32.000000
-22,11,57,1625853038.0,32.000000
-23,8,61,1625853038.0,32.000000
-19,11,62,1625853038.0,32.000000
-32,11,54,1625853038.0,32.000000
-42,10,46,1625853038.0,32.000000
-33,12,50,1625853038.0,32.000000
-30,13,55,1625853038.0,32.000000
-31,12,54,1625853038.0,32.000000
-29,12,54,1625853038.0,32.000000
-28,15,53,1625853038.0,32.000000
-29,15,53,1625853038.0,32.000000
-30,14,54,1625853038.0,32.000000
-29,13,56,1625853038.0,32.000000
-29,13,54,1625853038.0,32.000000
-28,13,56,1625853038.0,32.000000
-27,12,56,1625853038.0,32.000000
-29,12,53,1625853038.0,32.000000
-26,13,58,1625853038.0,32.000000
-27,14,54,1625853038.0,32.000000
-27,13,56,1625853038.0,32.000000
-28,12,55,1625853038.0,32.000000
-29,13,52,1625853038.0,32.000000
-30,13,53,1625853038.0,32.000000
-29,12,55,1625853038.0,32.000000
-28,12,56,1625853038.0,32.000000
-28,13,56,1625853038.0,32.000000
-27,13,56,1625853038.0,32.000000
-27,13,56,1625853038.0,32.000000
-27,14,56,1625853038.0,32.000000
-27,16,55,1625853038.0,32.000000
-29,15,54,1625853038.0,32.000000
-29,14,53,1625853038.0,32.000000
-28,15,52,1625853038.0,32.000000
-31,14,53,1625853038.0,32.000000
-28,11,56,1625853038.0,32.000000
-30,10,58,1625853038.0,32.000000
-27,11,59,1625853038.0,32.000000
-25,13,56,1625853038.0,32.000000
-26,13,55,1625853038.0,32.000000
-27,14,54,1625853038.0,32.000000
-27,13,56,1625853038.0,32.000000
-27,13,57,1625853038.0,32.000000
-28,13,56,1625853038.0,32.000000
-28,13,55,1625853038.0,32.000000
-27,13,55,1625853038.0,32.000000
-27,13,55,1625853038.0,32.000000
-26,12,56,1625853038.0,32.000000
-28,13,54,1625853038.0,32.000000
-30,12,54,1625853038.0,32.000000
-31,13,53,1625853038.0,32.000000
-32,13,54,1625853038.0,32.000000
-32,12,55,1625853038.0,32.000000
-21,11,60,1625853038.0,32.000000
-7,11,62,1625853038.0,32.000000
-5,13,61,1625853038.0,32.000000
-9,16,56,1625853038.0,32.000000
-15,15,61,1625853038.0,32.000000
-11,12,62,1625853038.0,32.000000
-8,8,67,1625853038.0,32.000000
-10,8,64,1625853038.0,32.000000
-13,11,61,1625853038.0,32.000000
-14,12,59,1625853038.0,32.000000
-15,13,58,1625853038.0,32.000000
-20,13,57,1625853038.0,32.000000
-20,13,58,1625853038.0,32.000000
-17,12,60,1625853038.0,32.000000
-18,11,59,1625853038.0,32.000000
-23,11,58,1625853038.0,32.000000
-20,10,59,1625853038.0,32.000000
-18,10,59,1625853038.0,32.000000
-19,11,60,1625853038.0,32.000000
-19,10,59,1625853038.0,32.000000
-17,11,57,1625853038.0,32.000000
-24,12,54,1625853038.0,32.000000
5,3,63,1625853038.0,32.000000
12,5,61,1625853038.0,32.000000
22,2,62,1625853038.0,32.000000
23,10,59,1625853038.0,32.000000
26,6,60,1625853038.0,32.000000
25,4,57,1625853038.0,32.000000
27,5,61,1625853038.0,32.000000
26,-2,57,1625853038.0,32.000000
24,1,57,1625853038.0,32.000000
25,3,58,1625853038.0,32.000000
26,3,59,1625853038.0,32.000000
25,4,59,1625853038.0,32.000000
23,5,59,1625853038.0,32.000000
25,4,59,1625853038.0,32.000000
24,4,59,1625853038.0,32.000000
23,4,59,1625853038.0,32.000000
23,4,59,1625853038.0,32.000000
22,4,59,1625853038.0,32.000000
22,4,60,1625853038.0,32.000000
23,4,60,1625853038.0,32.000000
17,6,61,1625853038.0,32.000000
15,5,61,1625853038.0,32.000000
-1,5,67,1625853038.0,32.000000
-22,4,80,1625853038.0,32.000000
-16,2,84,1625853038.0,32.000000
-3,9,90,1625853038.0,32.000000
14,12,89,1625853038.0,32.000000
11,5,79,1625853038.0,32.000000
22,3,59,1625853038.0,32.000000
33,0,59,1625853038.0,32.000000
38,-3,54,1625853038.0,32.000000
41,-6,57,1625853038.0,32.000000
52,-29,18,1625853038.0,32.000000
8,-12,26,1625853038.0,32.000000
13,11,22,1625853038.0,32.000000
50,9,46,1625853038.0,32.000000
36,10,41,1625853038.0,32.000000
28,13,41,1625853038.0,32.000000
36,14,48,1625853038.0,32.000000
38,10,47,1625853038.0,32.000000
43,10,46,1625853038.0,32.000000
60,17,45,1625853038.0,32.000000
61,18,41,1625853038.0,32.000000
59,11,38,1625853038.0,32.000000
35,20,35,1625853038.0,32.000000
42,16,38,1625853038.0,32.000000
41,15,37,1625853038.0,32.000000
45,14,36,1625853038.0,32.000000
44,15,36,1625853038.0,32.000000
45,15,35,1625853038.0,32.000000
46,15,36,1625853038.0,32.000000
49,15,35,1625853038.0,32.000000
48,15,36,1625853038.0,32.000000
48,15,37,1625853038.0,32.000000
48,17,35,1625853038.0,32.000000
47,16,35,1625853038.0,32.000000
48,18,36,1625853038.0,32.000000
50,18,38,1625853038.0,32.000000
48,20,37,1625853038.0,32.000000
46,20,37,1625853038.0,32.000000
49,18,39,1625853038.0,32.000000
46,15,39,1625853038.0,32.000000
41,20,42,1625853038.0,32.000000
46,19,41,1625853038.0,32.000000
50,21,38,1625853038.0,32.000000
44,20,33,1625853038.0,32.000000
47,19,36,1625853038.0,32.000000
48,17,40,1625853038.0,32.000000
45,19,38,1625853038.0,32.000000
49,16,39,1625853038.0,32.000000
49,19,41,1625853038.0,32.000000
44,20,35,1625853038.0,32.000000
50,20,33,1625853038.0,32.000000
55,15,40,1625853038.0,32.000000
45,21,37,1625853038.0,32.000000
54,16,42,1625853038.0,32.000000
43,14,46,1625853038.0,32.000000
38,13,39,1625853038.0,32.000000
46,22,35,1625853038.0,32.000000
49,23,37,1625853038.0,32.000000
50,14,39,1625853038.0,32.000000
41,10,41,1625853038.0,32.000000
36,16,43,1625853038.0,32.000000
44,14,49,1625853038.0,32.000000
37,13,50,1625853038.0,32.000000
28,23,48,1625853038.0,32.000000
51,12,46,1625853038.0,32.000000
64,18,35,1625853038.0,32.000000
46,27,44,1625853038.0,32.000000
60,17,58,1625853038.0,32.000000
27,13,57,1625853038.0,32.000000
-11,18,43,1625853038.0,32.000000
-22,20,33,1625853038.0,32.000000
-12,18,34,1625853038.0,32.000000
4,17,39,1625853038.0,32.000000
21,23,43,1625853038.0,32.000000
54,20,52,1625853038.0,32.000000
63,23,58,1625853038.0,32.000000
37,19,58,1625853038.0,32.000000
30,18,67,1625853038.0,32.000000
23,18,65,1625853038.0,32.000000
13,20,43,1625853038.0,32.000000
18,16,45,1625853038.0,32.000000
27,10,52,1625853038.0,32.000000
42,21,45,1625853038.0,32.000000
50,19,43,1625853038.0,32.000000
59,11,63,1625853038.0,32.000000
42,16,57,1625853038.0,32.000000
23,0,53,1625853038.0,32.000000
40,10,38,1625853038.0,32.000000
37,2,53,1625853038.0,32.000000
14,3,65,1625853038.0,32.000000
27,6,62,1625853038.0,32.000000
49,8,52,1625853038.0,32.000000
50,5,57,1625853038.0,32.000000
56,9,42,1625853038.0,32.000000
59,5,47,1625853038.0,32.000000
47,-1,55,1625853038.0,32.000000
38,0,55,1625853038.0,32.000000
26,5,48,1625853038.0,32.000000
23,8,47,1625853038.0,32.000000
14,10,53,1625853038.0,32.000000
-11,31,40,1625853038.0,32.000000
-7,27,53,1625853038.0,32.000000
-41,10,48,1625853038.0,32.000000
-40,16,45,1625853038.0,32.000000
-41,7,60,1625853038.0,32.000000
-35,15,58,1625853038.0,32.000000
-28,15,63,1625853038.0,32.000000
-32,8,61,1625853038.0,32.000000
-30,8,58,1625853038.0,32.000000
-25,7,64,1625853038.0,32.000000
-24,10,61,1625853038.0,32.000000
-21,11,61,1625853038.0,32.000000
-15,10,66,1625853038.0,32.000000
-21,9,61,1625853038.0,32.000000
-20,8,61,1625853038.0,32.000000
-13,7,61,1625853038.0,32.000000
-14,6,59,1625853038.0,32.000000
-14,7,66,1625853038.0,32.000000
-12,4,68,1625853038.0,32.000000
-20,9,64,1625853038.0,32.000000
-17,2,61,1625853038.0,32.000000
-10,6,62,1625853038.0,32.000000
-13,5,61,1625853038.0,32.000000
-19,8,60,1625853038.0,32.000000
-16,10,61,1625853038.0,32.000000
-16,11,60,1625853038.0,32.000000
-15,6,61,1625853038.0,32.000000
-16,4,62,1625853038.0,32.000000
-14,4,62,1625853038.0,32.000000
-15,7,63,1625853038.0,32.000000
-16,12,59,1625853038.0,32.000000
-9,2,61,1625853038.0,32.000000
-12,5,56,1625853038.0,32.000000
-10,4,54,1625853038.0,32.000000
-5,8,68,1625853038.0,32.000000
-16,17,62,1625853038.0,32.000000
-11,8,61,1625853038.0,32.000000
-14,6,61,1625853038.0,32.000000
-15,6,62,1625853038.0,32.000000
-16,5,62,1625853038.0,32.000000
-17,5,61,1625853038.0,32.000000
-18,5,61,1625853038.0,32.000000
-17,6,60,1625853038.0,32.000000
-18,6,60,1625853038.0,32.000000
-15,6,61,1625853038.0,32.000000
-15,6,61,1625853038.0,32.000000
-16,6,61,1625853038.0,32.000000
-16,6,61,1625853038.0,32.000000
-17,5,61,1625853038.0,32.000000
-15,6,61,1625853038.0,32.000000
-15,6,61,1625853038.0,32.000000
-17,6,61,1625853038.0,32.000000
-16,6,61,1625853038.0,32.000000
-16,6,61,1625853038.0,32.000000
-17,6,60,1625853038.0,32.000000
-17,7,60,1625853038.0,32.000000
-15,6,61,1625853038.0,32.000000
-17,6,61,1625853038.0,32.000000
-16,6,61,1625853038.0,32.000000
-16,6,61,1625853038.0,32.000000
-16,6,61,1625853038.0,32.000000
-16,6,61,1625853038.0,32.000000
-16,6,61,1625853038.0,32.000000
-17,6,61,1625853038.0,32.000000
-17,6,61,1625853038.0,32.000000
-16,6,61,1625853038.0,32.000000
-16,6,61,1625853038.0,32.000000
-17,6,61,1625853038.0,32.000000
-17,6,61,1625853038.0,32.000000
-16,6,61,1625853038.0,32.000000
-16,6,61,1625853038.0,32.000000
-17,6,61,1625853038.0,32.000000
-17,6,61,1625853038.0,32.000000
-17,6,61,1625853038.0,32.000000
-20,6,61,1625853038.0,32.000000
-22,5,60,1625853038.0,32.000000
-15,8,64,1625853038.0,32.000000
-2,1,67,1625853038.0,32.000000
-11,3,54,1625853038.0,32.000000
-12,1,52,1625853038.0,32.000000
-14,5,49,1625853038.0,32.000000
-13,18,67,1625853038.0,32.000000
-17,10,67,1625853038.0,32.000000
-11,7,61,1625853038.0,32.000000
-19,3,62,1625853038.0,32.000000
-18,5,61,1625853038.0,32.000000
-15,5,61,1625853038.0,32.000000
-16,6,61,1625853038.0,32.000000
-18,6,60,1625853038.0,32.000000
-18,6,59,1625853038.0,32.000000
-20,6,61,1625853038.0,32.000000
-17,6,61,1625853038.0,32.000000
-17,5,62,1625853038.0,32.000000
-16,6,61,1625853038.0,32.000000
-16,6,61,1625853038.0,32.000000
-16,6,61,1625853038.0,32.000000
-17,6,61,1625853038.0,32.000000
-16,6,61,1625853038.0,32.000000
-16,6,61,1625853038.0,32.000000
-16,6,61,1625853038.0,32.000000
-17,6,61,1625853038.0,32.000000
-17,6,61,1625853038.0,32.000000
-17,6,60,1625853038.0,32.000000
-16,6,61,1625853038.0,32.000000
-16,6,61,1625853038.0,32.000000
-17,6,61,1625853038.0,32.000000
-17,6,61,1625853038.0,32.000000
-17,7,60,1625853038.0,32.000000
-17,7,61,1625853038.0,32.000000
-18,7,61,1625853038.0,32.000000
-17,7,61,1625853038.0,32.000000
-16,7,61,1625853038.0,32.000000
-16,7,61,1625853038.0,32.000000
-15,7,61,1625853038.0,32.000000
-15,8,61,1625853038.0,32.000000
-15,8,60,1625853038.0,32.000000
-17,8,60,1625853038.0,32.000000
-17,8,61,1625853038.0,32.000000
-16,8,61,1625853038.0,32.000000
-16,8,60,1625853038.0,32.000000
-16,8,60,1625853038.0,32.000000
-16,9,61,1625853038.0,32.000000
-14,9,61,1625853038.0,32.000000
-15,8,61,1625853038.0,32.000000
-15,8,62,1625853038.0,32.000000
-13,8,63,1625853038.0,32.000000
-14,8,62,1625853038.0,32.000000
-9,11,61,1625853038.0,32.000000
-10,11,61,1625853038.0,32.000000
-8,11,60,1625853038.0,32.000000
-7,11,61,1625853038.0,32.000000
-9,10,62,1625853038.0,32.000000
-10,9,62,1625853038.0,32.000000
-10,9,62,1625853038.0,32.000000
-11,10,61,1625853038.0,32.000000
-11,10,62,1625853038.0,32.000000
-9,10,62,1625853038.0,32.000000
-13,11,60,1625853038.0,32.000000
-11,11,61,1625853038.0,32.000000
-18,12,70,1625853038.0,32.000000
-7,7,69,1625853038.0,32.000000
-3,5,65,1625853038.0,32.000000
-6,6,49,1625853038.0,32.000000
-4,4,53,1625853038.0,32.000000
-3,6,62,1625853038.0,32.000000
-6,14,60,1625853038.0,32.000000
-5,11,63,1625853038.0,32.000000
-8,7,62,1625853038.0,32.000000
-5,6,66,1625853038.0,32.000000
-7,5,67,1625853038.0,32.000000
-12,8,63,1625853038.0,32.000000
-13,9,62,1625853038.0,32.000000
-13,11,60,1625853038.0,32.000000
-13,12,59,1625853038.0,32.000000
-13,12,59,1625853038.0,32.000000
-10,10,61,1625853038.0,32.000000
-10,9,61,1625853038.0,32.000000
-9,9,60,1625853038.0,32.000000
-6,9,63,1625853038.0,32.000000
-11,9,60,1625853038.0,32.000000
-5,6,64,1625853038.0,32.000000
-7,8,63,1625853038.0,32.000000
-11,8,62,1625853038.0,32.000000
-10,8,61,1625853038.0,32.000000
-9,9,62,1625853038.0,32.000000
-13,9,61,1625853038.0,32.000000
-11,9,61,1625853038.0,32.000000
-11,9,62,1625853038.0,32.000000
-10,8,62,1625853038.0,32.000000
-11,9,62,1625853038.0,32.000000
-9,9,62,1625853038.0,32.000000
-11,10,61,1625853038.0,32.000000
-11,10,60,1625853038.0,32.000000
-12,11,62,1625853038.0,32.000000
-12,8,62,1625853038.0,32.000000
-13,9,60,1625853038.0,32.000000
-12,9,62,1625853038.0,32.000000
-11,9,62,1625853038.0,32.000000
-11,9,61,1625853038.0,32.000000
-11,9,61,1625853038.0,32.000000
-10,9,61,1625853038.0,32.000000
-12,9,61,1625853038.0,32.000000
-13,7,63,1625853038.0,32.000000
-12,10,60,1625853038.0,32.000000
-13,9,62,1625853038.0,32.000000
-11,8,62,1625853038.0,32.000000
-14,9,61,1625853038.0,32.000000
-13,8,61,1625853038.0,32.000000
-9,10,61,1625853038.0,32.000000
-17,8,62,1625853038.0,32.000000
-16,8,61,1625853038.0,32.000000
-8,9,62,1625853038.0,32.000000
-12,11,61,1625853038.0,32.000000
-11,10,61,1625853038.0,32.000000
-11,11,61,1625853038.0,32.000000
-12,7,63,1625853038.0,32.000000
-12,10,61,1625853038.0,32.000000
-16,8,61,1625853038.0,32.000000
-16,8,60,1625853038.0,32.000000
-16,8,61,1625853038.0,32.000000
-15,9,61,1625853038.0,32.000000
-13,9,65,1625853038.0,32.000000
-13,9,58,1625853038.0,32.000000
-12,8,68,1625853038.0,32.000000
-4,7,64,1625853038.0,32.000000
-6,8,56,1625853038.0,32.000000
-7,9,55,1625853038.0,32.000000
-12,11,57,1625853038.0,32.000000
-13,12,56,1625853038.0,32.000000
-9,11,57,1625853038.0,32.000000
-6,9,68,1625853038.0,32.000000
-4,7,69,1625853038.0,32.000000
-11,4,63,1625853038.0,32.000000
-8,8,62,1625853038.0,32.000000
-8,8,63,1625853038.0,32.000000
-8,11,61,1625853038.0,32.000000
-9,11,60,1625853038.0,32.000000
-10,11,61,1625853038.0,32.000000
-11,11,60,1625853038.0,32.000000
-12,10,62,1625853038.0,32.000000
-12,10,62,1625853038.0,32.000000
-12,9,63,1625853038.0,32.000000
-12,10,61,1625853038.0,32.000000
-7,11,60,1625853038.0,32.000000
-10,7,61,1625853038.0,32.000000
-13,7,61,1625853038.0,32.000000
-11,10,56,1625853038.0,32.000000
-13,9,63,1625853038.0,32.000000
-13,10,59,1625853038.0,32.000000
-12,9,61,1625853038.0,32.000000
-12,9,61,1625853038.0,32.000000
-11,9,61,1625853038.0,32.000000
-12,9,62,1625853038.0,32.000000
-12,9,62,1625853038.0,32.000000
-12,9,62,1625853038.0,32.000000
-13,10,61,1625853038.0,32.000000
-12,9,62,1625853038.0,32.000000
-11,9,62,1625853038.0,32.000000
-11,9,62,1625853038.0,32.000000
-11,9,61,1625853038.0,32.000000
-11,10,61,1625853038.0,32.000000
-12,7,64,1625853038.0,32.000000
-15,9,61,1625853038.0,32.000000
-11,8,62,1625853038.0,32.000000
-13,8,62,1625853038.0,32.000000
-13,9,61,1625853038.0,32.000000
-11,9,62,1625853038.0,32.000000
-11,9,61,1625853038.0,32.000000
-12,9,61,1625853038.0,32.000000
-12,9,61,1625853038.0,32.000000
-12,7,64,1625853038.0,32.000000
-11,9,60,1625853038.0,32.000000
-13,9,61,1625853038.0,32.000000
-13,9,61,1625853038.0,32.000000
-11,9,61,1625853038.0,32.000000
-12,9,62,1625853038.0,32.000000
-12,9,61,1625853038.0,32.000000
-12,9,61,1625853038.0,32.000000
-11,9,62,1625853038.0,32.000000
-14,8,62,1625853038.0,32.000000
-13,8,61,1625853038.0,32.000000
-13,9,61,1625853038.0,32.000000
-16,9,71,1625853038.0,32.000000
-17,10,72,1625853038.0,32.000000
-7,13,59,1625853038.0,32.000000
-10,8,56,1625853038.0,32.000000
-12,4,55,1625853038.0,32.000000
-12,4,58,1625853038.0,32.000000
-10,8,60,1625853038.0,32.000000
-9,10,61,1625853038.0,32.000000
-10,11,58,1625853038.0,32.000000
-13,12,60,1625853038.0,32.000000
-14,11,66,1625853038.0,32.000000
-13,11,64,1625853038.0,32.000000
-11,9,63,1625853038.0,32.000000
-12,9,62,1625853038.0,32.000000
-13,9,61,1625853038.0,32.000000
-13,10,61,1625853038.0,32.000000
-13,10,61,1625853038.0,32.000000
-12,11,61,1625853038.0,32.000000
-13,11,61,1625853038.0,32.000000
-12,11,61,1625853038.0,32.000000
-14,10,64,1625853038.0,32.000000
-13,10,62,1625853038.0,32.000000
-14,10,60,1625853038.0,32.000000
-13,10,61,1625853038.0,32.000000
-12,10,61,1625853038.0,32.000000
-13,10,61,1625853038.0,32.000000
-12,10,61,1625853038.0,32.000000
-13,10,61,1625853038.0,32.000000
-13,11,61,1625853038.0,32.000000
-13,11,61,1625853038.0,32.000000
-13,10,61,1625853038.0,32.000000
-12,10,61,1625853038.0,32.000000
-13,10,61,1625853038.0,32.000000
-13,10,61,1625853038.0,32.000000
-13,10,61,1625853038.0,32.000000
-12,11,61,1625853038.0,32.000000
-12,10,61,1625853038.0,32.000000
-12,11,61,1625853038.0,32.000000
-11,10,62,1625853038.0,32.000000
-12,10,61,1625853038.0,32.000000
-13,10,61,1625853038.0,32.000000
-13,10,61,1625853038.0,32.000000
-12,10,61,1625853038.0,32.000000
-13,10,61,1625853038.0,32.000000
-13,10,61,1625853038.0,32.000000
-13,10,61,1625853038.0,32.000000
-12,10,61,1625853038.0,32.000000
-12,10,62,1625853038.0,32.000000
-12,10,61,1625853038.0,32.000000
-11,10,62,1625853038.0,32.000000
-11,10,61,1625853038.0,32.000000
-11,10,61,1625853038.0,32.000000
-11,10,61,1625853038.0,32.000000
-12,11,61,1625853038.0,32.000000
-11,10,61,1625853038.0,32.000000
-12,10,61,1625853038.0,32.000000
-12,11,61,1625853038.0,32.000000
-12,11,61,1625853038.0,32.000000
-12,10,62,1625853038.0,32.000000
-12,11,61,1625853038.0,32.000000
-12,11,62,1625853038.0,32.000000
-12,10,61,1625853038.0,32.000000
-11,10,62,1625853038.0,32.000000
-11,10,62,1625853038.0,32.000000
-11,10,61,1625853038.0,32.000000
-12,10,61,1625853038.0,32.000000
-12,10,62,1625853038.0,32.000000
-11,10,61,1625853038.0,32.000000
-11,10,61,1625853038.0,32.000000
-11,10,62,1625853038.0,32.000000
-11,10,61,1625853038.0,32.000000
-11,10,62,1625853038.0,32.000000
-11,10,61,1625853038.0,32.000000
-11,10,62,1625853038.0,32.000000
-10,10,61,1625853038.0,32.000000
-10,10,60,1625853038.0,32.000000
-9,10,62,1625853038.0,32.000000
-8,10,62,1625853038.0,32.000000
-8,10,62,1625853038.0,32.000000
-6,10,63,1625853038.0,32.000000
-7,10,62,1625853038.0,32.000000
-6,10,61,1625853038.0,32.000000
-6,10,63,1625853038.0,32.000000
-6,11,63,1625853038.0,32.000000
-6,12,61,1625853038.0,32.000000
-3,11,65,1625853038.0,32.000000
-5,10,66,1625853038.0,32.000000
-5,10,59,1625853038.0,32.000000
-6,9,61,1625853038.0,32.000000
-7,9,62,1625853038.0,32.000000
-7,10,60,1625853038.0,32.000000
-7,10,60,1625853038.0,32.000000
-6,11,61,1625853038.0,32.000000
-6,12,60,1625853038.0,32.000000
-7,12,59,1625853038.0,32.000000
-7,12,62,1625853038.0,32.000000
-5,11,64,1625853038.0,32.000000
-4,10,63,1625853038.0,32.000000
-4,10,63,1625853038.0,32.000000
-4,10,63,1625853038.0,32.000000
-3,10,62,1625853038.0,32.000000
-4,10,63,1625853038.0,32.000000
-5,10,63,1625853038.0,32.000000
-6,10,62,1625853038.0,32.000000
-7,10,62,1625853038.0,32.000000
-7,11,62,1625853038.0,32.000000
-5,11,62,1625853038.0,32.000000
-5,11,62,1625853038.0,32.000000
-5,10,62,1625853038.0,32.000000
-6,10,62,1625853038.0,32.000000
-6,10,62,1625853038.0,32.000000
-7,10,62,1625853038.0,32.000000
-6,10,62,1625853038.0,32.000000
-7,10,62,1625853038.0,32.000000
-7,11,62,1625853038.0,32.000000
-7,10,62,1625853038.0,32.000000
-6,11,62,1625853038.0,32.000000
-7,10,62,1625853038.0,32.000000
-7,10,62,1625853038.0,32.000000
-7,10,62,1625853038.0,32.000000
-8,11,62,1625853038.0,32.000000
-7,11,62,1625853038.0,32.000000
-8,10,62,1625853038.0,32.000000
-8,11,62,1625853038.0,32.000000
-8,10,62,1625853038.0,32.000000
-8,11,62,1625853038.0,32.000000
-9,10,62,1625853038.0,32.000000
-9,10,61,1625853038.0,32.000000
-10,11,61,1625853038.0,32.000000
-9,10,64,1625853038.0,32.000000
-9,10,68,1625853038.0,32.000000
-7,12,61,1625853038.0,32.000000
-5,9,65,1625853038.0,32.000000
-5,7,62,1625853038.0,32.000000
-8,7,56,1625853038.0,32.000000
-11,10,60,1625853038.0,32.000000
-12,11,61,1625853038.0,32.000000
-16,14,55,1625853038.0,32.000000
-17,15,55,1625853038.0,32.000000
-12,14,65,1625853038.0,32.000000
-6,11,64,1625853038.0,32.000000
-6,9,62,1625853038.0,32.000000
-8,8,64,1625853038.0,32.000000
-5,8,64,1625853038.0,32.000000
-6,8,63,1625853038.0,32.000000
-9,10,62,1625853038.0,32.000000
-10,11,62,1625853038.0,32.000000
-12,12,61,1625853038.0,32.000000
-11,12,61,1625853038.0,32.000000
-11,11,61,1625853038.0,32.000000
-9,11,61,1625853038.0,32.000000
-9,10,62,1625853038.0,32.000000
-9,10,61,1625853038.0,32.000000
-10,10,62,1625853038.0,32.000000
-10,10,61,1625853038.0,32.000000
-10,10,62,1625853038.0,32.000000
-10,10,62,1625853038.0,32.000000
-9,10,62,1625853038.0,32.000000
-10,10,62,1625853038.0,32.000000
-9,10,61,1625853038.0,32.000000
-9,10,62,1625853038.0,32.000000
-9,10,62,1625853038.0,32.000000
-9,10,62,1625853038.0,32.000000
-10,11,61,1625853038.0,32.000000
-10,11,62,1625853038.0,32.000000
-10,10,61,1625853038.0,32.000000
-10,10,62,1625853038.0,32.000000
-9,10,61,1625853038.0,32.000000
-9,10,62,1625853038.0,32.000000
-9,11,62,1625853038.0,32.000000
-10,10,62,1625853038.0,32.000000
-9,10,62,1625853038.0,32.000000
-10,10,62,1625853038.0,32.000000
-9,10,61,1625853038.0,32.000000
-10,10,61,1625853038.0,32.000000
-9,10,62,1625853038.0,32.000000
-9,10,62,1625853038.0,32.000000
-9,10,62,1625853038.0,32.000000
-10,10,62,1625853038.0,32.000000
-10,10,62,1625853038.0,32.000000
-9,10,62,1625853038.0,32.000000
-10,10,61,1625853038.0,32.000000
-10,10,62,1625853038.0,32.000000
-9,10,62,1625853038.0,32.000000
-9,10,62,1625853038.0,32.000000
-9,10,62,1625853038.0,32.000000
-10,10,62,1625853038.0,32.000000
-9,10,62,1625853038.0,32.000000
-11,9,66,1625853038.0,32.000000
-11,10,65,1625853038.0,32.000000
-8,12,62,1625853038.0,32.000000
-6,10,57,1625853038.0,32.000000
-7,10,61,1625853038.0,32.000000
-8,12,59,1625853038.0,32.000000
-10,12,58,1625853038.0,32.000000
-10,12,57,1625853038.0,32.000000
-9,12,59,1625853038.0,32.000000
-11,11,64,1625853038.0,32.000000
-10,11,64,1625853038.0,32.000000
-8,10,62,1625853038.0,32.000000
-8,9,64,1625853038.0,32.000000
-9,10,62,1625853038.0,32.000000
-9,9,62,1625853038.0,32.000000
-8,10,62,1625853038.0,32.000000
-8,10,62,1625853038.0,32.000000
-8,10,62,1625853038.0,32.000000
-9,10,62,1625853038.0,32.000000
-9,10,62,1625853038.0,32.000000
-9,10,62,1625853038.0,32.000000
-9,10,62,1625853038.0,32.000000
-10,9,63,1625853038.0,32.000000
-9,11,61,1625853038.0,32.000000
-9,9,63,1625853038.0,32.000000
-9,9,63,1625853038.0,32.000000
-9,9,62,1625853038.0,32.000000
-8,10,62,1625853038.0,32.000000
-9,10,62,1625853038.0,32.000000
-9,10,61,1625853038.0,32.000000
-9,10,62,1625853038.0,32.000000
-9,10,62,1625853038.0,32.000000
-9,10,62,1625853038.0,32.000000
-9,10,62,1625853038.0,32.000000
-9,10,61,1625853038.0,32.000000
-9,10,63,1625853038.0,32.000000
-10,10,63,1625853038.0,32.000000
-9,10,60,1625853038.0,32.000000
-9,10,61,1625853038.0,32.000000
-9,10,62,1625853038.0,32.000000
-8,10,62,1625853038.0,32.000000
-9,10,62,1625853038.0,32.000000
-10,10,62,1625853038.0,32.000000
-10,10,62,1625853038.0,32.000000
-9,10,62,1625853038.0,32.000000
-9,10,61,1625853038.0,32.000000
-9,10,62,1625853038.0,32.000000
-9,10,62,1625853038.0,32.000000
-9,10,62,1625853038.0,32.000000
-9,10,62,1625853038.0,32.000000
-9,10,62,1625853038.0,32.000000
-9,10,62,1625853038.0,32.000000
-9,10,62,1625853038.0,32.000000
-9,10,62,1625853038.0,32.000000
-9,10,62,1625853038.0,32.000000
-9,10,62,1625853038.0,32.000000
-9,10,62,1625853038.0,32.000000
-9,10,62,1625853038.0,32.000000
-9,10,62,1625853038.0,32.000000
-9,10,62,1625853038.0,32.000000
-9,10,62,1625853038.0,32.000000
-9,10,62,1625853038.0,32.000000
-9,11,61,1625853038.0,32.000000
-9,10,62,1625853038.0,32.000000
-11,10,62,1625853038.0,32.000000
-11,10,62,1625853038.0,32.000000
-8,8,70,1625853038.0,32.000000
-7,10,72,1625853038.0,32.000000
-8,14,56,1625853038.0,32.000000
-11,12,56,1625853038.0,32.000000
-5,8,60,1625853038.0,32.000000
-5,9,58,1625853038.0,32.000000
-6,9,59,1625853038.0,32.000000
-7,10,58,1625853038.0,32.000000
-8,12,58,1625853038.0,32.000000
-9,12,62,1625853038.0,32.000000
-10,10,67,1625853038.0,32.000000
-9,10,65,1625853038.0,32.000000
-9,9,63,1625853038.0,32.000000
-9,9,63,1625853038.0,32.000000
-9,10,62,1625853038.0,32.000000
-8,10,63,1625853038.0,32.000000
-9,10,62,1625853038.0,32.000000
-9,9,62,1625853038.0,32.000000
-10,9,61,1625853038.0,32.000000
-10,9,61,1625853038.0,32.000000
-7,10,62,1625853038.0,32.000000
-8,10,62,1625853038.0,32.000000
-9,11,62,1625853038.0,32.000000
-9,10,62,1625853038.0,32.000000
-10,10,62,1625853038.0,32.000000
-10,10,62,1625853038.0,32.000000
-10,10,62,1625853038.0,32.000000
-9,10,62,1625853038.0,32.000000
-9,9,62,1625853038.0,32.000000
-10,10,62,1625853038.0,32.000000
-11,10,61,1625853038.0,32.000000
-10,10,61,1625853038.0,32.000000
-10,10,61,1625853038.0,32.000000
-11,11,61,1625853038.0,32.000000
-10,10,62,1625853038.0,32.000000
-10,10,62,1625853038.0,32.000000
-9,10,62,1625853038.0,32.000000
-9,10,62,1625853038.0,32.000000
-9,10,62,1625853038.0,32.000000
-10,11,61,1625853038.0,32.000000
-10,11,61,1625853038.0,32.000000
-11,11,61,1625853038.0,32.000000
-11,11,62,1625853038.0,32.000000
-12,10,61,1625853038.0,32.000000
-11,11,61,1625853038.0,32.000000
-10,11,61,1625853038.0,32.000000
-10,11,61,1625853038.0,32.000000
-10,11,61,1625853038.0,32.000000
-9,11,61,1625853038.0,32.000000
-11,11,62,1625853038.0,32.000000
-12,10,62,1625853038.0,32.000000
-12,10,62,1625853038.0,32.000000
-11,9,61,1625853038.0,32.000000
-10,10,61,1625853038.0,32.000000
-11,12,62,1625853038.0,32.000000
-12,11,61,1625853038.0,32.000000
-12,11,61,1625853038.0,32.000000
-11,10,61,1625853038.0,32.000000
-12,11,60,1625853038.0,32.000000
-21,10,70,1625853038.0,32.000000
-5,13,63,1625853038.0,32.000000
-5,11,56,1625853038.0,32.000000
-4,9,61,1625853038.0,32.000000
-7,9,61,1625853038.0,32.000000
-9,12,58,1625853038.0,32.000000
-8,14,56,1625853038.0,32.000000
-7,14,56,1625853038.0,32.000000
-6,12,64,1625853038.0,32.000000
-5,11,66,1625853038.0,32.000000
-9,9,62,1625853038.0,32.000000
-8,8,64,1625853038.0,32.000000
-9,10,63,1625853038.0,32.000000
-12,10,62,1625853038.0,32.000000
-11,12,61,1625853038.0,32.000000
-11,11,61,1625853038.0,32.000000
-11,10,64,1625853038.0,32.000000
-13,9,62,1625853038.0,32.000000
-12,9,61,1625853038.0,32.000000
-11,9,62,1625853038.0,32.000000
-9,9,62,1625853038.0,32.000000
-9,8,62,1625853038.0,32.000000
-9,9,62,1625853038.0,32.000000
-9,9,62,1625853038.0,32.000000
-10,9,62,1625853038.0,32.000000
-10,10,62,1625853038.0,32.000000
-11,10,61,1625853038.0,32.000000
-12,10,60,1625853038.0,32.000000
-12,9,62,1625853038.0,32.000000
-13,9,62,1625853038.0,32.000000
-13,9,61,1625853038.0,32.000000
-11,9,62,1625853038.0,32.000000
-10,9,61,1625853038.0,32.000000
-9,8,62,1625853038.0,32.000000
-10,8,63,1625853038.0,32.000000
-10,9,61,1625853038.0,32.000000
-9,9,62,1625853038.0,32.000000
-9,9,62,1625853038.0,32.000000
-9,8,62,1625853038.0,32.000000
-10,9,62,1625853038.0,32.000000
-10,9,62,1625853038.0,32.000000
-9,8,62,1625853038.0,32.000000
-9,8,62,1625853038.0,32.000000
-10,8,62,1625853038.0,32.000000
-10,8,62,1625853038.0,32.000000
-10,8,62,1625853038.0,32.000000
-10,9,61,1625853038.0,32.000000
-9,9,62,1625853038.0,32.000000
-10,9,62,1625853038.0,32.000000
-11,9,62,1625853038.0,32.000000
-11,8,62,1625853038.0,32.000000
-10,9,62,1625853038.0,32.000000
-10,10,62,1625853038.0,32.000000
-10,10,61,1625853038.0,32.000000
-10,8,61,1625853038.0,32.000000
-11,10,60,1625853038.0,32.000000
-12,10,61,1625853038.0,32.000000
-12,9,61,1625853038.0,32.000000
-12,9,62,1625853038.0,32.000000
-12,9,62,1625853038.0,32.000000
-12,9,62,1625853038.0,32.000000
-14,9,62,1625853038.0,32.000000
-19,9,60,1625853038.0,32.000000
-11,10,62,1625853038.0,32.000000
-3,9,65,1625853038.0,32.000000
-4,8,62,1625853038.0,32.000000
-8,7,60,1625853038.0,32.000000
-10,7,60,1625853038.0,32.000000
-9,8,63,1625853038.0,32.000000
-9,8,63,1625853038.0,32.000000
-10,8,58,1625853038.0,32.000000
-8,10,63,1625853038.0,32.000000
-9,11,65,1625853038.0,32.000000
-10,11,63,1625853038.0,32.000000
-12,10,62,1625853038.0,32.000000
-15,8,63,1625853038.0,32.000000
-13,11,61,1625853038.0,32.000000
-15,12,60,1625853038.0,32.000000
-16,11,61,1625853038.0,32.000000
-16,11,60,1625853038.0,32.000000
-15,13,59,1625853038.0,32.000000
-14,14,60,1625853038.0,32.000000
-15,14,60,1625853038.0,32.000000
-15,15,59,1625853038.0,32.000000
-17,15,59,1625853038.0,32.000000
-18,14,59,1625853038.0,32.000000
-19,14,59,1625853038.0,32.000000
-19,14,59,1625853038.0,32.000000
-19,16,58,1625853038.0,32.000000
-18,15,58,1625853038.0,32.000000
-18,16,58,1625853038.0,32.000000
-18,16,58,1625853038.0,32.000000
-18,16,58,1625853038.0,32.000000
-18,16,58,1625853038.0,32.000000
-18,16,58,1625853038.0,32.000000
-19,16,58,1625853038.0,32.000000
-19,16,58,1625853038.0,32.000000
-19,16,57,1625853038.0,32.000000
-19,16,58,1625853038.0,32.000000
-19,16,57,1625853038.0,32.000000
-19,17,58,1625853038.0,32.000000
-19,16,58,1625853038.0,32.000000
-19,16,58,1625853038.0,32.000000
-19,16,58,1625853038.0,32.000000
-19,16,59,1625853038.0,32.000000
-19,16,58,1625853038.0,32.000000
-19,16,58,1625853038.0,32.000000
-20,16,58,1625853038.0,32.000000
-20,16,58,1625853038.0,32.000000
-19,15,59,1625853038.0,32.000000
-19,16,58,1625853038.0,32.000000
-19,15,59,1625853038.0,32.000000
-19,16,59,1625853038.0,32.000000
-18,16,59,1625853038.0,32.000000
-19,16,58,1625853038.0,32.000000
-19,16,59,1625853038.0,32.000000
-19,16,58,1625853038.0,32.000000
-19,15,58,1625853038.0,32.000000
-19,16,58,1625853038.0,32.000000
-19,16,58,1625853038.0,32.000000
-19,16,58,1625853038.0,32.000000
-19,16,58,1625853038.0,32.000000
-19,16,59,1625853038.0,32.000000
-20,15,61,1625853038.0,32.000000
-25,17,60,1625853038.0,32.000000
-20,20,57,1625853038.0,32.000000
-14,20,56,1625853038.0,32.000000
-14,15,58,1625853038.0,32.000000
-13,14,57,1625853038.0,32.000000
-15,14,56,1625853038.0,32.000000
-15,16,58,1625853038.0,32.000000
-14,18,61,1625853038.0,32.000000
-14,19,60,1625853038.0,32.000000
-17,18,58,1625853038.0,32.000000
-17,17,59,1625853038.0,32.000000
-18,17,56,1625853038.0,32.000000
-19,17,57,1625853038.0,32.000000
-18,17,57,1625853038.0,32.000000
-17,17,58,1625853038.0,32.000000
-16,17,58,1625853038.0,32.000000
-15,15,54,1625853038.0,32.000000
-14,15,60,1625853038.0,32.000000
-14,16,63,1625853038.0,32.000000
-18,21,60,1625853038.0,32.000000
-16,20,61,1625853038.0,32.000000
-21,18,59,1625853038.0,32.000000
-22,17,56,1625853038.0,32.000000
-22,17,57,1625853038.0,32.000000
-20,17,58,1625853038.0,32.000000
-19,17,57,1625853038.0,32.000000
-18,17,58,1625853038.0,32.000000
-20,17,57,1625853038.0,32.000000
-20,17,58,1625853038.0,32.000000
-20,17,58,1625853038.0,32.000000
-20,17,58,1625853038.0,32.000000
-20,17,58,1625853038.0,32.000000
-20,17,58,1625853038.0,32.000000
-20,17,58,1625853038.0,32.000000
-20,17,57,1625853038.0,32.000000
-20,17,58,1625853038.0,32.000000
-20,17,57,1625853038.0,32.000000
-20,17,57,1625853038.0,32.000000
-20,17,58,1625853038.0,32.000000
-20,17,58,1625853038.0,32.000000
-19,17,58,1625853038.0,32.000000
-20,17,58,1625853038.0,32.000000
-19,17,57,1625853038.0,32.000000
-19,17,57,1625853038.0,32.000000
-20,17,58,1625853038.0,32.000000
-21,17,57,1625853038.0,32.000000
-22,17,56,1625853038.0,32.000000
-21,17,56,1625853038.0,32.000000
-20,17,58,1625853038.0,32.000000
-19,17,58,1625853038.0,32.000000
-16,17,59,1625853038.0,32.000000
-16,17,60,1625853038.0,32.000000
-22,17,56,1625853038.0,32.000000
-23,16,56,1625853038.0,32.000000
-24,17,56,1625853038.0,32.000000
-22,17,57,1625853038.0,32.000000
-21,16,58,1625853038.0,32.000000
-20,17,58,1625853038.0,32.000000
-19,16,59,1625853038.0,32.000000
-18,16,58,1625853038.0,32.000000
-21,16,58,1625853038.0,32.000000
-27,18,57,1625853038.0,32.000000
-25,19,58,1625853038.0,32.000000
-18,19,63,1625853038.0,32.000000
-15,17,59,1625853038.0,32.000000
-16,14,55,1625853038.0,32.000000
-19,13,55,1625853038.0,32.000000
-18,14,56,1625853038.0,32.000000
-18,17,57,1625853038.0,32.000000
-20,18,56,1625853038.0,32.000000
-20,17,56,1625853038.0,32.000000
-19,16,59,1625853038.0,32.000000
-17,16,61,1625853038.0,32.000000
-16,16,62,1625853038.0,32.000000
-21,15,58,1625853038.0,32.000000
-23,16,58,1625853038.0,32.000000
-22,17,57,1625853038.0,32.000000
-22,17,57,1625853038.0,32.000000
-23,17,57,1625853038.0,32.000000
-24,17,56,1625853038.0,32.000000
-24,16,56,1625853038.0,32.000000
-22,16,57,1625853038.0,32.000000
-22,16,57,1625853038.0,32.000000
-23,17,56,1625853038.0,32.000000
-23,16,56,1625853038.0,32.000000
-20,17,57,1625853038.0,32.000000
-23,17,57,1625853038.0,32.000000
-25,17,55,1625853038.0,32.000000
-23,16,57,1625853038.0,32.000000
-22,17,57,1625853038.0,32.000000
-23,16,56,1625853038.0,32.000000
-24,16,56,1625853038.0,32.000000
-22,16,57,1625853038.0,32.000000
-23,16,57,1625853038.0,32.000000
-22,17,56,1625853038.0,32.000000
-24,17,56,1625853038.0,32.000000
-24,16,56,1625853038.0,32.000000
-23,17,57,1625853038.0,32.000000
-23,16,57,1625853038.0,32.000000
-24,16,56,1625853038.0,32.000000
-23,16,56,1625853038.0,32.000000
-23,17,57,1625853038.0,32.000000
-23,16,56,1625853038.0,32.000000
-23,17,56,1625853038.0,32.000000
-22,16,56,1625853038.0,32.000000
-23,17,56,1625853038.0,32.000000
-23,17,57,1625853038.0,32.000000
-22,16,57,1625853038.0,32.000000
-23,16,56,1625853038.0,32.000000
-23,17,56,1625853038.0,32.000000
-22,16,57,1625853038.0,32.000000
-22,16,57,1625853038.0,32.000000
-22,16,57,1625853038.0,32.000000
-22,16,57,1625853038.0,32.000000
-22,16,56,1625853038.0,32.000000
-21,17,58,1625853038.0,32.000000
-21,16,57,1625853038.0,32.000000
-21,16,57,1625853038.0,32.000000
-21,16,57,1625853038.0,32.000000
-21,16,58,1625853038.0,32.000000
-22,16,57,1625853038.0,32.000000
-23,16,56,1625853038.0,32.000000
-22,17,60,1625853038.0,32.000000
-17,18,63,1625853038.0,32.000000
-19,18,59,1625853038.0,32.000000
-18,14,56,1625853038.0,32.000000
-17,13,58,1625853038.0,32.000000
-17,14,59,1625853038.0,32.000000
-16,17,58,1625853038.0,32.000000
-16,17,56,1625853038.0,32.000000
-15,15,56,1625853038.0,32.000000
-15,15,58,1625853038.0,32.000000
-15,15,56,1625853038.0,32.000000
-18,14,54,1625853038.0,32.000000
-16,13,60,1625853038.0,32.000000
-20,19,65,1625853038.0,32.000000
-15,16,61,1625853038.0,32.000000
-16,15,61,1625853038.0,32.000000
-18,14,59,1625853038.0,32.000000
-17,14,59,1625853038.0,32.000000
-16,15,60,1625853038.0,32.000000
-17,15,58,1625853038.0,32.000000
-17,15,59,1625853038.0,32.000000
-17,15,59,1625853038.0,32.000000
-17,15,58,1625853038.0,32.000000
-17,15,58,1625853038.0,32.000000
-17,14,58,1625853038.0,32.000000
-16,14,59,1625853038.0,32.000000
-18,14,58,1625853038.0,32.000000
-17,13,59,1625853038.0,32.000000
-17,13,59,1625853038.0,32.000000
-13,12,60,1625853038.0,32.000000
-13,11,60,1625853038.0,32.000000
-11,10,61,1625853038.0,32.000000
-10,8,62,1625853038.0,32.000000
-4,10,72,1625853038.0,32.000000
-14,9,60,1625853038.0,32.000000
-13,7,62,1625853038.0,32.000000
-12,5,62,1625853038.0,32.000000
-16,5,59,1625853038.0,32.000000
-16,4,64,1625853038.0,32.000000
-13,3,61,1625853038.0,32.000000
-15,4,62,1625853038.0,32.000000
-15,-4,58,1625853038.0,32.000000
-13,-2,64,1625853038.0,32.000000
-23,2,62,1625853038.0,32.000000
-13,0,62,1625853038.0,32.000000
-15,2,60,1625853038.0,32.000000
-18,0,61,1625853038.0,32.000000
-19,-1,61,1625853038.0,32.000000
-18,-2,60,1625853038.0,32.000000
-15,-1,61,1625853038.0,32.000000
-18,-2,60,1625853038.0,32.000000
-16,-1,61,1625853038.0,32.000000
-18,-2,61,1625853038.0,32.000000
-18,-2,61,1625853038.0,32.000000
-16,-2,61,1625853038.0,32.000000
-16,-3,61,1625853038.0,32.000000
-14,-3,61,1625853038.0,32.000000
-19,-3,60,1625853038.0,32.000000
-16,-4,62,1625853038.0,32.000000
-14,-4,63,1625853038.0,32.000000
-15,-4,62,1625853038.0,32.000000
-13,-6,62,1625853038.0,32.000000
-9,-8,61,1625853038.0,32.000000
-13,-10,52,1625853038.0,32.000000
-11,-11,51,1625853038.0,32.000000
-14,-12,62,1625853038.0,32.000000
-7,-7,62,1625853038.0,32.000000
-6,-6,63,1625853038.0,32.000000
-8,-7,63,1625853038.0,32.000000
-4,-9,64,1625853038.0,32.000000
-13,-11,61,1625853038.0,32.000000
-15,-10,60,1625853038.0,32.000000
-11,-12,61,1625853038.0,32.000000
-9,-11,62,1625853038.0,32.000000
-10,-13,60,1625853038.0,32.000000
-10,-12,61,1625853038.0,32.000000
-16,-10,62,1625853038.0,32.000000
-17,-10,60,1625853038.0,32.000000
-14,-11,61,1625853038.0,32.000000
-14,-12,60,1625853038.0,32.000000
-15,-12,59,1625853038.0,32.000000
-14,-13,60,1625853038.0,32.000000
-12,-12,60,1625853038.0,32.000000
-13,-13,59,1625853038.0,32.000000
-13,-13,62,1625853038.0,32.000000
-10,-12,61,1625853038.0,32.000000
-10,-13,61,1625853038.0,32.000000
-11,-13,61,1625853038.0,32.000000
-11,-12,61,1625853038.0,32.000000
-13,-11,61,1625853038.0,32.000000
-14,-11,61,1625853038.0,32.000000
-13,-12,61,1625853038.0,32.000000
-12,-12,61,1625853038.0,32.000000
-12,-12,61,1625853038.0,32.000000
-11,-12,61,1625853038.0,32.000000
-11,-12,61,1625853038.0,32.000000
-12,-12,61,1625853038.0,32.000000
-12,-12,61,1625853038.0,32.000000
-13,-12,61,1625853038.0,32.000000
-11,-12,61,1625853038.0,32.000000
-11,-12,61,1625853038.0,32.000000
-12,-12,61,1625853038.0,32.000000
-11,-12,61,1625853038.0,32.000000
-12,-12,61,1625853038.0,32.000000
-12,-12,61,1625853038.0,32.000000
-12,-12,61,1625853038.0,32.000000
-12,-12,61,1625853038.0,32.000000
-12,-12,61,1625853038.0,32.000000
-11,-12,61,1625853038.0,32.000000
-11,-12,61,1625853038.0,32.000000
-12,-12,61,1625853038.0,32.000000
-11,-12,61,1625853038.0,32.000000
-11,-12,61,1625853038.0,32.000000
-12,-12,61,1625853038.0,32.000000
-11,-12,61,1625853038.0,32.000000
-12,-12,61,1625853038.0,32.000000
-12,-12,61,1625853038.0,32.000000
-11,-12,61,1625853038.0,32.000000
-13,-11,62,1625853038.0,32.000000
-11,-10,62,1625853038.0,32.000000
-7,-13,64,1625853038.0,32.000000
-11,-14,60,1625853038.0,32.000000
-16,-14,57,1625853038.0,32.000000
-9,-16,60,1625853038.0,32.000000
-11,-16,59,1625853038.0,32.000000
-10,-15,60,1625853038.0,32.000000
-12,-15,60,1625853038.0,32.000000
-10,-15,60,1625853038.0,32.000000
-12,-15,59,1625853038.0,32.000000
-13,-14,60,1625853038.0,32.000000
-10,-12,62,1625853038.0,32.000000
-10,-13,61,1625853038.0,32.000000
-10,-13,61,1625853038.0,32.000000
-12,-13,61,1625853038.0,32.000000
-11,-13,61,1625853038.0,32.000000
-11,-13,61,1625853038.0,32.000000
-11,-13,61,1625853038.0,32.000000
-11,-13,61,1625853038.0,32.000000
-11,-13,61,1625853038.0,32.000000
-11,-13,61,1625853038.0,32.000000
-12,-12,61,1625853038.0,32.000000
-11,-12,61,1625853038.0,32.000000
-12,-12,61,1625853038.0,32.000000
-11,-12,61,1625853038.0,32.000000
-12,-12,61,1625853038.0,32.000000
-12,-12,61,1625853038.0,32.000000
-12,-12,61,1625853038.0,32.000000
-12,-12,61,1625853038.0,32.000000
-12,-12,61,1625853038.0,32.000000
-12,-12,61,1625853038.0,32.000000
-12,-12,61,1625853038.0,32.000000
-12,-12,61,1625853038.0,32.000000
-12,-12,61,1625853038.0,32.000000
-12,-12,61,1625853038.0,32.000000
-12,-12,61,1625853038.0,32.000000
-12,-12,61,1625853038.0,32.000000
-12,-12,61,1625853038.0,32.000000
-12,-12,61,1625853038.0,32.000000
-12,-12,61,1625853038.0,32.000000
-12,-12,61,1625853038.0,32.000000
-12,-12,61,1625853038.0,32.000000
-12,-12,61,1625853038.0,32.000000
-12,-12,61,1625853038.0,32.000000
-12,-12,61,1625853038.0,32.000000
-12,-12,61,1625853038.0,32.000000
-12,-12,61,1625853038.0,32.000000
-12,-12,61,1625853038.0,32.000000
-12,-12,61,1625853038.0,32.000000
-12,-12,61,1625853038.0,32.000000
-12,-12,61,1625853038.0,32.000000
-12,-12,61,1625853038.0,32.000000
-12,-12,61,1625853038.0,32.000000
-12,-12,61,1625853038.0,32.000000
-12,-12,61,1625853038.0,32.000000
-12,-12,61,1625853038.0,32.000000
-12,-12,61,1625853038.0,32.000000
-12,-12,61,1625853038.0,32.000000
-12,-12,61,1625853038.0,32.000000
-12,-11,61,1625853038.0,32.000000
-13,-10,62,1625853038.0,32.000000
-12,-11,62,1625853038.0,32.000000
-11,-12,60,1625853038.0,32.000000
-16,-15,58,1625853038.0,32.000000
-13,-15,59,1625853038.0,32.000000
-14,-14,59,1625853038.0,32.000000
-13,-14,60,1625853038.0,32.000000
-13,-13,61,1625853038.0,32.000000
-13,-11,62,1625853038.0,32.000000
-8,-12,62,1625853038.0,32.000000
-14,-12,60,1625853038.0,32.000000
-13,-12,61,1625853038.0,32.000000
-14,-12,60,1625853038.0,32.000000
-12,-12,61,1625853038.0,32.000000
-13,-12,61,1625853038.0,32.000000
-13,-12,61,1625853038.0,32.000000
-13,-12,61,1625853038.0,32.000000
-13,-12,61,1625853038.0,32.000000
-13,-12,61,1625853038.0,32.000000
-13,-12,61,1625853038.0,32.000000
-12,-12,61,1625853038.0,32.000000
-13,-12,61,1625853038.0,32.000000
-13,-12,60,1625853038.0,32.000000
-13,-12,61,1625853038.0,32.000000
-13,-12,61,1625853038.0,32.000000
-13,-12,61,1625853038.0,32.000000
-13,-12,61,1625853038.0,32.000000
-13,-12,61,1625853038.0,32.000000
-13,-12,60,1625853038.0,32.000000
-13,-12,61,1625853038.0,32.000000
-13,-12,61,1625853038.0,32.000000
-13,-12,61,1625853038.0,32.000000
-13,-12,61,1625853038.0,32.000000
-12,-12,61,1625853038.0,32.000000
-13,-13,60,1625853038.0,32.000000
-14,-11,61,1625853038.0,32.000000
-12,-12,61,1625853038.0,32.000000
-13,-12,61,1625853038.0,32.000000
-13,-12,61,1625853038.0,32.000000
-13,-12,61,1625853038.0,32.000000
-13,-12,61,1625853038.0,32.000000
-13,-12,61,1625853038.0,32.000000
-13,-12,61,1625853038.0,32.000000
-13,-12,61,1625853038.0,32.000000
-13,-12,61,1625853038.0,32.000000
-13,-12,61,1625853038.0,32.000000
-13,-12,61,1625853038.0,32.000000
-13,-12,61,1625853038.0,32.000000
-13,-12,61,1625853038.0,32.000000
-13,-12,61,1625853038.0,32.000000
-13,-12,61,1625853038.0,32.000000
-13,-12,61,1625853038.0,32.000000
-13,-12,61,1625853038.0,32.000000
-13,-12,61,1625853038.0,32.000000
-13,-12,61,1625853038.0,32.000000
-13,-12,61,1625853038.0,32.000000
-13,-12,61,1625853038.0,32.000000
-13,-12,61,1625853038.0,32.000000
-13,-12,61,1625853038.0,32.000000
-13,-12,61,1625853038.0,32.000000
-14,-10,62,1625853038.0,32.000000
-16,-11,61,1625853038.0,32.000000
-10,-13,60,1625853038.0,32.000000
-9,-16,60,1625853038.0,32.000000
-9,-15,60,1625853038.0,32.000000
-8,-15,61,1625853038.0,32.000000
-8,-15,61,1625853038.0,32.000000
-6,-13,62,1625853038.0,32.000000
-8,-13,62,1625853038.0,32.000000
-10,-12,62,1625853038.0,32.000000
-9,-14,61,1625853038.0,32.000000
-10,-14,61,1625853038.0,32.000000
-11,-14,60,1625853038.0,32.000000
-9,-14,61,1625853038.0,32.000000
-11,-12,61,1625853038.0,32.000000
-10,-13,62,1625853038.0,32.000000
-9,-13,61,1625853038.0,32.000000
-10,-13,61,1625853038.0,32.000000
-10,-13,61,1625853038.0,32.000000
-9,-13,61,1625853038.0,32.000000
-10,-13,61,1625853038.0,32.000000
-10,-13,61,1625853038.0,32.000000
-10,-13,61,1625853038.0,32.000000
-10,-13,61,1625853038.0,32.000000
-10,-13,61,1625853038.0,32.000000
-10,-13,61,1625853038.0,32.000000
-10,-13,61,1625853038.0,32.000000
-10,-13,61,1625853038.0,32.000000
-11,-13,61,1625853038.0,32.000000
-11,-12,61,1625853038.0,32.000000
-11,-12,61,1625853038.0,32.000000
-11,-12,61,1625853038.0,32.000000
-11,-13,61,1625853038.0,32.000000
-11,-12,61,1625853038.0,32.000000
-11,-13,61,1625853038.0,32.000000
-11,-13,61,1625853038.0,32.000000
-11,-12,61,1625853038.0,32.000000
-11,-12,61,1625853038.0,32.000000
-10,-12,61,1625853038.0,32.000000
-11,-12,61,1625853038.0,32.000000
-11,-12,61,1625853038.0,32.000000
-11,-12,61,1625853038.0,32.000000
-11,-12,61,1625853038.0,32.000000
-11,-13,61,1625853038.0,32.000000
-11,-12,61,1625853038.0,32.000000
-11,-12,61,1625853038.0,32.000000
-11,-12,61,1625853038.0,32.000000
-11,-13,61,1625853038.0,32.000000
-11,-13,61,1625853038.0,32.000000
-11,-12,61,1625853038.0,32.000000
-11,-12,61,1625853038.0,32.000000
-11,-12,61,1625853038.0,32.000000
-11,-12,61,1625853038.0,32.000000
-11,-12,61,1625853038.0,32.000000
-11,-13,61,1625853038.0,32.000000
-11,-13,61,1625853038.0,32.000000
-11,-12,61,1625853038.0,32.000000
-11,-12,61,1625853038.0,32.000000
-12,-12,62,1625853038.0,32.000000
-12,-11,62,1625853038.0,32.000000
-13,-11,62,1625853038.0,32.000000
-7,-16,61,1625853038.0,32.000000
-7,-18,59,1625853038.0,32.000000
-13,-18,57,1625853038.0,32.000000
-11,-17,59,1625853038.0,32.000000
-10,-15,60,1625853038.0,32.000000
-9,-14,61,1625853038.0,32.000000
-10,-13,61,1625853038.0,32.000000
-8,-13,62,1625853038.0,32.000000
-8,-13,62,1625853038.0,32.000000
-11,-14,61,1625853038.0,32.000000
-12,-13,60,1625853038.0,32.000000
-13,-13,60,1625853038.0,32.000000
-12,-13,61,1625853038.0,32.000000
-12,-13,61,1625853038.0,32.000000
-13,-12,61,1625853038.0,32.000000
-13,-12,61,1625853038.0,32.000000
-12,-13,61,1625853038.0,32.000000
-12,-13,61,1625853038.0,32.000000
-12,-13,61,1625853038.0,32.000000
-12,-12,61,1625853038.0,32.000000
-13,-12,61,1625853038.0,32.000000
-12,-12,61,1625853038.0,32.000000
-12,-12,61,1625853038.0,32.000000
-12,-12,61,1625853038.0,32.000000
-12,-13,61,1625853038.0,32.000000
-13,-12,61,1625853038.0,32.000000
-13,-12,61,1625853038.0,32.000000
-13,-12,60,1625853038.0,32.000000
-13,-12,61,1625853038.0,32.000000
-13,-12,61,1625853038.0,32.000000
-13,-12,61,1625853038.0,32.000000
-13,-12,61,1625853038.0,32.000000
-13,-12,61,1625853038.0,32.000000
-13,-12,61,1625853038.0,32.000000
-13,-12,61,1625853038.0,32.000000
-13,-12,61,1625853038.0,32.000000
-14,-12,61,1625853038.0,32.000000
-13,-12,61,1625853038.0,32.000000
-13,-12,61,1625853038.0,32.000000
-13,-12,61,1625853038.0,32.000000
-13,-12,61,1625853038.0,32.000000
-13,-12,61,1625853038.0,32.000000
-13,-12,61,1625853038.0,32.000000
-13,-12,61,1625853038.0,32.000000
-13,-12,61,1625853038.0,32.000000
-13,-12,61,1625853038.0,32.000000
-13,-12,61,1625853038.0,32.000000
-13,-12,61,1625853038.0,32.000000
-13,-12,60,1625853038.0,32.000000
-13,-12,61,1625853038.0,32.000000
-13,-12,61,1625853038.0,32.000000
-13,-12,61,1625853038.0,32.000000
-13,-12,61,1625853038.0,32.000000
-13,-12,61,1625853038.0,32.000000
-13,-12,61,1625853038.0,32.000000
-13,-12,61,1625853038.0,32.000000
-13,-12,61,1625853038.0,32.000000
-13,-12,61,1625853038.0,32.000000
-13,-12,61,1625853038.0,32.000000
-13,-12,61,1625853038.0,32.000000
-13,-12,61,1625853038.0,32.000000
-13,-12,61,1625853038.0,32.000000
-13,-12,61,1625853038.0,32.000000
-13,-12,61,1625853038.0,32.000000
-13,-12,61,1625853038.0,32.000000
-13,-11,61,1625853038.0,32.000000
-10,-11,62,1625853038.0,32.000000
-14,-13,60,1625853038.0,32.000000
-14,-14,60,1625853038.0,32.000000
-14,-14,59,1625853038.0,32.000000
-15,-14,59,1625853038.0,32.000000
-13,-13,60,1625853038.0,32.000000
-14,-13,60,1625853038.0,32.000000
-14,-12,61,1625853038.0,32.000000
-14,-13,60,1625853038.0,32.000000
-14,-13,60,1625853038.0,32.000000
-14,-12,60,1625853038.0,32.000000
-14,-12,61,1625853038.0,32.000000
-13,-12,61,1625853038.0,32.000000
-14,-12,60,1625853038.0,32.000000
-14,-12,61,1625853038.0,32.000000
-14,-12,60,1625853038.0,32.000000
-14,-12,61,1625853038.0,32.000000
-14,-12,61,1625853038.0,32.000000
-14,-12,61,1625853038.0,32.000000
-14,-12,60,1625853038.0,32.000000
-13,-12,61,1625853038.0,32.000000
-14,-12,60,1625853038.0,32.000000
-14,-12,61,1625853038.0,32.000000
-14,-12,61,1625853038.0,32.000000
-14,-12,60,1625853038.0,32.000000
-14,-12,60,1625853038.0,32.000000
-14,-12,61,1625853038.0,32.000000
-14,-12,61,1625853038.0,32.000000
-14,-12,61,1625853038.0,32.000000
-14,-12,60,1625853038.0,32.000000
-14,-12,60,1625853038.0,32.000000
-14,-12,61,1625853038.0,32.000000
-14,-12,61,1625853038.0,32.000000
-14,-12,61,1625853038.0,32.000000
-14,-12,60,1625853038.0,32.000000
-14,-12,60,1625853038.0,32.000000
-14,-12,61,1625853038.0,32.000000
-14,-12,61,1625853038.0,32.000000
-14,-12,61,1625853038.0,32.000000
-14,-12,60,1625853038.0,32.000000
-14,-12,60,1625853038.0,32.000000
-14,-12,61,1625853038.0,32.000000
-14,-12,60,1625853038.0,32.000000
-14,-12,60,1625853038.0,32.000000
-14,-12,60,1625853038.0,32.000000
-14,-12,61,1625853038.0,32.000000
-14,-12,60,1625853038.0,32.000000
-14,-12,60,1625853038.0,32.000000
-14,-12,60,1625853038.0,32.000000
-14,-12,60,1625853038.0,32.000000
-13,-12,61,1625853038.0,32.000000
-13,-12,60,1625853038.0,32.000000
-14,-12,60,1625853038.0,32.000000
-14,-12,61,1625853038.0,32.000000
-14,-12,61,1625853038.0,32.000000
-14,-12,61,1625853038.0,32.000000
-16,-11,61,1625853038.0,32.000000
-12,-9,64,1625853038.0,32.000000
-11,-15,60,1625853038.0,32.000000
-14,-18,56,1625853038.0,32.000000
-12,-18,56,1625853038.0,32.000000
-10,-18,58,1625853038.0,32.000000
-12,-19,58,1625853038.0,32.000000
-10,-14,62,1625853038.0,32.000000
-7,-13,62,1625853038.0,32.000000
-9,-14,62,1625853038.0,32.000000
-8,-14,62,1625853038.0,32.000000
-9,-15,61,1625853038.0,32.000000
-8,-14,61,1625853038.0,32.000000
-9,-14,61,1625853038.0,32.000000
-9,-14,61,1625853038.0,32.000000
-9,-14,61,1625853038.0,32.000000
-10,-14,61,1625853038.0,32.000000
-9,-14,61,1625853038.0,32.000000
-10,-14,61,1625853038.0,32.000000
-9,-14,61,1625853038.0,32.000000
-10,-14,61,1625853038.0,32.000000
-10,-14,61,1625853038.0,32.000000
-9,-13,61,1625853038.0,32.000000
-9,-13,61,1625853038.0,32.000000
-9,-13,61,1625853038.0,32.000000
-10,-14,61,1625853038.0,32.000000
-10,-14,61,1625853038.0,32.000000
-10,-13,61,1625853038.0,32.000000
-10,-14,61,1625853038.0,32.000000
-10,-13,61,1625853038.0,32.000000
-10,-14,61,1625853038.0,32.000000
-10,-14,61,1625853038.0,32.000000
-10,-13,61,1625853038.0,32.000000
-10,-14,61,1625853038.0,32.000000
-10,-14,61,1625853038.0,32.000000
-10,-14,61,1625853038.0,32.000000
-10,-14,61,1625853038.0,32.000000
-11,-14,61,1625853038.0,32.000000
-10,-14,61,1625853038.0,32.000000
-10,-14,61,1625853038.0,32.000000
-10,-14,61,1625853038.0,32.000000
-10,-14,61,1625853038.0,32.000000
-10,-14,60,1625853038.0,32.000000
-10,-13,61,1625853038.0,32.000000
-10,-14,61,1625853038.0,32.000000
-10,-14,61,1625853038.0,32.000000
-11,-14,61,1625853038.0,32.000000
-10,-14,61,1625853038.0,32.000000
-10,-14,61,1625853038.0,32.000000
-10,-14,61,1625853038.0,32.000000
-10,-14,61,1625853038.0,32.000000
-10,-14,61,1625853038.0,32.000000
-10,-14,61,1625853038.0,32.000000
-11,-14,61,1625853038.0,32.000000
-10,-14,61,1625853038.0,32.000000
-10,-14,61,1625853038.0,32.000000
-10,-14,61,1625853038.0,32.000000
-10,-14,61,1625853038.0,32.000000
-10,-14,61,1625853038.0,32.000000
-11,-14,61,1625853038.0,32.000000
-10,-13,61,1625853038.0,32.000000
-10,-14,61,1625853038.0,32.000000
-11,-14,61,1625853038.0,32.000000
-11,-14,61,1625853038.0,32.000000
-11,-14,61,1625853038.0,32.000000
-10,-13,61,1625853038.0,32.000000
-11,-14,61,1625853038.0,32.000000
-11,-14,61,1625853038.0,32.000000
-11,-13,61,1625853038.0,32.000000
-10,-14,61,1625853038.0,32.000000
-10,-13,61,1625853038.0,32.000000
-11,-13,61,1625853038.0,32.000000
-11,-14,61,1625853038.0,32.000000
-11,-13,61,1625853038.0,32.000000
-11,-13,61,1625853038.0,32.000000
-11,-13,61,1625853038.0,32.000000
-11,-13,61,1625853038.0,32.000000
-11,-13,61,1625853038.0,32.000000
-11,-13,61,1625853038.0,32.000000
-11,-13,61,1625853038.0,32.000000
-11,-13,61,1625853038.0,32.000000
-11,-13,61,1625853038.0,32.000000
-11,-13,61,1625853038.0,32.000000
-11,-13,61,1625853038.0,32.000000
-11,-13,61,1625853038.0,32.000000
-11,-13,61,1625853038.0,32.000000
-11,-13,61,1625853038.0,32.000000
-12,-13,61,1625853038.0,32.000000
-12,-13,61,1625853038.0,32.000000
-12,-12,61,1625853038.0,32.000000
-11,-13,61,1625853038.0,32.000000
-12,-13,61,1625853038.0,32.000000
-13,-12,61,1625853038.0,32.000000
-12,-12,61,1625853038.0,32.000000
-13,-12,61,1625853038.0,32.000000
-14,-13,60,1625853038.0,32.000000
-13,-12,60,1625853038.0,32.000000
-13,-12,61,1625853038.0,32.000000
-13,-13,61,1625853038.0,32.000000
-13,-12,61,1625853038.0,32.000000
-13,-12,61,1625853038.0,32.000000
-13,-12,61,1625853038.0,32.000000
-14,-11,61,1625853038.0,32.000000
-15,-12,61,1625853038.0,32.000000
-15,-12,60,1625853038.0,32.000000
-16,-12,59,1625853038.0,32.000000
-16,-12,60,1625853038.0,32.000000
-16,-11,60,1625853038.0,32.000000
-16,-12,60,1625853038.0,32.000000
-17,-11,60,1625853038.0,32.000000
-18,-11,59,1625853038.0,32.000000
-18,-11,59,1625853038.0,32.000000
-18,-11,60,1625853038.0,32.000000
-18,-11,60,1625853038.0,32.000000
-18,-11,59,1625853038.0,32.000000
-16,-11,60,1625853038.0,32.000000
-18,-11,60,1625853038.0,32.000000
-18,-11,59,1625853038.0,32.000000
-18,-11,59,1625853038.0,32.000000
-20,-10,59,1625853038.0,32.000000
-20,-10,59,1625853038.0,32.000000
-20,-10,59,1625853038.0,32.000000
-21,-9,59,1625853038.0,32.000000
-20,-9,59,1625853038.0,32.000000
-22,-8,59,1625853038.0,32.000000
-22,-9,59,1625853038.0,32.000000
-21,-9,59,1625853038.0,32.000000
-21,-8,59,1625853038.0,32.000000
-22,-8,58,1625853038.0,32.000000
-22,-8,59,1625853038.0,32.000000
-22,-8,59,1625853038.0,32.000000
-22,-7,59,1625853038.0,32.000000
-22,-7,59,1625853038.0,32.000000
-23,-8,58,1625853038.0,32.000000
-22,-7,59,1625853038.0,32.000000
-22,-7,59,1625853038.0,32.000000
-22,-7,59,1625853038.0,32.000000
-22,-6,59,1625853038.0,32.000000
-22,-5,59,1625853038.0,32.000000
-22,-5,59,1625853038.0,32.000000
-22,-5,59,1625853038.0,32.000000
-22,-5,59,1625853038.0,32.000000
-23,-5,58,1625853038.0,32.000000
-23,-4,58,1625853038.0,32.000000
-23,-4,58,1625853038.0,32.000000
-24,-3,59,1625853038.0,32.000000
-22,-2,59,1625853038.0,32.000000
-24,-2,58,1625853038.0,32.000000
-23,-2,59,1625853038.0,32.000000
-24,-2,58,1625853038.0,32.000000
-24,-1,59,1625853038.0,32.000000
-25,-1,59,1625853038.0,32.000000
-23,1,59,1625853038.0,32.000000
-26,0,59,1625853038.0,32.000000
-21,1,59,1625853038.0,32.000000
-21,1,60,1625853038.0,32.000000
-22,1,59,1625853038.0,32.000000
-20,2,59,1625853038.0,32.000000
-21,1,60,1625853038.0,32.000000
-21,1,60,1625853038.0,32.000000
-20,1,59,1625853038.0,32.000000
-20,2,61,1625853038.0,32.000000
-16,2,60,1625853038.0,32.000000
-21,2,61,1625853038.0,32.000000
-19,1,59,1625853038.0,32.000000
-17,1,60,1625853038.0,32.000000
-19,2,60,1625853038.0,32.000000
-18,2,61,1625853038.0,32.000000
-19,3,60,1625853038.0,32.000000
-17,2,60,1625853038.0,32.000000
-21,3,59,1625853038.0,32.000000
-21,3,60,1625853038.0,32.000000
-21,3,60,1625853038.0,32.000000
-21,2,59,1625853038.0,32.000000
-22,2,59,1625853038.0,32.000000
-22,2,59,1625853038.0,32.000000
-21,2,60,1625853038.0,32.000000
-22,2,59,1625853038.0,32.000000
-22,2,59,1625853038.0,32.000000
-21,2,59,1625853038.0,32.000000
-23,2,59,1625853038.0,32.000000
-21,3,59,1625853038.0,32.000000
-20,2,60,1625853038.0,32.000000
-21,3,59,1625853038.0,32.000000
-22,3,59,1625853038.0,32.000000
-22,3,59,1625853038.0,32.000000
-22,3,59,1625853038.0,32.000000
-22,3,59,1625853038.0,32.000000
-22,3,59,1625853038.0,32.000000
-22,3,59,1625853038.0,32.000000
-22,2,59,1625853038.0,32.000000
-22,3,59,1625853038.0,32.000000
-22,3,59,1625853038.0,32.000000
-22,3,59,1625853038.0,32.000000
-22,3,59,1625853038.0,32.000000
-22,3,59,1625853038.0,32.000000
-20,2,60,1625853038.0,32.000000
-20,3,60,1625853038.0,32.000000
-21,3,60,1625853038.0,32.000000
-20,2,60,1625853038.0,32.000000
-20,2,60,1625853038.0,32.000000
-20,3,60,1625853038.0,32.000000
-21,2,60,1625853038.0,32.000000
-23,2,59,1625853038.0,32.000000
-20,3,60,1625853038.0,32.000000
-21,2,60,1625853038.0,32.000000
-21,2,60,1625853038.0,32.000000
-21,2,60,1625853038.0,32.000000
-21,3,60,1625853038.0,32.000000
-21,3,60,1625853038.0,32.000000
-21,3,59,1625853038.0,32.000000
-20,3,60,1625853038.0,32.000000
-22,3,59,1625853038.0,32.000000
-21,3,60,1625853038.0,32.000000
-22,3,60,1625853038.0,32.000000
-20,3,60,1625853038.0,32.000000
-21,2,60,1625853038.0,32.000000
-23,3,59,1625853038.0,32.000000
-23,3,59,1625853038.0,32.000000
-22,3,59,1625853038.0,32.000000
-21,2,60,1625853038.0,32.000000
-21,2,60,1625853038.0,32.000000
-22,2,59,1625853038.0,32.000000
-22,3,59,1625853038.0,32.000000
-20,3,60,1625853038.0,32.000000
-21,3,60,1625853038.0,32.000000
-21,2,60,1625853038.0,32.000000
-22,2,59,1625853038.0,32.000000
-23,3,59,1625853038.0,32.000000
-22,3,59,1625853038.0,32.000000
-23,2,59,1625853038.0,32.000000
-23,2,59,1625853038.0,32.000000
-22,3,59,1625853038.0,32.000000
-22,3,59,1625853038.0,32.000000
-22,3,59,1625853038.0,32.000000
-23,3,59,1625853038.0,32.000000
-23,3,59,1625853038.0,32.000000
-22,3,60,1625853038.0,32.000000
-21,3,59,1625853038.0,32.000000
-20,2,60,1625853038.0,32.000000
-22,2,59,1625853038.0,32.000000
-22,2,59,1625853038.0,32.000000
-22,2,59,1625853038.0,32.000000
-24,3,58,1625853038.0,32.000000
-23,3,59,1625853038.0,32.000000
-21,3,60,1625853038.0,32.000000
-21,3,60,1625853038.0,32.000000
-24,3,58,1625853038.0,32.000000
-23,3,59,1625853038.0,32.000000
-24,3,58,1625853038.0,32.000000
-25,4,57,1625853038.0,32.000000
-26,4,58,1625853038.0,32.000000
-25,4,57,1625853038.0,32.000000
-27,5,57,1625853038.0,32.000000
-26,5,57,1625853038.0,32.000000
-26,6,56,1625853038.0,32.000000
-26,6,57,1625853038.0,32.000000
-26,7,57,1625853038.0,32.000000
-26,7,57,1625853038.0,32.000000
-26,7,57,1625853038.0,32.000000
-26,7,57,1625853038.0,32.000000
-27,7,56,1625853038.0,32.000000
-29,7,56,1625853038.0,32.000000
-28,8,56,1625853038.0,32.000000
-28,7,56,1625853038.0,32.000000
-27,8,56,1625853038.0,32.000000
-27,8,57,1625853038.0,32.000000
-26,7,57,1625853038.0,32.000000
-27,8,56,1625853038.0,32.000000
-26,7,57,1625853038.0,32.000000
-26,7,57,1625853038.0,32.000000
-27,7,57,1625853038.0,32.000000
-27,7,56,1625853038.0,32.000000
-27,7,56,1625853038.0,32.000000
-27,7,56,1625853038.0,32.000000
-26,7,57,1625853038.0,32.000000
-25,8,58,1625853038.0,32.000000
-25,7,58,1625853038.0,32.000000
-25,6,58,1625853038.0,32.000000
-27,6,57,1625853038.0,32.000000
-27,6,56,1625853038.0,32.000000
-26,6,57,1625853038.0,32.000000
-26,6,57,1625853038.0,32.000000
-27,6,57,1625853038.0,32.000000
-27,6,57,1625853038.0,32.000000
-26,6,57,1625853038.0,32.000000
-26,6,57,1625853038.0,32.000000
-26,6,57,1625853038.0,32.000000
-26,6,57,1625853038.0,32.000000
-25,6,57,1625853038.0,32.000000
-25,6,58,1625853038.0,32.000000
-25,6,58,1625853038.0,32.000000
-25,6,57,1625853038.0,32.000000
-26,6,57,1625853038.0,32.000000
-26,6,57,1625853038.0,32.000000
-26,6,57,1625853038.0,32.000000
-25,6,57,1625853038.0,32.000000
-26,6,57,1625853038.0,32.000000
-26,6,57,1625853038.0,32.000000
-26,6,58,1625853038.0,32.000000
-26,6,57,1625853038.0,32.000000
-26,6,57,1625853038.0,32.000000
-26,6,57,1625853038.0,32.000000
-26,6,57,1625853038.0,32.000000
-26,6,57,1625853038.0,32.000000
-26,6,57,1625853038.0,32.000000
-26,6,57,1625853038.0,32.000000
-26,6,57,1625853038.0,32.000000
-26,6,57,1625853038.0,32.000000
-25,6,57,1625853038.0,32.000000
-25,6,58,1625853038.0,32.000000
-25,6,57,1625853038.0,32.000000
-26,6,57,1625853038.0,32.000000
-26,6,57,1625853038.0,32.000000
-26,6,57,1625853038.0,32.000000
-26,5,58,1625853038.0,32.000000
-25,5,58,1625853038.0,32.000000
-25,5,58,1625853038.0,32.000000
-25,5,58,1625853038.0,32.000000
-25,6,58,1625853038.0,32.000000
-25,6,58,1625853038.0,32.000000
-26,5,57,1625853038.0,32.000000
-26,5,57,1625853038.0,32.000000
-25,5,57,1625853038.0,32.000000
-25,5,58,1625853038.0,32.000000
-26,5,57,1625853038.0,32.000000
-25,6,58,1625853038.0,32.000000
-26,5,58,1625853038.0,32.000000
-25,6,58,1625853038.0,32.000000
-25,5,58,1625853038.0,32.000000
-25,5,58,1625853038.0,32.000000
-25,5,58,1625853038.0,32.000000
-25,5,58,1625853038.0,32.000000
-25,5,57,1625853038.0,32.000000
-25,5,58,1625853038.0,32.000000
-25,5,58,1625853038.0,32.000000
-25,5,58,1625853038.0,32.000000
-25,5,58,1625853038.0,32.000000
-25,5,58,1625853038.0,32.000000
-25,5,58,1625853038.0,32.000000
-25,5,58,1625853038.0,32.000000
-25,5,58,1625853038.0,32.000000
-25,5,58,1625853038.0,32.000000
-25,5,57,1625853038.0,32.000000
-25,5,58,1625853038.0,32.000000
-25,5,58,1625853038.0,32.000000
-25,5,58,1625853038.0,32.000000
-25,5,58,1625853038.0,32.000000
-25,5,58,1625853038.0,32.000000
-25,5,58,1625853038.0,32.000000
-25,5,58,1625853038.0,32.000000
-25,5,58,1625853038.0,32.000000
-25,5,57,1625853038.0,32.000000
-25,6,57,1625853038.0,32.000000
-25,6,57,1625853038.0,32.000000
-25,6,57,1625853038.0,32.000000
-25,5,58,1625853038.0,32.000000
-26,5,58,1625853038.0,32.000000
-26,5,57,1625853038.0,32.000000
-25,5,58,1625853038.0,32.000000
-24,5,58,1625853038.0,32.000000
-24,5,58,1625853038.0,32.000000
-25,5,58,1625853038.0,32.000000
-25,5,58,1625853038.0,32.000000
-26,5,58,1625853038.0,32.000000
-25,5,58,1625853038.0,32.000000
-25,5,58,1625853038.0,32.000000
-25,5,57,1625853038.0,32.000000
-25,5,58,1625853038.0,32.000000
-25,5,58,1625853038.0,32.000000
-25,5,58,1625853038.0,32.000000
-25,5,58,1625853038.0,32.000000
-25,5,58,1625853038.0,32.000000
-25,5,58,1625853038.0,32.000000
-25,5,58,1625853038.0,32.000000
-25,5,57,1625853038.0,32.000000
-25,5,57,1625853038.0,32.000000
-26,5,58,1625853038.0,32.000000
-26,5,58,1625853038.0,32.000000
-25,5,58,1625853038.0,32.000000
-25,5,58,1625853038.0,32.000000
-25,5,58,1625853038.0,32.000000
-25,5,57,1625853038.0,32.000000
-25,5,58,1625853038.0,32.000000
-26,5,58,1625853038.0,32.000000
-25,5,58,1625853038.0,32.000000
-25,5,58,1625853038.0,32.000000
-25,5,58,1625853038.0,32.000000
-25,5,58,1625853038.0,32.000000
-25,5,58,1625853038.0,32.000000
-25,5,58,1625853038.0,32.000000
-25,5,58,1625853038.0,32.000000
-25,5,58,1625853038.0,32.000000
-25,5,58,1625853038.0,32.000000
-25,5,58,1625853038.0,32.000000
-25,5,57,1625853038.0,32.000000
-25,5,58,1625853038.0,32.000000
-25,5,58,1625853038.0,32.000000
-25,5,57,1625853038.0,32.000000
-25,5,58,1625853038.0,32.000000
-24,5,59,1625853038.0,32.000000
-24,4,59,1625853038.0,32.000000
-26,5,58,1625853038.0,32.000000
-24,5,58,1625853038.0,32.000000
-24,5,58,1625853038.0,32.000000
-25,5,58,1625853038.0,32.000000
-25,5,58,1625853038.0,32.000000
-25,6,58,1625853038.0,32.000000
-24,5,58,1625853038.0,32.000000
-25,4,58,1625853038.0,32.000000
-24,5,58,1625853038.0,32.000000
-26,6,57,1625853038.0,32.000000
-25,6,58,1625853038.0,32.000000
-25,6,57,1625853038.0,32.000000
-24,6,58,1625853038.0,32.000000
-24,5,59,1625853038.0,32.000000
-23,6,59,1625853038.0,32.000000
-22,7,58,1625853038.0,32.000000
-24,7,57,1625853038.0,32.000000
-26,5,57,1625853038.0,32.000000
-26,3,58,1625853038.0,32.000000
-29,4,57,1625853038.0,32.000000
-25,4,58,1625853038.0,32.000000
-24,5,58,1625853038.0,32.000000
-22,5,59,1625853038.0,32.000000
-22,4,59,1625853038.0,32.000000
-23,4,59,1625853038.0,32.000000
-25,4,58,1625853038.0,32.000000
-27,4,57,1625853038.0,32.000000
-26,5,57,1625853038.0,32.000000
-26,5,57,1625853038.0,32.000000
-25,4,58,1625853038.0,32.000000
-25,4,58,1625853038.0,32.000000
-24,4,58,1625853038.0,32.000000
-26,5,58,1625853038.0,32.000000
-26,4,57,1625853038.0,32.000000
-25,4,58,1625853038.0,32.000000
-24,4,58,1625853038.0,32.000000
-24,4,58,1625853038.0,32.000000
-25,5,58,1625853038.0,32.000000
-26,5,57,1625853038.0,32.000000
-26,5,57,1625853038.0,32.000000
-25,5,58,1625853038.0,32.000000
-25,5,58,1625853038.0,32.000000
-25,5,58,1625853038.0,32.000000
-26,6,59,1625853038.0,32.000000
-24,5,56,1625853038.0,32.000000
-25,5,58,1625853038.0,32.000000
-22,5,59,1625853038.0,32.000000
-22,5,59,1625853038.0,32.000000
-22,5,61,1625853038.0,32.000000
-22,5,59,1625853038.0,32.000000
-20,5,59,1625853038.0,32.000000
-20,5,60,1625853038.0,32.000000
-19,6,59,1625853038.0,32.000000
-19,6,61,1625853038.0,32.000000
-20,8,60,1625853038.0,32.000000
-18,6,60,1625853038.0,32.000000
-22,7,60,1625853038.0,32.000000
-21,5,60,1625853038.0,32.000000
-17,10,61,1625853038.0,32.000000
-19,7,59,1625853038.0,32.000000
-19,6,60,1625853038.0,32.000000
-17,5,60,1625853038.0,32.000000
-16,6,61,1625853038.0,32.000000
-19,6,60,1625853038.0,32.000000
-20,6,59,1625853038.0,32.000000
-20,6,60,1625853038.0,32.000000
-21,6,60,1625853038.0,32.000000
-19,6,59,1625853038.0,32.000000
-19,5,60,1625853038.0,32.000000
-20,6,59,1625853038.0,32.000000
-21,6,59,1625853038.0,32.000000
-19,6,60,1625853038.0,32.000000
-19,6,60,1625853038.0,32.000000
-18,6,60,1625853038.0,32.000000
-19,6,61,1625853038.0,32.000000
-21,5,59,1625853038.0,32.000000
-20,6,59,1625853038.0,32.000000
-19,5,60,1625853038.0,32.000000
-18,6,60,1625853038.0,32.000000
-20,6,60,1625853038.0,32.000000
-20,6,60,1625853038.0,32.000000
-20,5,60,1625853038.0,32.000000
-20,5,60,1625853038.0,32.000000
-20,6,60,1625853038.0,32.000000
-20,6,59,1625853038.0,32.000000
-20,6,59,1625853038.0,32.000000
-21,4,59,1625853038.0,32.000000
-24,6,59,1625853038.0,32.000000
-24,9,60,1625853038.0,32.000000
-14,3,62,1625853038.0,32.000000
-6,0,65,1625853038.0,32.000000
-16,6,57,1625853038.0,32.000000
-27,-2,56,1625853038.0,32.000000
-22,2,61,1625853038.0,32.000000
-15,-3,62,1625853038.0,32.000000
-18,3,63,1625853038.0,32.000000
-20,1,60,1625853038.0,32.000000
-19,3,54,1625853038.0,32.000000
-20,3,53,1625853038.0,32.000000
-23,3,57,1625853038.0,32.000000
-7,-2,67,1625853038.0,32.000000
-12,1,61,1625853038.0,32.000000
-18,1,61,1625853038.0,32.000000
-23,3,59,1625853038.0,32.000000
-28,3,57,1625853038.0,32.000000
-33,4,56,1625853038.0,32.000000
-25,0,58,1625853038.0,32.000000
-27,-1,56,1625853038.0,32.000000
-24,-3,56,1625853038.0,32.000000
-20,-3,60,1625853038.0,32.000000
-23,-1,58,1625853038.0,32.000000
-22,0,58,1625853038.0,32.000000
-22,1,60,1625853038.0,32.000000
-24,2,59,1625853038.0,32.000000
-25,2,58,1625853038.0,32.000000
-23,1,59,1625853038.0,32.000000
-22,2,60,1625853038.0,32.000000
-24,3,59,1625853038.0,32.000000
-28,4,56,1625853038.0,32.000000
-29,4,56,1625853038.0,32.000000
-29,4,56,1625853038.0,32.000000
-28,4,56,1625853038.0,32.000000
-27,4,57,1625853038.0,32.000000
-26,4,57,1625853038.0,32.000000
-26,4,58,1625853038.0,32.000000
-27,4,56,1625853038.0,32.000000
-27,4,57,1625853038.0,32.000000
-27,5,57,1625853038.0,32.000000
-27,5,57,1625853038.0,32.000000
-26,5,58,1625853038.0,32.000000
-25,5,58,1625853038.0,32.000000
-26,5,58,1625853038.0,32.000000
-26,4,58,1625853038.0,32.000000
-26,4,57,1625853038.0,32.000000
-26,4,57,1625853038.0,32.000000
-26,5,58,1625853038.0,32.000000
-26,4,57,1625853038.0,32.000000
-26,4,58,1625853038.0,32.000000
-26,4,57,1625853038.0,32.000000
-26,4,57,1625853038.0,32.000000
-26,4,57,1625853038.0,32.000000
-26,4,58,1625853038.0,32.000000
-29,4,57,1625853038.0,32.000000
-28,3,60,1625853038.0,32.000000
-23,4,62,1625853038.0,32.000000
-23,6,61,1625853038.0,32.000000
-28,7,50,1625853038.0,32.000000
-23,2,52,1625853038.0,32.000000
-26,3,54,1625853038.0,32.000000
-29,3,54,1625853038.0,32.000000
-25,3,58,1625853038.0,32.000000
-23,4,65,1625853038.0,32.000000
-17,2,61,1625853038.0,32.000000
-23,1,59,1625853038.0,32.000000
-25,2,58,1625853038.0,32.000000
-21,2,59,1625853038.0,32.000000
-24,2,59,1625853038.0,32.000000
-24,2,59,1625853038.0,32.000000
-23,3,59,1625853038.0,32.000000
-23,2,59,1625853038.0,32.000000
-24,2,58,1625853038.0,32.000000
-24,3,58,1625853038.0,32.000000
-24,3,58,1625853038.0,32.000000
-23,3,59,1625853038.0,32.000000
-24,3,59,1625853038.0,32.000000
-25,3,58,1625853038.0,32.000000
-23,3,59,1625853038.0,32.000000
-24,3,59,1625853038.0,32.000000
-24,3,58,1625853038.0,32.000000
-24,3,58,1625853038.0,32.000000
-24,3,58,1625853038.0,32.000000
-24,3,58,1625853038.0,32.000000
-24,3,58,1625853038.0,32.000000
-24,3,58,1625853038.0,32.000000
-24,3,58,1625853038.0,32.000000
-24,3,58,1625853038.0,32.000000
-24,3,58,1625853038.0,32.000000
-24,3,58,1625853038.0,32.000000
-24,3,59,1625853038.0,32.000000
-25,3,58,1625853038.0,32.000000
-24,3,59,1625853038.0,32.000000
-24,3,58,1625853038.0,32.000000
-25,3,58,1625853038.0,32.000000
-24,3,58,1625853038.0,32.000000
-24,3,59,1625853038.0,32.000000
-24,3,59,1625853038.0,32.000000
-24,3,58,1625853038.0,32.000000
-24,3,58,1625853038.0,32.000000
-24,3,58,1625853038.0,32.000000
-24,3,58,1625853038.0,32.000000
-24,3,58,1625853038.0,32.000000
-24,3,58,1625853038.0,32.000000
-24,3,58,1625853038.0,32.000000
-24,3,58,1625853038.0,32.000000
-24,3,58,1625853038.0,32.000000
-24,3,58,1625853038.0,32.000000
-24,3,58,1625853038.0,32.000000
-24,3,58,1625853038.0,32.000000
-24,3,58,1625853038.0,32.000000
-24,3,58,1625853038.0,32.000000
-24,3,58,1625853038.0,32.000000
-23,3,59,1625853038.0,32.000000
-28,1,60,1625853038.0,32.000000
-28,1,60,1625853038.0,32.000000
-21,1,59,1625853038.0,32.000000
-21,3,58,1625853038.0,32.000000
-23,6,55,1625853038.0,32.000000
-19,6,58,1625853038.0,32.000000
-19,5,59,1625853038.0,32.000000
-20,7,57,1625853038.0,32.000000
-18,2,60,1625853038.0,32.000000
-22,5,60,1625853038.0,32.000000
-20,2,60,1625853038.0,32.000000
-22,3,59,1625853038.0,32.000000
-22,3,60,1625853038.0,32.000000
-19,2,60,1625853038.0,32.000000
-22,3,60,1625853038.0,32.000000
-20,3,60,1625853038.0,32.000000
-21,3,59,1625853038.0,32.000000
-20,3,59,1625853038.0,32.000000
-22,3,59,1625853038.0,32.000000
-22,3,59,1625853038.0,32.000000
-21,3,59,1625853038.0,32.000000
-21,3,59,1625853038.0,32.000000
-21,3,59,1625853038.0,32.000000
-23,3,59,1625853038.0,32.000000
-22,3,59,1625853038.0,32.000000
-22,3,59,1625853038.0,32.000000
-22,3,59,1625853038.0,32.000000
-22,3,59,1625853038.0,32.000000
-22,3,59,1625853038.0,32.000000
-22,3,59,1625853038.0,32.000000
-23,2,59,1625853038.0,32.000000
-22,3,59,1625853038.0,32.000000
-23,3,59,1625853038.0,32.000000
-23,3,59,1625853038.0,32.000000
-23,3,59,1625853038.0,32.000000
-23,3,59,1625853038.0,32.000000
-23,3,59,1625853038.0,32.000000
-23,3,59,1625853038.0,32.000000
-22,3,59,1625853038.0,32.000000
-25,3,58,1625853038.0,32.000000
-23,3,59,1625853038.0,32.000000
-23,3,59,1625853038.0,32.000000
-23,3,59,1625853038.0,32.000000
-22,3,59,1625853038.0,32.000000
-22,3,59,1625853038.0,32.000000
-23,3,59,1625853038.0,32.000000
-23,3,59,1625853038.0,32.000000
-23,3,59,1625853038.0,32.000000
-23,3,59,1625853038.0,32.000000
-23,3,59,1625853038.0,32.000000
-23,3,59,1625853038.0,32.000000
-23,3,59,1625853038.0,32.000000
-23,3,59,1625853038.0,32.000000
-23,3,59,1625853038.0,32.000000
-23,3,59,1625853038.0,32.000000
-23,3,58,1625853038.0,32.000000
-23,3,59,1625853038.0,32.000000
-23,3,59,1625853038.0,32.000000
-22,3,59,1625853038.0,32.000000
-22,3,59,1625853038.0,32.000000
-23,2,60,1625853038.0,32.000000
-24,3,59,1625853038.0,32.000000
-21,4,58,1625853038.0,32.000000
-22,2,59,1625853038.0,32.000000
-24,5,55,1625853038.0,32.000000
-24,4,57,1625853038.0,32.000000
-24,4,59,1625853038.0,32.000000
-24,4,58,1625853038.0,32.000000
-25,5,57,1625853038.0,32.000000
-24,4,58,1625853038.0,32.000000
-23,4,58,1625853038.0,32.000000
-23,4,58,1625853038.0,32.000000
-24,4,58,1625853038.0,32.000000
-24,3,59,1625853038.0,32.000000
-23,3,59,1625853038.0,32.000000
-22,3,60,1625853038.0,32.000000
-22,3,59,1625853038.0,32.000000
-23,3,59,1625853038.0,32.000000
-23,3,59,1625853038.0,32.000000
-23,3,59,1625853038.0,32.000000
-22,3,59,1625853038.0,32.000000
-23,3,59,1625853038.0,32.000000
-23,3,59,1625853038.0,32.000000
-23,3,59,1625853038.0,32.000000
-24,3,59,1625853038.0,32.000000
-23,3,59,1625853038.0,32.000000
-23,3,59,1625853038.0,32.000000
-23,3,59,1625853038.0,32.000000
-23,3,59,1625853038.0,32.000000
-22,3,59,1625853038.0,32.000000
-23,3,59,1625853038.0,32.000000
-23,3,59,1625853038.0,32.000000
-23,3,59,1625853038.0,32.000000
-24,3,59,1625853038.0,32.000000
-23,3,59,1625853038.0,32.000000
-24,3,58,1625853038.0,32.000000
-25,3,58,1625853038.0,32.000000
-24,3,59,1625853038.0,32.000000
-24,3,58,1625853038.0,32.000000
-24,3,58,1625853038.0,32.000000
-24,3,59,1625853038.0,32.000000
-24,3,58,1625853038.0,32.000000
-24,3,58,1625853038.0,32.000000
-24,3,59,1625853038.0,32.000000
-24,3,59,1625853038.0,32.000000
-24,3,58,1625853038.0,32.000000
-24,3,59,1625853038.0,32.000000
-24,3,59,1625853038.0,32.000000
-24,3,58,1625853038.0,32.000000
-23,3,59,1625853038.0,32.000000
-24,3,59,1625853038.0,32.000000
-24,3,58,1625853038.0,32.000000
-24,3,59,1625853038.0,32.000000
-24,3,59,1625853038.0,32.000000
-24,3,58,1625853038.0,32.000000
-24,3,59,1625853038.0,32.000000
-24,3,59,1625853038.0,32.000000
-24,3,58,1625853038.0,32.000000
-23,3,59,1625853038.0,32.000000
-23,3,59,1625853038.0,32.000000
-24,3,59,1625853038.0,32.000000
-25,3,60,1625853038.0,32.000000
-26,2,61,1625853038.0,32.000000
-21,3,59,1625853038.0,32.000000
-21,3,57,1625853038.0,32.000000
-25,4,57,1625853038.0,32.000000
-27,3,53,1625853038.0,32.000000
-27,4,56,1625853038.0,32.000000
-25,5,57,1625853038.0,32.000000
-23,6,56,1625853038.0,32.000000
-22,3,59,1625853038.0,32.000000
-25,3,59,1625853038.0,32.000000
-24,3,59,1625853038.0,32.000000
-23,3,60,1625853038.0,32.000000
-21,3,60,1625853038.0,32.000000
-21,3,59,1625853038.0,32.000000
-24,3,59,1625853038.0,32.000000
-22,3,59,1625853038.0,32.000000
-23,3,59,1625853038.0,32.000000
-23,3,59,1625853038.0,32.000000
-23,3,59,1625853038.0,32.000000
-23,3,59,1625853038.0,32.000000
-23,3,59,1625853038.0,32.000000
-23,3,59,1625853038.0,32.000000
-24,3,59,1625853038.0,32.000000
-23,3,59,1625853038.0,32.000000
-23,3,59,1625853038.0,32.000000
-24,3,59,1625853038.0,32.000000
-23,3,59,1625853038.0,32.000000
-24,3,58,1625853038.0,32.000000
-23,3,59,1625853038.0,32.000000
-23,3,59,1625853038.0,32.000000
-24,3,58,1625853038.0,32.000000
-23,3,59,1625853038.0,32.000000
-23,3,59,1625853038.0,32.000000
-24,3,58,1625853038.0,32.000000
-24,3,58,1625853038.0,32.000000
-24,3,59,1625853038.0,32.000000
-24,3,59,1625853038.0,32.000000
-24,3,58,1625853038.0,32.000000
-24,3,59,1625853038.0,32.000000
-24,3,58,1625853038.0,32.000000
-24,3,59,1625853038.0,32.000000
-24,3,58,1625853038.0,32.000000
-24,3,58,1625853038.0,32.000000
-24,3,58,1625853038.0,32.000000
-24,3,59,1625853038.0,32.000000
-24,3,59,1625853038.0,32.000000
-24,3,59,1625853038.0,32.000000
-24,3,58,1625853038.0,32.000000
-24,3,58,1625853038.0,32.000000
-23,3,59,1625853038.0,32.000000
-23,3,59,1625853038.0,32.000000
-24,3,59,1625853038.0,32.000000
-24,3,58,1625853038.0,32.000000
-24,3,59,1625853038.0,32.000000
-23,3,59,1625853038.0,32.000000
-23,3,59,1625853038.0,32.000000
-24,2,58,1625853038.0,32.000000
-23,3,59,1625853038.0,32.000000
-23,3,59,1625853038.0,32.000000
-24,3,59,1625853038.0,32.000000
-24,2,59,1625853038.0,32.000000
-25,3,60,1625853038.0,32.000000
-26,3,61,1625853038.0,32.000000
-21,2,64,1625853038.0,32.000000
-23,4,52,1625853038.0,32.000000
-29,0,52,1625853038.0,32.000000
-24,0,58,1625853038.0,32.000000
-20,3,58,1625853038.0,32.000000
-21,3,59,1625853038.0,32.000000
-22,2,62,1625853038.0,32.000000
-22,1,60,1625853038.0,32.000000
-24,1,59,1625853038.0,32.000000
-23,2,59,1625853038.0,32.000000
-22,2,60,1625853038.0,32.000000
-22,2,59,1625853038.0,32.000000
-23,2,59,1625853038.0,32.000000
-23,2,59,1625853038.0,32.000000
-23,2,59,1625853038.0,32.000000
-23,2,59,1625853038.0,32.000000
-23,2,59,1625853038.0,32.000000
-23,2,59,1625853038.0,32.000000
-23,2,59,1625853038.0,32.000000
-23,2,59,1625853038.0,32.000000
-23,2,59,1625853038.0,32.000000
-23,2,59,1625853038.0,32.000000
-24,2,59,1625853038.0,32.000000
-23,2,59,1625853038.0,32.000000
-23,2,59,1625853038.0,32.000000
-23,2,59,1625853038.0,32.000000
-23,2,59,1625853038.0,32.000000
-24,2,58,1625853038.0,32.000000
-24,2,58,1625853038.0,32.000000
-23,2,59,1625853038.0,32.000000
-22,2,59,1625853038.0,32.000000
-22,2,59,1625853038.0,32.000000
-23,2,59,1625853038.0,32.000000
-23,2,59,1625853038.0,32.000000
-23,2,59,1625853038.0,32.000000
-23,2,59,1625853038.0,32.000000
-23,2,59,1625853038.0,32.000000
-23,2,59,1625853038.0,32.000000
-23,2,59,1625853038.0,32.000000
-23,2,59,1625853038.0,32.000000
-24,2,59,1625853038.0,32.000000
-23,2,59,1625853038.0,32.000000
-23,2,59,1625853038.0,32.000000
-23,2,59,1625853038.0,32.000000
-23,2,59,1625853038.0,32.000000
-23,2,59,1625853038.0,32.000000
-23,2,59,1625853038.0,32.000000
-23,2,59,1625853038.0,32.000000
-23,2,59,1625853038.0,32.000000
-23,2,59,1625853038.0,32.000000
-23,2,59,1625853038.0,32.000000
-23,2,59,1625853038.0,32.000000
-23,2,59,1625853038.0,32.000000
-23,2,59,1625853038.0,32.000000
-23,2,59,1625853038.0,32.000000
-23,2,59,1625853038.0,32.000000
-23,2,59,1625853038.0,32.000000
-23,2,59,1625853038.0,32.000000
-23,2,59,1625853038.0,32.000000
-24,2,59,1625853038.0,32.000000
-26,2,62,1625853038.0,32.000000
-21,2,61,1625853038.0,32.000000
-19,3,59,1625853038.0,32.000000
-28,2,54,1625853038.0,32.000000
-29,1,55,1625853038.0,32.000000
-26,1,56,1625853038.0,32.000000
-27,3,55,1625853038.0,32.000000
-28,3,56,1625853038.0,32.000000
-21,2,61,1625853038.0,32.000000
-20,1,61,1625853038.0,32.000000
-23,1,60,1625853038.0,32.000000
-25,1,59,1625853038.0,32.000000
-22,1,59,1625853038.0,32.000000
-24,2,58,1625853038.0,32.000000
-23,2,59,1625853038.0,32.000000
-23,2,59,1625853038.0,32.000000
-23,2,59,1625853038.0,32.000000
-24,2,59,1625853038.0,32.000000
-23,2,59,1625853038.0,32.000000
-23,2,59,1625853038.0,32.000000
-23,2,59,1625853038.0,32.000000
-23,2,59,1625853038.0,32.000000
-23,2,59,1625853038.0,32.000000
-23,2,59,1625853038.0,32.000000
-24,2,59,1625853038.0,32.000000
-23,2,59,1625853038.0,32.000000
-23,2,59,1625853038.0,32.000000
-23,2,59,1625853038.0,32.000000
-23,2,59,1625853038.0,32.000000
-23,2,59,1625853038.0,32.000000
-24,2,59,1625853038.0,32.000000
-23,2,59,1625853038.0,32.000000
-23,2,59,1625853038.0,32.000000
-24,2,58,1625853038.0,32.000000
-23,2,59,1625853038.0,32.000000
-23,2,59,1625853038.0,32.000000
-23,2,59,1625853038.0,32.000000
-23,2,59,1625853038.0,32.000000
-23,2,59,1625853038.0,32.000000
-23,2,59,1625853038.0,32.000000
-23,2,59,1625853038.0,32.000000
-23,2,59,1625853038.0,32.000000
-23,2,59,1625853038.0,32.000000
-23,2,59,1625853038.0,32.000000
-23,2,59,1625853038.0,32.000000
-23,2,59,1625853038.0,32.000000
-23,2,59,1625853038.0,32.000000
-23,2,59,1625853038.0,32.000000
-23,3,59,1625853038.0,32.000000
-23,2,59,1625853038.0,32.000000
-23,2,59,1625853038.0,32.000000
-23,2,59,1625853038.0,32.000000
-23,2,59,1625853038.0,32.000000
-23,2,59,1625853038.0,32.000000
-23,2,59,1625853038.0,32.000000
-23,2,59,1625853038.0,32.000000
-23,2,59,1625853038.0,32.000000
-23,2,59,1625853038.0,32.000000
-25,1,62,1625853038.0,32.000000
-24,2,66,1625853038.0,32.000000
-21,-2,61,1625853038.0,32.000000
-20,6,55,1625853038.0,32.000000
-20,1,54,1625853038.0,32.000000
-26,5,53,1625853038.0,32.000000
-28,5,55,1625853038.0,32.000000
-28,9,54,1625853038.0,32.000000
-28,2,57,1625853038.0,32.000000
-23,4,68,1625853038.0,32.000000
-15,3,62,1625853038.0,32.000000
-21,2,61,1625853038.0,32.000000
-22,2,60,1625853038.0,32.000000
-22,2,60,1625853038.0,32.000000
-23,2,59,1625853038.0,32.000000
-22,2,59,1625853038.0,32.000000
-21,2,59,1625853038.0,32.000000
-22,2,59,1625853038.0,32.000000
-22,2,59,1625853038.0,32.000000
-22,2,59,1625853038.0,32.000000
-22,2,59,1625853038.0,32.000000
-22,2,59,1625853038.0,32.000000
-22,3,59,1625853038.0,32.000000
-22,2,59,1625853038.0,32.000000
-22,3,59,1625853038.0,32.000000
-22,2,59,1625853038.0,32.000000
-22,2,59,1625853038.0,32.000000
-22,2,59,1625853038.0,32.000000
-22,2,59,1625853038.0,32.000000
-23,2,59,1625853038.0,32.000000
-22,2,59,1625853038.0,32.000000
-22,2,59,1625853038.0,32.000000
-22,2,59,1625853038.0,32.000000
-22,2,59,1625853038.0,32.000000
-22,2,59,1625853038.0,32.000000
-22,2,59,1625853038.0,32.000000
-22,2,59,1625853038.0,32.000000
-22,2,59,1625853038.0,32.000000
-22,2,59,1625853038.0,32.000000
-22,2,59,1625853038.0,32.000000
-22,2,59,1625853038.0,32.000000
-22,2,59,1625853038.0,32.000000
-22,2,59,1625853038.0,32.000000
-22,2,59,1625853038.0,32.000000
-22,2,59,1625853038.0,32.000000
-22,2,59,1625853038.0,32.000000
-22,2,59,1625853038.0,32.000000
-22,2,59,1625853038.0,32.000000
-22,2,59,1625853038.0,32.000000
-22,3,59,1625853038.0,32.000000
-22,2,59,1625853038.0,32.000000
-22,2,59,1625853038.0,32.000000
-22,2,59,1625853038.0,32.000000
-22,2,59,1625853038.0,32.000000
-22,2,59,1625853038.0,32.000000
-22,2,59,1625853038.0,32.000000
-22,3,59,1625853038.0,32.000000
-24,1,61,1625853038.0,32.000000
-24,1,61,1625853038.0,32.000000
-16,-1,64,1625853038.0,32.000000
-21,6,52,1625853038.0,32.000000
-25,5,54,1625853038.0,32.000000
-21,6,55,1625853038.0,32.000000
-21,7,54,1625853038.0,32.000000
-28,1,62,1625853038.0,32.000000
-16,2,62,1625853038.0,32.000000
-18,2,61,1625853038.0,32.000000
-21,2,60,1625853038.0,32.000000
-21,3,59,1625853038.0,32.000000
-23,2,59,1625853038.0,32.000000
-22,3,59,1625853038.0,32.000000
-22,3,59,1625853038.0,32.000000
-22,2,60,1625853038.0,32.000000
-22,3,59,1625853038.0,32.000000
-23,2,59,1625853038.0,32.000000
-22,3,59,1625853038.0,32.000000
-22,2,59,1625853038.0,32.000000
-22,2,59,1625853038.0,32.000000
-22,2,59,1625853038.0,32.000000
-22,3,59,1625853038.0,32.000000
-22,3,59,1625853038.0,32.000000
-22,3,59,1625853038.0,32.000000
-22,3,59,1625853038.0,32.000000
-22,2,59,1625853038.0,32.000000
-22,2,59,1625853038.0,32.000000
-22,3,59,1625853038.0,32.000000
-22,3,60,1625853038.0,32.000000
-24,3,58,1625853038.0,32.000000
-22,3,59,1625853038.0,32.000000
-21,2,59,1625853038.0,32.000000
-22,3,59,1625853038.0,32.000000
-24,3,58,1625853038.0,32.000000
-21,3,59,1625853038.0,32.000000
-21,3,60,1625853038.0,32.000000
-23,3,59,1625853038.0,32.000000
-21,3,59,1625853038.0,32.000000
-23,3,59,1625853038.0,32.000000
-21,3,59,1625853038.0,32.000000
-22,3,59,1625853038.0,32.000000
-22,3,59,1625853038.0,32.000000
-22,3,59,1625853038.0,32.000000
-22,3,59,1625853038.0,32.000000
-24,3,59,1625853038.0,32.000000
-20,3,60,1625853038.0,32.000000
-22,3,59,1625853038.0,32.000000
-22,3,59,1625853038.0,32.000000
-21,3,59,1625853038.0,32.000000
-21,3,60,1625853038.0,32.000000
-21,3,59,1625853038.0,32.000000
-21,3,60,1625853038.0,32.000000
-22,3,59,1625853038.0,32.000000
-21,3,60,1625853038.0,32.000000
-23,4,60,1625853038.0,32.000000
-24,3,60,1625853038.0,32.000000
-22,3,61,1625853038.0,32.000000
-24,2,57,1625853038.0,32.000000
-15,2,59,1625853038.0,32.000000
-15,2,60,1625853038.0,32.000000
-17,3,60,1625853038.0,32.000000
-19,4,59,1625853038.0,32.000000
-20,4,58,1625853038.0,32.000000
-20,3,61,1625853038.0,32.000000
-20,3,61,1625853038.0,32.000000
-20,3,60,1625853038.0,32.000000
-19,3,60,1625853038.0,32.000000
-21,3,60,1625853038.0,32.000000
-21,3,60,1625853038.0,32.000000
-22,3,59,1625853038.0,32.000000
-21,3,60,1625853038.0,32.000000
-21,3,60,1625853038.0,32.000000
-21,3,59,1625853038.0,32.000000
-21,3,60,1625853038.0,32.000000
-22,3,59,1625853038.0,32.000000
-22,3,59,1625853038.0,32.000000
-21,3,59,1625853038.0,32.000000
-21,3,59,1625853038.0,32.000000
-21,3,59,1625853038.0,32.000000
-22,3,59,1625853038.0,32.000000
-22,3,60,1625853038.0,32.000000
-22,3,59,1625853038.0,32.000000
-21,3,59,1625853038.0,32.000000
-21,3,59,1625853038.0,32.000000
-21,3,60,1625853038.0,32.000000
-21,2,59,1625853038.0,32.000000
-23,2,59,1625853038.0,32.000000
-24,3,59,1625853038.0,32.000000
-23,2,59,1625853038.0,32.000000
-22,2,59,1625853038.0,32.000000
-22,2,59,1625853038.0,32.000000
-22,2,59,1625853038.0,32.000000
-22,2,59,1625853038.0,32.000000
-23,3,59,1625853038.0,32.000000
-22,2,59,1625853038.0,32.000000
-22,2,59,1625853038.0,32.000000
-22,2,59,1625853038.0,32.000000
-23,3,59,1625853038.0,32.000000
-22,3,59,1625853038.0,32.000000
-22,2,59,1625853038.0,32.000000
-22,3,59,1625853038.0,32.000000
-22,3,59,1625853038.0,32.000000
-22,2,59,1625853038.0,32.000000
-22,3,59,1625853038.0,32.000000
-22,2,59,1625853038.0,32.000000
-23,3,59,1625853038.0,32.000000
-22,2,59,1625853038.0,32.000000
-22,2,59,1625853038.0,32.000000
-22,3,59,1625853038.0,32.000000
-22,3,59,1625853038.0,32.000000
-22,3,59,1625853038.0,32.000000
-22,2,59,1625853038.0,32.000000
-22,2,59,1625853038.0,32.000000
-22,2,59,1625853038.0,32.000000
-22,3,59,1625853038.0,32.000000
-22,2,59,1625853038.0,32.000000
-23,2,59,1625853038.0,32.000000
-24,2,62,1625853038.0,32.000000
-27,4,62,1625853038.0,32.000000
-14,1,59,1625853038.0,32.000000
-18,3,56,1625853038.0,32.000000
-24,2,58,1625853038.0,32.000000
-22,3,58,1625853038.0,32.000000
-23,4,59,1625853038.0,32.000000
-21,4,59,1625853038.0,32.000000
-16,2,61,1625853038.0,32.000000
-20,3,60,1625853038.0,32.000000
-21,2,61,1625853038.0,32.000000
-22,3,60,1625853038.0,32.000000
-22,3,60,1625853038.0,32.000000
-22,2,59,1625853038.0,32.000000
-21,2,60,1625853038.0,32.000000
-21,3,59,1625853038.0,32.000000
-22,3,59,1625853038.0,32.000000
-22,3,59,1625853038.0,32.000000
-22,3,59,1625853038.0,32.000000
-22,3,59,1625853038.0,32.000000
-22,3,59,1625853038.0,32.000000
-22,3,59,1625853038.0,32.000000
-22,3,59,1625853038.0,32.000000
-22,3,59,1625853038.0,32.000000
-22,3,59,1625853038.0,32.000000
-22,3,59,1625853038.0,32.000000
-22,3,59,1625853038.0,32.000000
-22,2,59,1625853038.0,32.000000
-22,2,59,1625853038.0,32.000000
-22,3,59,1625853038.0,32.000000
-22,3,59,1625853038.0,32.000000
-22,3,59,1625853038.0,32.000000
-22,3,59,1625853038.0,32.000000
-22,3,59,1625853038.0,32.000000
-22,3,59,1625853038.0,32.000000
-22,3,59,1625853038.0,32.000000
-22,3,59,1625853038.0,32.000000
-22,3,59,1625853038.0,32.000000
-22,3,59,1625853038.0,32.000000
-22,3,59,1625853038.0,32.000000
-22,2,59,1625853038.0,32.000000
-22,3,59,1625853038.0,32.000000
-22,3,59,1625853038.0,32.000000
-22,3,59,1625853038.0,32.000000
-22,3,59,1625853038.0,32.000000
-22,3,59,1625853038.0,32.000000
-22,2,59,1625853038.0,32.000000
-22,3,59,1625853038.0,32.000000
-22,3,59,1625853038.0,32.000000
-22,3,59,1625853038.0,32.000000
-22,2,59,1625853038.0,32.000000
-22,3,59,1625853038.0,32.000000
-22,2,59,1625853038.0,32.000000
-22,3,59,1625853038.0,32.000000
-22,3,59,1625853038.0,32.000000
-22,2,59,1625853038.0,32.000000
-23,2,60,1625853038.0,32.000000
-23,2,60,1625853038.0,32.000000
-25,2,61,1625853038.0,32.000000
-21,3,58,1625853038.0,32.000000
-16,3,56,1625853038.0,32.000000
-21,2,59,1625853038.0,32.000000
-21,3,58,1625853038.0,32.000000
-18,3,60,1625853038.0,32.000000
-20,3,60,1625853038.0,32.000000
-20,3,59,1625853038.0,32.000000
-21,3,58,1625853038.0,32.000000
-20,3,58,1625853038.0,32.000000
-21,3,61,1625853038.0,32.000000
-23,3,60,1625853038.0,32.000000
-23,3,59,1625853038.0,32.000000
-21,2,59,1625853038.0,32.000000
-24,3,60,1625853038.0,32.000000
-29,-1,69,1625853038.0,32.000000
-9,12,66,1625853038.0,32.000000
-12,3,51,1625853038.0,32.000000
-18,2,49,1625853038.0,32.000000
-22,5,54,1625853038.0,32.000000
-24,5,57,1625853038.0,32.000000
-26,5,60,1625853038.0,32.000000
-22,5,59,1625853038.0,32.000000
-16,4,55,1625853038.0,32.000000
-13,0,77,1625853038.0,32.000000
-17,0,65,1625853038.0,32.000000
-23,3,60,1625853038.0,32.000000
-25,3,60,1625853038.0,32.000000
-22,4,59,1625853038.0,32.000000
-20,4,61,1625853038.0,32.000000
-21,4,60,1625853038.0,32.000000
-22,3,59,1625853038.0,32.000000
-22,3,59,1625853038.0,32.000000
-22,3,59,1625853038.0,32.000000
-21,3,59,1625853038.0,32.000000
-20,4,60,1625853038.0,32.000000
-22,3,60,1625853038.0,32.000000
-22,3,59,1625853038.0,32.000000
-21,3,60,1625853038.0,32.000000
-22,3,59,1625853038.0,32.000000
-22,3,59,1625853038.0,32.000000
-22,3,59,1625853038.0,32.000000
-22,3,59,1625853038.0,32.000000
-22,3,59,1625853038.0,32.000000
-20,3,60,1625853038.0,32.000000
-21,3,59,1625853038.0,32.000000
-21,3,59,1625853038.0,32.000000
-21,4,60,1625853038.0,32.000000
-22,4,59,1625853038.0,32.000000
-22,4,59,1625853038.0,32.000000
-21,4,59,1625853038.0,32.000000
-24,4,59,1625853038.0,32.000000
-19,3,61,1625853038.0,32.000000
-23,4,59,1625853038.0,32.000000
-22,3,59,1625853038.0,32.000000
-21,3,59,1625853038.0,32.000000
-21,4,59,1625853038.0,32.000000
-20,3,60,1625853038.0,32.000000
-23,4,59,1625853038.0,32.000000
-26,4,59,1625853038.0,32.000000
-27,4,62,1625853038.0,32.000000
-21,0,61,1625853038.0,32.000000
-17,3,59,1625853038.0,32.000000
-19,4,57,1625853038.0,32.000000
-18,4,59,1625853038.0,32.000000
-19,5,59,1625853038.0,32.000000
-20,5,58,1625853038.0,32.000000
-22,4,61,1625853038.0,32.000000
-21,3,61,1625853038.0,32.000000
-21,4,61,1625853038.0,32.000000
-22,3,60,1625853038.0,32.000000
-22,3,59,1625853038.0,32.000000
-23,4,59,1625853038.0,32.000000
-22,4,59,1625853038.0,32.000000
-21,4,60,1625853038.0,32.000000
-22,4,59,1625853038.0,32.000000
-21,4,59,1625853038.0,32.000000
-22,4,59,1625853038.0,32.000000
-22,4,59,1625853038.0,32.000000
-21,4,59,1625853038.0,32.000000
-22,4,59,1625853038.0,32.000000
-21,4,59,1625853038.0,32.000000
-22,4,59,1625853038.0,32.000000
-22,3,60,1625853038.0,32.000000
-22,3,58,1625853038.0,32.000000
-23,3,59,1625853038.0,32.000000
-22,3,59,1625853038.0,32.000000
-22,3,59,1625853038.0,32.000000
-22,4,59,1625853038.0,32.000000
-22,3,59,1625853038.0,32.000000
-22,4,60,1625853038.0,32.000000
-22,4,59,1625853038.0,32.000000
-21,4,60,1625853038.0,32.000000
-22,4,59,1625853038.0,32.000000
-22,4,59,1625853038.0,32.000000
-22,3,59,1625853038.0,32.000000
-22,3,59,1625853038.0,32.000000
-22,4,59,1625853038.0,32.000000
-22,3,59,1625853038.0,32.000000
-22,4,59,1625853038.0,32.000000
-22,3,59,1625853038.0,32.000000
-21,3,59,1625853038.0,32.000000
-22,3,59,1625853038.0,32.000000
-22,3,59,1625853038.0,32.000000
-22,3,59,1625853038.0,32.000000
-23,3,59,1625853038.0,32.000000
-21,3,59,1625853038.0,32.000000
-22,4,59,1625853038.0,32.000000
-22,4,59,1625853038.0,32.000000
-22,4,59,1625853038.0,32.000000
-22,4,59,1625853038.0,32.000000
-22,4,59,1625853038.0,32.000000
-22,4,59,1625853038.0,32.000000
-22,4,59,1625853038.0,32.000000
-22,4,59,1625853038.0,32.000000
-22,3,60,1625853038.0,32.000000
-22,3,60,1625853038.0,32.000000
-22,3,59,1625853038.0,32.000000
-22,3,59,1625853038.0,32.000000
-22,4,59,1625853038.0,32.000000
-22,4,59,1625853038.0,32.000000
-22,4,59,1625853038.0,32.000000
-22,4,59,1625853038.0,32.000000
-22,4,59,1625853038.0,32.000000
-23,4,59,1625853038.0,32.000000
-21,5,60,1625853038.0,32.000000
-23,1,57,1625853038.0,32.000000
-23,3,59,1625853038.0,32.000000
-18,5,58,1625853038.0,32.000000
-19,3,59,1625853038.0,32.000000
-20,3,60,1625853038.0,32.000000
-22,3,58,1625853038.0,32.000000
-23,3,57,1625853038.0,32.000000
-17,2,61,1625853038.0,32.000000
-20,3,61,1625853038.0,32.000000
-24,3,57,1625853038.0,32.000000
-25,3,57,1625853038.0,32.000000
-22,3,60,1625853038.0,32.000000
-21,3,59,1625853038.0,32.000000
-23,3,58,1625853038.0,32.000000
-23,3,58,1625853038.0,32.000000
-23,3,59,1625853038.0,32.000000
-23,3,58,1625853038.0,32.000000
-22,3,56,1625853038.0,32.000000
-18,3,61,1625853038.0,32.000000
-20,3,62,1625853038.0,32.000000
-24,3,59,1625853038.0,32.000000
-22,3,60,1625853038.0,32.000000
-25,3,59,1625853038.0,32.000000
-21,3,59,1625853038.0,32.000000
-22,3,59,1625853038.0,32.000000
-22,3,60,1625853038.0,32.000000
-21,3,59,1625853038.0,32.000000
-22,3,59,1625853038.0,32.000000
-22,3,59,1625853038.0,32.000000
-22,3,59,1625853038.0,32.000000
-23,3,59,1625853038.0,32.000000
-23,3,59,1625853038.0,32.000000
-22,3,59,1625853038.0,32.000000
-22,4,59,1625853038.0,32.000000
-23,3,59,1625853038.0,32.000000
-23,3,59,1625853038.0,32.000000
-23,3,59,1625853038.0,32.000000
-22,4,59,1625853038.0,32.000000
-22,3,59,1625853038.0,32.000000
-22,3,59,1625853038.0,32.000000
-23,3,59,1625853038.0,32.000000
-23,4,59,1625853038.0,32.000000
-23,4,59,1625853038.0,32.000000
-22,3,59,1625853038.0,32.000000
-22,3,59,1625853038.0,32.000000
-22,3,59,1625853038.0,32.000000
-23,3,59,1625853038.0,32.000000
-23,3,59,1625853038.0,32.000000
-23,3,59,1625853038.0,32.000000
-22,3,59,1625853038.0,32.000000
-22,3,59,1625853038.0,32.000000
-22,3,59,1625853038.0,32.000000
-24,3,59,1625853038.0,32.000000
-22,3,59,1625853038.0,32.000000
-22,3,59,1625853038.0,32.000000
-23,3,59,1625853038.0,32.000000
-23,3,59,1625853038.0,32.000000
-24,3,58,1625853038.0,32.000000
-25,2,59,1625853038.0,32.000000
-25,1,59,1625853038.0,32.000000
-22,3,58,1625853038.0,32.000000
-21,4,57,1625853038.0,32.000000
-21,3,57,1625853038.0,32.000000
-24,2,56,1625853038.0,32.000000
-23,2,59,1625853038.0,32.000000
-20,2,59,1625853038.0,32.000000
-23,3,58,1625853038.0,32.000000
-26,3,56,1625853038.0,32.000000
-26,3,56,1625853038.0,32.000000
-24,4,55,1625853038.0,32.000000
-23,5,60,1625853038.0,32.000000
-22,2,61,1625853038.0,32.000000
-18,1,61,1625853038.0,32.000000
-24,3,58,1625853038.0,32.000000
-23,3,59,1625853038.0,32.000000
-24,3,59,1625853038.0,32.000000
-22,3,59,1625853038.0,32.000000
-22,3,59,1625853038.0,32.000000
-23,3,59,1625853038.0,32.000000
-22,3,59,1625853038.0,32.000000
-22,3,59,1625853038.0,32.000000
-23,3,59,1625853038.0,32.000000
-23,3,59,1625853038.0,32.000000
-22,3,59,1625853038.0,32.000000
-23,3,59,1625853038.0,32.000000
-23,3,59,1625853038.0,32.000000
-24,3,58,1625853038.0,32.000000
-23,3,59,1625853038.0,32.000000
-22,3,59,1625853038.0,32.000000
-23,3,59,1625853038.0,32.000000
-24,3,58,1625853038.0,32.000000
-24,3,59,1625853038.0,32.000000
-23,3,59,1625853038.0,32.000000
-23,3,59,1625853038.0,32.000000
-23,3,59,1625853038.0,32.000000
-23,3,59,1625853038.0,32.000000
-23,3,59,1625853038.0,32.000000
-23,3,59,1625853038.0,32.000000
-23,3,59,1625853038.0,32.000000
-23,3,59,1625853038.0,32.000000
-23,3,59,1625853038.0,32.000000
-23,3,59,1625853038.0,32.000000
-23,3,59,1625853038.0,32.000000
-23,3,59,1625853038.0,32.000000
-23,3,59,1625853038.0,32.000000
-23,3,59,1625853038.0,32.000000
-23,3,59,1625853038.0,32.000000
-23,3,59,1625853038.0,32.000000
-23,3,59,1625853038.0,32.000000
-23,3,59,1625853038.0,32.000000
-22,2,59,1625853038.0,32.000000
-25,3,58,1625853038.0,32.000000
-23,2,59,1625853038.0,32.000000
-23,2,59,1625853038.0,32.000000
-24,3,58,1625853038.0,32.000000
-22,2,61,1625853038.0,32.000000
-24,2,61,1625853038.0,32.000000
-24,3,62,1625853038.0,32.000000
-21,2,56,1625853038.0,32.000000
-23,3,57,1625853038.0,32.000000
-20,3,59,1625853038.0,32.000000
-20,4,59,1625853038.0,32.000000
-23,3,59,1625853038.0,32.000000
-24,3,59,1625853038.0,32.000000
-23,3,58,1625853038.0,32.000000
-23,3,57,1625853038.0,32.000000
-22,3,61,1625853038.0,32.000000
-21,3,60,1625853038.0,32.000000
-23,3,60,1625853038.0,32.000000
-22,3,59,1625853038.0,32.000000
-20,2,60,1625853038.0,32.000000
-23,2,59,1625853038.0,32.000000
-24,3,58,1625853038.0,32.000000
-23,3,59,1625853038.0,32.000000
-22,3,59,1625853038.0,32.000000
-22,3,59,1625853038.0,32.000000
-22,3,59,1625853038.0,32.000000
-22,3,59,1625853038.0,32.000000
-22,3,59,1625853038.0,32.000000
-23,3,59,1625853038.0,32.000000
-22,2,59,1625853038.0,32.000000
-24,3,59,1625853038.0,32.000000
-23,2,59,1625853038.0,32.000000
-24,2,58,1625853038.0,32.000000
-23,2,59,1625853038.0,32.000000
-23,2,59,1625853038.0,32.000000
-23,2,59,1625853038.0,32.000000
-24,3,59,1625853038.0,32.000000
-23,2,59,1625853038.0,32.000000
-25,2,58,1625853038.0,32.000000
-23,3,59,1625853038.0,32.000000
-23,2,58,1625853038.0,32.000000
-23,2,58,1625853038.0,32.000000
-23,2,59,1625853038.0,32.000000
-24,2,59,1625853038.0,32.000000
-24,2,59,1625853038.0,32.000000
-23,3,59,1625853038.0,32.000000
-22,2,59,1625853038.0,32.000000
-23,2,59,1625853038.0,32.000000
-23,3,59,1625853038.0,32.000000
-25,3,58,1625853038.0,32.000000
-24,3,58,1625853038.0,32.000000
-24,3,59,1625853038.0,32.000000
-23,2,59,1625853038.0,32.000000
-24,3,59,1625853038.0,32.000000
-24,3,58,1625853038.0,32.000000
-24,3,58,1625853038.0,32.000000
-24,2,58,1625853038.0,32.000000
-24,2,59,1625853038.0,32.000000
-21,2,59,1625853038.0,32.000000
-22,3,59,1625853038.0,32.000000
-24,3,58,1625853038.0,32.000000
-23,3,59,1625853038.0,32.000000
-24,3,58,1625853038.0,32.000000
-23,3,59,1625853038.0,32.000000
-23,2,59,1625853038.0,32.000000
-23,3,59,1625853038.0,32.000000
-23,3,59,1625853038.0,32.000000
-15,1,67,1625853038.0,32.000000
-31,3,55,1625853038.0,32.000000
-29,0,60,1625853038.0,32.000000
-21,2,58,1625853038.0,32.000000
-14,3,62,1625853038.0,32.000000
-24,2,56,1625853038.0,32.000000
-30,2,52,1625853038.0,32.000000
-25,3,58,1625853038.0,32.000000
-25,2,57,1625853038.0,32.000000
-26,4,54,1625853038.0,32.000000
-27,2,53,1625853038.0,32.000000
-20,2,66,1625853038.0,32.000000
-10,-2,66,1625853038.0,32.000000
-21,1,61,1625853038.0,32.000000
-23,1,61,1625853038.0,32.000000
-25,1,58,1625853038.0,32.000000
-25,1,58,1625853038.0,32.000000
-24,1,59,1625853038.0,32.000000
-23,1,59,1625853038.0,32.000000
-22,1,60,1625853038.0,32.000000
-23,0,59,1625853038.0,32.000000
-23,0,59,1625853038.0,32.000000
-22,0,59,1625853038.0,32.000000
-22,0,59,1625853038.0,32.000000
-22,-1,59,1625853038.0,32.000000
-21,-1,59,1625853038.0,32.000000
-21,-1,60,1625853038.0,32.000000
-22,-2,59,1625853038.0,32.000000
-23,-2,58,1625853038.0,32.000000
-24,-1,59,1625853038.0,32.000000
-22,-2,59,1625853038.0,32.000000
-20,-3,61,1625853038.0,32.000000
-23,-3,58,1625853038.0,32.000000
-22,-4,58,1625853038.0,32.000000
-23,-5,58,1625853038.0,32.000000
-22,-5,58,1625853038.0,32.000000
-20,-4,59,1625853038.0,32.000000
-19,-3,61,1625853038.0,32.000000
-22,-3,60,1625853038.0,32.000000
-25,-3,58,1625853038.0,32.000000
-25,-3,58,1625853038.0,32.000000
