ACC_X,ACC_Y,ACC_Z,start_time_unix,sampling_rate
-41,25,46,1625816584.0,32.000000
-40,27,45,1625816584.0,32.000000
-39,26,46,1625816584.0,32.000000
-43,25,45,1625816584.0,32.000000
-44,24,44,1625816584.0,32.000000
-46,22,40,1625816584.0,32.000000
-45,21,43,1625816584.0,32.000000
-45,22,42,1625816584.0,32.000000
-48,22,41,1625816584.0,32.000000
-48,22,40,1625816584.0,32.000000
-51,24,37,1625816584.0,32.000000
-48,22,38,1625816584.0,32.000000
-47,22,38,1625816584.0,32.000000
-50,21,39,1625816584.0,32.000000
-48,18,41,1625816584.0,32.000000
-48,17,42,1625816584.0,32.000000
-48,14,43,1625816584.0,32.000000
-49,12,43,1625816584.0,32.000000
-49,9,43,1625816584.0,32.000000
-50,9,43,1625816584.0,32.000000
-53,15,38,1625816584.0,32.000000
-50,14,40,1625816584.0,32.000000
-53,17,38,1625816584.0,32.000000
-48,22,38,1625816584.0,32.000000
-52,18,43,1625816584.0,32.000000
-59,17,29,1625816584.0,32.000000
-40,-1,37,1625816584.0,32.000000
-61,9,60,1625816584.0,32.000000
-34,12,55,1625816584.0,32.000000
-50,20,45,1625816584.0,32.000000
-51,15,38,1625816584.0,32.000000
-49,15,44,1625816584.0,32.000000
-48,13,46,1625816584.0,32.000000
-50,11,43,1625816584.0,32.000000
-51,10,41,1625816584.0,32.000000
-53,13,39,1625816584.0,32.000000
-52,16,42,1625816584.0,32.000000
-50,13,40,1625816584.0,32.000000
-53,15,37,1625816584.0,32.000000
-50,17,37,1625816584.0,32.000000
-54,17,37,1625816584.0,32.000000
-54,15,37,1625816584.0,32.000000
-51,15,38,1625816584.0,32.000000
-52,19,37,1625816584.0,32.000000
-50,19,37,1625816584.0,32.000000
-55,20,38,1625816584.0,32.000000
-53,16,40,1625816584.0,32.000000
-56,20,44,1625816584.0,32.000000
-44,16,39,1625816584.0,32.000000
-57,21,41,1625816584.0,32.000000
-46,21,43,1625816584.0,32.000000
-52,20,43,1625816584.0,32.000000
-44,23,43,1625816584.0,32.000000
-41,24,44,1625816584.0,32.000000
-43,27,45,1625816584.0,32.000000
-40,27,44,1625816584.0,32.000000
-40,28,45,1625816584.0,32.000000
-36,29,46,1625816584.0,32.000000
-34,30,47,1625816584.0,32.000000
-34,31,48,1625816584.0,32.000000
-31,32,48,1625816584.0,32.000000
-31,34,48,1625816584.0,32.000000
-30,34,47,1625816584.0,32.000000
-29,35,47,1625816584.0,32.000000
-29,36,47,1625816584.0,32.000000
-26,38,47,1625816584.0,32.000000
-26,38,47,1625816584.0,32.000000
-29,36,47,1625816584.0,32.000000
-27,36,48,1625816584.0,32.000000
-27,36,48,1625816584.0,32.000000
-27,38,47,1625816584.0,32.000000
-26,38,47,1625816584.0,32.000000
-26,38,47,1625816584.0,32.000000
-25,38,47,1625816584.0,32.000000
-25,38,47,1625816584.0,32.000000
-24,38,47,1625816584.0,32.000000
-25,38,48,1625816584.0,32.000000
-25,38,47,1625816584.0,32.000000
-26,39,46,1625816584.0,32.000000
-26,39,46,1625816584.0,32.000000
-25,39,46,1625816584.0,32.000000
-25,39,46,1625816584.0,32.000000
-26,39,45,1625816584.0,32.000000
-26,40,45,1625816584.0,32.000000
-25,39,46,1625816584.0,32.000000
-25,39,46,1625816584.0,32.000000
-25,39,46,1625816584.0,32.000000
-24,40,45,1625816584.0,32.000000
-24,40,46,1625816584.0,32.000000
-24,40,46,1625816584.0,32.000000
-24,41,45,1625816584.0,32.000000
-24,41,45,1625816584.0,32.000000
-25,40,46,1625816584.0,32.000000
-25,40,46,1625816584.0,32.000000
-24,40,46,1625816584.0,32.000000
-24,40,45,1625816584.0,32.000000
-24,41,45,1625816584.0,32.000000
-25,40,45,1625816584.0,32.000000
-24,40,45,1625816584.0,32.000000
-25,40,46,1625816584.0,32.000000
-27,40,45,1625816584.0,32.000000
-26,41,45,1625816584.0,32.000000
-24,41,45,1625816584.0,32.000000
-26,40,44,1625816584.0,32.000000
-24,41,45,1625816584.0,32.000000
-24,42,44,1625816584.0,32.000000
-24,42,44,1625816584.0,32.000000
-28,40,44,1625816584.0,32.000000
-28,39,45,1625816584.0,32.000000
-24,41,45,1625816584.0,32.000000
-22,43,44,1625816584.0,32.000000
-22,43,44,1625816584.0,32.000000
-21,43,44,1625816584.0,32.000000
-21,44,44,1625816584.0,32.000000
-17,44,45,1625816584.0,32.000000
-17,45,45,1625816584.0,32.000000
-16,45,45,1625816584.0,32.000000
-15,46,45,1625816584.0,32.000000
-16,46,44,1625816584.0,32.000000
-10,47,43,1625816584.0,32.000000
-11,46,43,1625816584.0,32.000000
-11,47,43,1625816584.0,32.000000
-10,47,43,1625816584.0,32.000000
-10,47,43,1625816584.0,32.000000
-11,47,43,1625816584.0,32.000000
-10,47,44,1625816584.0,32.000000
-9,47,43,1625816584.0,32.000000
-10,48,42,1625816584.0,32.000000
-10,49,41,1625816584.0,32.000000
-10,48,42,1625816584.0,32.000000
-11,48,42,1625816584.0,32.000000
-11,48,42,1625816584.0,32.000000
-12,48,42,1625816584.0,32.000000
-11,47,43,1625816584.0,32.000000
-13,48,43,1625816584.0,32.000000
-14,48,43,1625816584.0,32.000000
-14,47,43,1625816584.0,32.000000
-14,47,43,1625816584.0,32.000000
-16,47,43,1625816584.0,32.000000
-13,46,44,1625816584.0,32.000000
-14,46,44,1625816584.0,32.000000
-16,46,43,1625816584.0,32.000000
-16,46,43,1625816584.0,32.000000
-16,45,43,1625816584.0,32.000000
-16,45,44,1625816584.0,32.000000
-15,44,44,1625816584.0,32.000000
-24,45,44,1625816584.0,32.000000
-20,44,44,1625816584.0,32.000000
-18,44,44,1625816584.0,32.000000
-20,44,43,1625816584.0,32.000000
-19,44,44,1625816584.0,32.000000
-22,43,44,1625816584.0,32.000000
-21,44,44,1625816584.0,32.000000
-21,44,44,1625816584.0,32.000000
-20,45,44,1625816584.0,32.000000
-18,45,43,1625816584.0,32.000000
-19,44,43,1625816584.0,32.000000
-17,44,45,1625816584.0,32.000000
-18,44,45,1625816584.0,32.000000
-20,44,45,1625816584.0,32.000000
-20,44,45,1625816584.0,32.000000
-20,45,44,1625816584.0,32.000000
-16,45,45,1625816584.0,32.000000
-14,45,45,1625816584.0,32.000000
-12,47,43,1625816584.0,32.000000
-11,48,42,1625816584.0,32.000000
-9,46,44,1625816584.0,32.000000
-10,45,45,1625816584.0,32.000000
-10,44,45,1625816584.0,32.000000
-11,46,44,1625816584.0,32.000000
-12,48,43,1625816584.0,32.000000
-13,49,42,1625816584.0,32.000000
-12,49,42,1625816584.0,32.000000
-12,48,43,1625816584.0,32.000000
-11,48,42,1625816584.0,32.000000
-11,48,42,1625816584.0,32.000000
-11,47,43,1625816584.0,32.000000
-10,46,43,1625816584.0,32.000000
-10,46,44,1625816584.0,32.000000
-16,46,43,1625816584.0,32.000000
-16,46,44,1625816584.0,32.000000
-17,46,43,1625816584.0,32.000000
-18,46,43,1625816584.0,32.000000
-18,45,44,1625816584.0,32.000000
-19,44,44,1625816584.0,32.000000
-19,44,44,1625816584.0,32.000000
-19,44,44,1625816584.0,32.000000
-21,44,44,1625816584.0,32.000000
-22,44,43,1625816584.0,32.000000
-21,45,42,1625816584.0,32.000000
-19,45,42,1625816584.0,32.000000
-18,46,43,1625816584.0,32.000000
-18,46,43,1625816584.0,32.000000
-18,46,43,1625816584.0,32.000000
-17,46,44,1625816584.0,32.000000
-17,45,44,1625816584.0,32.000000
-16,45,44,1625816584.0,32.000000
-15,46,44,1625816584.0,32.000000
-14,46,44,1625816584.0,32.000000
-12,46,45,1625816584.0,32.000000
-11,46,45,1625816584.0,32.000000
-10,45,45,1625816584.0,32.000000
-9,45,45,1625816584.0,32.000000
-8,45,45,1625816584.0,32.000000
-10,46,45,1625816584.0,32.000000
-11,46,44,1625816584.0,32.000000
-11,46,44,1625816584.0,32.000000
-11,47,44,1625816584.0,32.000000
-11,46,44,1625816584.0,32.000000
-10,47,44,1625816584.0,32.000000
-13,48,42,1625816584.0,32.000000
-19,46,44,1625816584.0,32.000000
-15,46,43,1625816584.0,32.000000
-15,49,41,1625816584.0,32.000000
-24,42,45,1625816584.0,32.000000
-20,35,52,1625816584.0,32.000000
-23,36,50,1625816584.0,32.000000
-26,37,48,1625816584.0,32.000000
-24,34,51,1625816584.0,32.000000
-24,35,50,1625816584.0,32.000000
-18,38,49,1625816584.0,32.000000
-19,35,50,1625816584.0,32.000000
-21,37,50,1625816584.0,32.000000
-19,38,49,1625816584.0,32.000000
-22,38,49,1625816584.0,32.000000
-23,38,49,1625816584.0,32.000000
-24,37,49,1625816584.0,32.000000
-23,36,50,1625816584.0,32.000000
-24,33,52,1625816584.0,32.000000
-24,32,52,1625816584.0,32.000000
-23,28,54,1625816584.0,32.000000
-24,28,54,1625816584.0,32.000000
-25,28,53,1625816584.0,32.000000
-26,28,53,1625816584.0,32.000000
-27,27,53,1625816584.0,32.000000
-29,23,53,1625816584.0,32.000000
-31,23,53,1625816584.0,32.000000
-32,22,52,1625816584.0,32.000000
-32,18,54,1625816584.0,32.000000
-35,18,53,1625816584.0,32.000000
-35,15,55,1625816584.0,32.000000
-35,11,62,1625816584.0,32.000000
-31,22,67,1625816584.0,32.000000
-41,20,45,1625816584.0,32.000000
-44,15,39,1625816584.0,32.000000
-48,12,34,1625816584.0,32.000000
-57,8,29,1625816584.0,32.000000
-55,8,35,1625816584.0,32.000000
-48,1,55,1625816584.0,32.000000
-36,5,54,1625816584.0,32.000000
-52,3,44,1625816584.0,32.000000
-44,4,47,1625816584.0,32.000000
-45,6,46,1625816584.0,32.000000
-46,4,51,1625816584.0,32.000000
-49,-1,48,1625816584.0,32.000000
-52,-1,42,1625816584.0,32.000000
-53,0,38,1625816584.0,32.000000
-55,-2,41,1625816584.0,32.000000
-51,0,42,1625816584.0,32.000000
-51,1,43,1625816584.0,32.000000
-48,1,43,1625816584.0,32.000000
-53,-2,47,1625816584.0,32.000000
-52,-3,43,1625816584.0,32.000000
-53,0,39,1625816584.0,32.000000
-53,1,38,1625816584.0,32.000000
-51,5,39,1625816584.0,32.000000
-55,2,44,1625816584.0,32.000000
-49,3,45,1625816584.0,32.000000
-51,5,44,1625816584.0,32.000000
-51,5,42,1625816584.0,32.000000
-52,7,44,1625816584.0,32.000000
-51,5,47,1625816584.0,32.000000
-47,12,51,1625816584.0,32.000000
-53,14,46,1625816584.0,32.000000
-49,11,46,1625816584.0,32.000000
-36,17,49,1625816584.0,32.000000
-24,9,56,1625816584.0,32.000000
-56,20,50,1625816584.0,32.000000
-53,10,47,1625816584.0,32.000000
-48,6,41,1625816584.0,32.000000
-42,8,43,1625816584.0,32.000000
-53,15,43,1625816584.0,32.000000
-38,7,50,1625816584.0,32.000000
-35,6,45,1625816584.0,32.000000
-43,9,41,1625816584.0,32.000000
-38,8,42,1625816584.0,32.000000
-30,7,45,1625816584.0,32.000000
-30,6,39,1625816584.0,32.000000
-27,9,29,1625816584.0,32.000000
-37,28,26,1625816584.0,32.000000
-26,-76,14,1625816584.0,32.000000
-30,47,56,1625816584.0,32.000000
-38,1,61,1625816584.0,32.000000
-26,17,58,1625816584.0,32.000000
-39,16,59,1625816584.0,32.000000
-35,20,60,1625816584.0,32.000000
-35,9,52,1625816584.0,32.000000
-39,15,54,1625816584.0,32.000000
-35,15,55,1625816584.0,32.000000
-34,13,55,1625816584.0,32.000000
-28,14,56,1625816584.0,32.000000
-30,13,59,1625816584.0,32.000000
-31,12,58,1625816584.0,32.000000
-32,10,56,1625816584.0,32.000000
-34,11,55,1625816584.0,32.000000
-35,12,55,1625816584.0,32.000000
-34,13,55,1625816584.0,32.000000
-31,12,55,1625816584.0,32.000000
-33,11,57,1625816584.0,32.000000
-33,7,56,1625816584.0,32.000000
-32,7,56,1625816584.0,32.000000
-33,7,56,1625816584.0,32.000000
-34,7,56,1625816584.0,32.000000
-37,8,55,1625816584.0,32.000000
-38,-4,62,1625816584.0,32.000000
-50,8,84,1625816584.0,32.000000
-88,60,97,1625816584.0,32.000000
-92,17,87,1625816584.0,32.000000
-31,16,88,1625816584.0,32.000000
-59,51,64,1625816584.0,32.000000
-29,17,66,1625816584.0,32.000000
-28,12,63,1625816584.0,32.000000
-19,6,34,1625816584.0,32.000000
-2,0,26,1625816584.0,32.000000
-5,0,31,1625816584.0,32.000000
11,-19,24,1625816584.0,32.000000
16,-29,22,1625816584.0,32.000000
17,-39,21,1625816584.0,32.000000
9,-48,31,1625816584.0,32.000000
42,-54,48,1625816584.0,32.000000
39,-54,38,1625816584.0,32.000000
60,-67,38,1625816584.0,32.000000
43,-65,41,1625816584.0,32.000000
39,-66,41,1625816584.0,32.000000
36,-47,37,1625816584.0,32.000000
11,-32,38,1625816584.0,32.000000
3,-22,46,1625816584.0,32.000000
8,-16,51,1625816584.0,32.000000
11,-7,55,1625816584.0,32.000000
-10,3,47,1625816584.0,32.000000
-9,15,65,1625816584.0,32.000000
-11,20,70,1625816584.0,32.000000
-24,26,64,1625816584.0,32.000000
-22,22,65,1625816584.0,32.000000
-20,21,59,1625816584.0,32.000000
-20,15,51,1625816584.0,32.000000
-8,8,47,1625816584.0,32.000000
-1,-3,53,1625816584.0,32.000000
1,-5,52,1625816584.0,32.000000
0,-4,55,1625816584.0,32.000000
-1,-20,50,1625816584.0,32.000000
3,-19,55,1625816584.0,32.000000
1,-26,63,1625816584.0,32.000000
1,-25,68,1625816584.0,32.000000
-4,-10,76,1625816584.0,32.000000
-11,1,73,1625816584.0,32.000000
-25,4,71,1625816584.0,32.000000
-35,16,77,1625816584.0,32.000000
-45,22,66,1625816584.0,32.000000
-47,17,63,1625816584.0,32.000000
-43,16,67,1625816584.0,32.000000
-36,13,63,1625816584.0,32.000000
-34,12,57,1625816584.0,32.000000
-40,12,52,1625816584.0,32.000000
-40,13,48,1625816584.0,32.000000
-33,14,50,1625816584.0,32.000000
-30,17,49,1625816584.0,32.000000
-40,23,45,1625816584.0,32.000000
-41,24,45,1625816584.0,32.000000
-28,19,46,1625816584.0,32.000000
-30,20,39,1625816584.0,32.000000
-44,32,56,1625816584.0,32.000000
-37,25,49,1625816584.0,32.000000
-36,19,44,1625816584.0,32.000000
-31,14,46,1625816584.0,32.000000
-20,4,53,1625816584.0,32.000000
-25,14,45,1625816584.0,32.000000
-80,97,127,1625816584.0,32.000000
-55,17,107,1625816584.0,32.000000
-39,32,55,1625816584.0,32.000000
-27,47,26,1625816584.0,32.000000
-23,38,57,1625816584.0,32.000000
-33,28,48,1625816584.0,32.000000
-34,29,50,1625816584.0,32.000000
-31,29,50,1625816584.0,32.000000
-28,31,51,1625816584.0,32.000000
-28,33,48,1625816584.0,32.000000
-29,32,50,1625816584.0,32.000000
-31,30,50,1625816584.0,32.000000
-30,31,49,1625816584.0,32.000000
-30,32,49,1625816584.0,32.000000
-31,32,49,1625816584.0,32.000000
-29,31,49,1625816584.0,32.000000
-29,30,50,1625816584.0,32.000000
-30,30,49,1625816584.0,32.000000
-31,31,49,1625816584.0,32.000000
-32,30,50,1625816584.0,32.000000
-32,29,51,1625816584.0,32.000000
-30,28,51,1625816584.0,32.000000
-30,29,50,1625816584.0,32.000000
-30,29,50,1625816584.0,32.000000
-35,31,50,1625816584.0,32.000000
-33,29,49,1625816584.0,32.000000
-28,28,51,1625816584.0,32.000000
-30,31,49,1625816584.0,32.000000
-31,31,49,1625816584.0,32.000000
-31,29,51,1625816584.0,32.000000
-31,28,51,1625816584.0,32.000000
-32,31,50,1625816584.0,32.000000
-29,31,50,1625816584.0,32.000000
-29,30,50,1625816584.0,32.000000
-30,33,49,1625816584.0,32.000000
-31,33,49,1625816584.0,32.000000
-30,31,49,1625816584.0,32.000000
-29,32,49,1625816584.0,32.000000
-30,32,49,1625816584.0,32.000000
-30,32,49,1625816584.0,32.000000
-29,32,49,1625816584.0,32.000000
-30,33,48,1625816584.0,32.000000
-29,33,48,1625816584.0,32.000000
-29,33,49,1625816584.0,32.000000
-30,33,49,1625816584.0,32.000000
-30,33,49,1625816584.0,32.000000
-30,33,48,1625816584.0,32.000000
-30,32,49,1625816584.0,32.000000
-30,32,49,1625816584.0,32.000000
-30,32,49,1625816584.0,32.000000
-30,32,49,1625816584.0,32.000000
-30,33,49,1625816584.0,32.000000
-30,32,49,1625816584.0,32.000000
-30,33,49,1625816584.0,32.000000
-30,33,48,1625816584.0,32.000000
-30,32,49,1625816584.0,32.000000
-31,32,49,1625816584.0,32.000000
-30,32,49,1625816584.0,32.000000
-30,32,49,1625816584.0,32.000000
-30,31,49,1625816584.0,32.000000
-31,31,49,1625816584.0,32.000000
-30,31,49,1625816584.0,32.000000
-30,31,49,1625816584.0,32.000000
-30,31,49,1625816584.0,32.000000
-32,31,49,1625816584.0,32.000000
-30,32,48,1625816584.0,32.000000
-30,32,49,1625816584.0,32.000000
-31,31,49,1625816584.0,32.000000
-31,31,49,1625816584.0,32.000000
-31,31,49,1625816584.0,32.000000
-31,31,49,1625816584.0,32.000000
-32,31,49,1625816584.0,32.000000
-31,30,49,1625816584.0,32.000000
-31,30,49,1625816584.0,32.000000
-31,30,49,1625816584.0,32.000000
-32,30,49,1625816584.0,32.000000
-32,30,49,1625816584.0,32.000000
-31,30,49,1625816584.0,32.000000
-32,30,49,1625816584.0,32.000000
-32,30,49,1625816584.0,32.000000
-32,30,49,1625816584.0,32.000000
-32,30,49,1625816584.0,32.000000
-32,30,49,1625816584.0,32.000000
-32,30,49,1625816584.0,32.000000
-32,30,49,1625816584.0,32.000000
-32,31,49,1625816584.0,32.000000
-32,30,49,1625816584.0,32.000000
-32,30,49,1625816584.0,32.000000
-32,30,49,1625816584.0,32.000000
-32,30,49,1625816584.0,32.000000
-32,30,49,1625816584.0,32.000000
-32,30,49,1625816584.0,32.000000
-32,30,49,1625816584.0,32.000000
-32,30,49,1625816584.0,32.000000
-32,30,49,1625816584.0,32.000000
-32,30,49,1625816584.0,32.000000
-32,30,49,1625816584.0,32.000000
-32,30,49,1625816584.0,32.000000
-32,31,48,1625816584.0,32.000000
-32,30,49,1625816584.0,32.000000
-32,30,49,1625816584.0,32.000000
-31,31,49,1625816584.0,32.000000
-31,31,49,1625816584.0,32.000000
-32,31,49,1625816584.0,32.000000
-32,31,49,1625816584.0,32.000000
-32,31,48,1625816584.0,32.000000
-32,31,49,1625816584.0,32.000000
-31,31,49,1625816584.0,32.000000
-31,31,49,1625816584.0,32.000000
-31,31,49,1625816584.0,32.000000
-31,31,48,1625816584.0,32.000000
-31,31,48,1625816584.0,32.000000
-31,31,49,1625816584.0,32.000000
-31,31,48,1625816584.0,32.000000
-31,31,49,1625816584.0,32.000000
-32,31,49,1625816584.0,32.000000
-31,31,49,1625816584.0,32.000000
-31,31,49,1625816584.0,32.000000
-32,30,49,1625816584.0,32.000000
-32,30,49,1625816584.0,32.000000
-32,30,49,1625816584.0,32.000000
-32,31,49,1625816584.0,32.000000
-32,31,49,1625816584.0,32.000000
-32,31,49,1625816584.0,32.000000
-32,31,48,1625816584.0,32.000000
-31,32,48,1625816584.0,32.000000
-31,32,48,1625816584.0,32.000000
-31,32,48,1625816584.0,32.000000
-31,32,48,1625816584.0,32.000000
-31,32,48,1625816584.0,32.000000
-31,32,48,1625816584.0,32.000000
-31,32,48,1625816584.0,32.000000
-31,32,48,1625816584.0,32.000000
-31,32,48,1625816584.0,32.000000
-31,33,48,1625816584.0,32.000000
-30,33,48,1625816584.0,32.000000
-29,33,48,1625816584.0,32.000000
-32,32,48,1625816584.0,32.000000
-30,33,48,1625816584.0,32.000000
-29,34,48,1625816584.0,32.000000
-30,34,48,1625816584.0,32.000000
-30,33,48,1625816584.0,32.000000
-30,33,48,1625816584.0,32.000000
-31,33,48,1625816584.0,32.000000
-30,34,48,1625816584.0,32.000000
-29,34,48,1625816584.0,32.000000
-30,34,48,1625816584.0,32.000000
-30,34,48,1625816584.0,32.000000
-30,34,47,1625816584.0,32.000000
-29,34,48,1625816584.0,32.000000
-29,34,47,1625816584.0,32.000000
-29,34,48,1625816584.0,32.000000
-30,34,48,1625816584.0,32.000000
-29,34,48,1625816584.0,32.000000
-29,34,48,1625816584.0,32.000000
-32,34,49,1625816584.0,32.000000
-34,33,50,1625816584.0,32.000000
-34,30,54,1625816584.0,32.000000
-60,15,62,1625816584.0,32.000000
-44,7,64,1625816584.0,32.000000
-49,22,54,1625816584.0,32.000000
-57,27,57,1625816584.0,32.000000
-68,26,45,1625816584.0,32.000000
-54,24,46,1625816584.0,32.000000
-47,18,45,1625816584.0,32.000000
-32,10,46,1625816584.0,32.000000
-29,9,48,1625816584.0,32.000000
-24,4,48,1625816584.0,32.000000
-28,2,46,1625816584.0,32.000000
-23,3,45,1625816584.0,32.000000
-49,12,48,1625816584.0,32.000000
-53,14,52,1625816584.0,32.000000
-45,11,45,1625816584.0,32.000000
-49,22,34,1625816584.0,32.000000
-59,31,36,1625816584.0,32.000000
-51,18,35,1625816584.0,32.000000
-44,20,31,1625816584.0,32.000000
-15,16,31,1625816584.0,32.000000
-6,18,32,1625816584.0,32.000000
-65,58,89,1625816584.0,32.000000
33,16,86,1625816584.0,32.000000
-16,12,58,1625816584.0,32.000000
-61,12,44,1625816584.0,32.000000
-37,8,58,1625816584.0,32.000000
-47,19,61,1625816584.0,32.000000
-42,19,49,1625816584.0,32.000000
-45,22,46,1625816584.0,32.000000
-23,14,53,1625816584.0,32.000000
-35,13,20,1625816584.0,32.000000
-14,14,15,1625816584.0,32.000000
-23,24,33,1625816584.0,32.000000
-125,76,127,1625816584.0,32.000000
-1,4,70,1625816584.0,32.000000
-26,7,69,1625816584.0,32.000000
-36,22,49,1625816584.0,32.000000
-38,25,53,1625816584.0,32.000000
-25,20,53,1625816584.0,32.000000
-30,19,57,1625816584.0,32.000000
-24,14,60,1625816584.0,32.000000
-34,16,55,1625816584.0,32.000000
-38,19,50,1625816584.0,32.000000
-39,18,50,1625816584.0,32.000000
-38,17,52,1625816584.0,32.000000
-29,13,59,1625816584.0,32.000000
-35,15,54,1625816584.0,32.000000
-41,17,48,1625816584.0,32.000000
-37,18,50,1625816584.0,32.000000
-34,18,54,1625816584.0,32.000000
-33,18,54,1625816584.0,32.000000
-36,16,54,1625816584.0,32.000000
-37,17,51,1625816584.0,32.000000
-39,17,50,1625816584.0,32.000000
-33,16,54,1625816584.0,32.000000
-34,16,55,1625816584.0,32.000000
-34,16,54,1625816584.0,32.000000
-33,16,55,1625816584.0,32.000000
-35,16,53,1625816584.0,32.000000
-39,18,50,1625816584.0,32.000000
-39,18,51,1625816584.0,32.000000
-45,15,45,1625816584.0,32.000000
-42,15,49,1625816584.0,32.000000
-43,15,48,1625816584.0,32.000000
-40,11,50,1625816584.0,32.000000
-36,8,55,1625816584.0,32.000000
-33,6,58,1625816584.0,32.000000
-36,8,53,1625816584.0,32.000000
-34,10,57,1625816584.0,32.000000
-33,19,57,1625816584.0,32.000000
-39,27,50,1625816584.0,32.000000
-39,18,47,1625816584.0,32.000000
-40,18,49,1625816584.0,32.000000
-36,16,52,1625816584.0,32.000000
-36,17,53,1625816584.0,32.000000
-37,16,52,1625816584.0,32.000000
-40,18,49,1625816584.0,32.000000
-40,17,50,1625816584.0,32.000000
-39,17,51,1625816584.0,32.000000
-36,16,53,1625816584.0,32.000000
-36,17,54,1625816584.0,32.000000
-43,18,46,1625816584.0,32.000000
-45,18,45,1625816584.0,32.000000
-44,19,46,1625816584.0,32.000000
-42,20,47,1625816584.0,32.000000
-40,19,49,1625816584.0,32.000000
-39,18,49,1625816584.0,32.000000
-41,18,48,1625816584.0,32.000000
-42,18,48,1625816584.0,32.000000
-39,19,50,1625816584.0,32.000000
-38,19,50,1625816584.0,32.000000
-38,18,51,1625816584.0,32.000000
-39,19,50,1625816584.0,32.000000
-40,18,50,1625816584.0,32.000000
-40,18,49,1625816584.0,32.000000
-40,18,49,1625816584.0,32.000000
-40,18,49,1625816584.0,32.000000
-40,18,50,1625816584.0,32.000000
-40,17,50,1625816584.0,32.000000
-40,17,49,1625816584.0,32.000000
-40,18,50,1625816584.0,32.000000
-39,17,50,1625816584.0,32.000000
-40,18,50,1625816584.0,32.000000
-39,18,50,1625816584.0,32.000000
-40,17,50,1625816584.0,32.000000
-40,16,50,1625816584.0,32.000000
-40,16,50,1625816584.0,32.000000
-40,17,50,1625816584.0,32.000000
-40,16,50,1625816584.0,32.000000
-41,16,49,1625816584.0,32.000000
-41,16,49,1625816584.0,32.000000
-41,16,50,1625816584.0,32.000000
-41,15,50,1625816584.0,32.000000
-41,16,49,1625816584.0,32.000000
-42,15,50,1625816584.0,32.000000
-41,15,49,1625816584.0,32.000000
-41,15,50,1625816584.0,32.000000
-41,15,49,1625816584.0,32.000000
-41,14,50,1625816584.0,32.000000
-42,14,49,1625816584.0,32.000000
-42,14,49,1625816584.0,32.000000
-43,13,49,1625816584.0,32.000000
-43,13,49,1625816584.0,32.000000
-42,13,49,1625816584.0,32.000000
-42,14,49,1625816584.0,32.000000
-42,13,49,1625816584.0,32.000000
-43,13,48,1625816584.0,32.000000
-43,13,49,1625816584.0,32.000000
-43,12,49,1625816584.0,32.000000
-43,13,49,1625816584.0,32.000000
-43,13,48,1625816584.0,32.000000
-43,13,49,1625816584.0,32.000000
-43,13,48,1625816584.0,32.000000
-43,13,49,1625816584.0,32.000000
-43,13,49,1625816584.0,32.000000
-43,13,49,1625816584.0,32.000000
-43,13,49,1625816584.0,32.000000
-43,13,49,1625816584.0,32.000000
-43,13,49,1625816584.0,32.000000
-42,13,49,1625816584.0,32.000000
-42,13,49,1625816584.0,32.000000
-42,13,49,1625816584.0,32.000000
-42,13,49,1625816584.0,32.000000
-42,13,49,1625816584.0,32.000000
-42,14,49,1625816584.0,32.000000
-42,13,49,1625816584.0,32.000000
-42,14,49,1625816584.0,32.000000
-42,13,49,1625816584.0,32.000000
-42,13,49,1625816584.0,32.000000
-43,13,49,1625816584.0,32.000000
-42,14,49,1625816584.0,32.000000
-42,14,49,1625816584.0,32.000000
-42,14,49,1625816584.0,32.000000
-42,14,49,1625816584.0,32.000000
-42,14,49,1625816584.0,32.000000
-42,13,49,1625816584.0,32.000000
-42,14,49,1625816584.0,32.000000
-42,14,50,1625816584.0,32.000000
-42,14,49,1625816584.0,32.000000
-42,13,49,1625816584.0,32.000000
-42,14,50,1625816584.0,32.000000
-42,13,49,1625816584.0,32.000000
-41,13,49,1625816584.0,32.000000
-42,14,49,1625816584.0,32.000000
-42,14,49,1625816584.0,32.000000
-42,13,49,1625816584.0,32.000000
-42,14,49,1625816584.0,32.000000
-42,13,49,1625816584.0,32.000000
-42,14,49,1625816584.0,32.000000
-42,14,49,1625816584.0,32.000000
-42,14,49,1625816584.0,32.000000
-42,14,49,1625816584.0,32.000000
-42,14,49,1625816584.0,32.000000
-42,13,49,1625816584.0,32.000000
-42,13,49,1625816584.0,32.000000
-42,13,49,1625816584.0,32.000000
-43,13,49,1625816584.0,32.000000
-42,14,49,1625816584.0,32.000000
-42,14,49,1625816584.0,32.000000
-42,13,48,1625816584.0,32.000000
-41,12,48,1625816584.0,32.000000
-42,14,49,1625816584.0,32.000000
-42,13,49,1625816584.0,32.000000
-43,14,50,1625816584.0,32.000000
-41,13,49,1625816584.0,32.000000
-43,14,49,1625816584.0,32.000000
-42,13,49,1625816584.0,32.000000
-42,13,49,1625816584.0,32.000000
-42,14,49,1625816584.0,32.000000
-42,14,49,1625816584.0,32.000000
-42,13,49,1625816584.0,32.000000
-42,13,49,1625816584.0,32.000000
-42,13,49,1625816584.0,32.000000
-42,14,49,1625816584.0,32.000000
-43,13,49,1625816584.0,32.000000
-42,13,49,1625816584.0,32.000000
-42,13,49,1625816584.0,32.000000
-43,13,49,1625816584.0,32.000000
-42,13,49,1625816584.0,32.000000
-42,13,49,1625816584.0,32.000000
-42,13,49,1625816584.0,32.000000
-42,13,49,1625816584.0,32.000000
-42,13,49,1625816584.0,32.000000
-42,13,49,1625816584.0,32.000000
-42,13,49,1625816584.0,32.000000
-43,13,49,1625816584.0,32.000000
-42,13,49,1625816584.0,32.000000
-43,13,49,1625816584.0,32.000000
-43,13,49,1625816584.0,32.000000
-43,13,49,1625816584.0,32.000000
-42,13,49,1625816584.0,32.000000
-43,13,49,1625816584.0,32.000000
-43,13,49,1625816584.0,32.000000
-42,13,49,1625816584.0,32.000000
-42,13,49,1625816584.0,32.000000
-43,13,48,1625816584.0,32.000000
-42,13,49,1625816584.0,32.000000
-43,13,49,1625816584.0,32.000000
-43,13,49,1625816584.0,32.000000
-43,13,49,1625816584.0,32.000000
-42,13,49,1625816584.0,32.000000
-42,13,49,1625816584.0,32.000000
-43,13,49,1625816584.0,32.000000
-42,13,49,1625816584.0,32.000000
-43,13,49,1625816584.0,32.000000
-43,13,49,1625816584.0,32.000000
-42,13,49,1625816584.0,32.000000
-43,13,49,1625816584.0,32.000000
-42,13,49,1625816584.0,32.000000
-43,13,49,1625816584.0,32.000000
-43,13,49,1625816584.0,32.000000
-43,13,49,1625816584.0,32.000000
-43,13,49,1625816584.0,32.000000
-42,13,49,1625816584.0,32.000000
-43,13,49,1625816584.0,32.000000
-43,13,49,1625816584.0,32.000000
-43,13,49,1625816584.0,32.000000
-43,13,49,1625816584.0,32.000000
-43,13,49,1625816584.0,32.000000
-43,13,49,1625816584.0,32.000000
-42,13,49,1625816584.0,32.000000
-43,13,49,1625816584.0,32.000000
-43,13,49,1625816584.0,32.000000
-43,13,49,1625816584.0,32.000000
-43,13,49,1625816584.0,32.000000
-43,13,49,1625816584.0,32.000000
-43,13,49,1625816584.0,32.000000
-43,13,49,1625816584.0,32.000000
-43,13,49,1625816584.0,32.000000
-43,13,49,1625816584.0,32.000000
-43,13,49,1625816584.0,32.000000
-43,13,49,1625816584.0,32.000000
-43,13,49,1625816584.0,32.000000
-43,13,49,1625816584.0,32.000000
-43,13,49,1625816584.0,32.000000
-43,13,49,1625816584.0,32.000000
-43,13,49,1625816584.0,32.000000
-43,13,49,1625816584.0,32.000000
-43,13,49,1625816584.0,32.000000
-43,13,49,1625816584.0,32.000000
-43,13,49,1625816584.0,32.000000
-43,13,49,1625816584.0,32.000000
-43,13,49,1625816584.0,32.000000
-43,13,49,1625816584.0,32.000000
-43,13,49,1625816584.0,32.000000
-43,13,49,1625816584.0,32.000000
-43,13,49,1625816584.0,32.000000
-43,13,48,1625816584.0,32.000000
-43,13,49,1625816584.0,32.000000
-43,13,49,1625816584.0,32.000000
-43,13,49,1625816584.0,32.000000
-43,13,49,1625816584.0,32.000000
-42,13,49,1625816584.0,32.000000
-43,13,49,1625816584.0,32.000000
-43,13,48,1625816584.0,32.000000
-43,13,49,1625816584.0,32.000000
-43,13,49,1625816584.0,32.000000
-43,13,49,1625816584.0,32.000000
-43,13,49,1625816584.0,32.000000
-43,13,49,1625816584.0,32.000000
-43,13,49,1625816584.0,32.000000
-43,13,49,1625816584.0,32.000000
-43,13,49,1625816584.0,32.000000
-43,13,49,1625816584.0,32.000000
-43,13,49,1625816584.0,32.000000
-43,13,49,1625816584.0,32.000000
-43,13,49,1625816584.0,32.000000
-43,13,49,1625816584.0,32.000000
-43,13,49,1625816584.0,32.000000
-43,13,49,1625816584.0,32.000000
-43,13,49,1625816584.0,32.000000
-43,13,49,1625816584.0,32.000000
-43,13,49,1625816584.0,32.000000
-43,13,49,1625816584.0,32.000000
-43,13,48,1625816584.0,32.000000
-43,13,49,1625816584.0,32.000000
-43,13,49,1625816584.0,32.000000
-43,13,48,1625816584.0,32.000000
-43,13,49,1625816584.0,32.000000
-43,13,49,1625816584.0,32.000000
-43,13,48,1625816584.0,32.000000
-43,13,48,1625816584.0,32.000000
-43,13,49,1625816584.0,32.000000
-43,13,49,1625816584.0,32.000000
-43,13,49,1625816584.0,32.000000
-43,13,49,1625816584.0,32.000000
-43,13,49,1625816584.0,32.000000
-43,13,49,1625816584.0,32.000000
-43,13,49,1625816584.0,32.000000
-43,13,49,1625816584.0,32.000000
-43,13,49,1625816584.0,32.000000
-43,13,49,1625816584.0,32.000000
-43,13,48,1625816584.0,32.000000
-43,13,49,1625816584.0,32.000000
-43,13,49,1625816584.0,32.000000
-43,13,48,1625816584.0,32.000000
-43,13,49,1625816584.0,32.000000
-43,13,49,1625816584.0,32.000000
-43,13,49,1625816584.0,32.000000
-43,13,48,1625816584.0,32.000000
-43,13,49,1625816584.0,32.000000
-43,13,49,1625816584.0,32.000000
-43,13,48,1625816584.0,32.000000
-43,13,48,1625816584.0,32.000000
-43,13,49,1625816584.0,32.000000
-43,13,49,1625816584.0,32.000000
-43,13,49,1625816584.0,32.000000
-43,13,48,1625816584.0,32.000000
-43,13,49,1625816584.0,32.000000
-43,13,49,1625816584.0,32.000000
-43,13,49,1625816584.0,32.000000
-43,13,49,1625816584.0,32.000000
-43,13,49,1625816584.0,32.000000
-43,13,49,1625816584.0,32.000000
-43,13,49,1625816584.0,32.000000
-43,13,49,1625816584.0,32.000000
-43,13,48,1625816584.0,32.000000
-43,13,49,1625816584.0,32.000000
-43,13,49,1625816584.0,32.000000
-43,13,49,1625816584.0,32.000000
-43,13,49,1625816584.0,32.000000
-43,13,49,1625816584.0,32.000000
-43,13,49,1625816584.0,32.000000
-43,13,48,1625816584.0,32.000000
-43,13,49,1625816584.0,32.000000
-43,13,49,1625816584.0,32.000000
-43,13,49,1625816584.0,32.000000
-43,13,49,1625816584.0,32.000000
-43,13,49,1625816584.0,32.000000
-43,13,48,1625816584.0,32.000000
-43,13,49,1625816584.0,32.000000
-43,13,49,1625816584.0,32.000000
-43,13,48,1625816584.0,32.000000
-43,13,49,1625816584.0,32.000000
-43,13,48,1625816584.0,32.000000
-43,13,48,1625816584.0,32.000000
-43,13,49,1625816584.0,32.000000
-43,13,48,1625816584.0,32.000000
-43,13,48,1625816584.0,32.000000
-43,13,48,1625816584.0,32.000000
-43,13,48,1625816584.0,32.000000
-43,13,49,1625816584.0,32.000000
-43,13,48,1625816584.0,32.000000
-43,13,49,1625816584.0,32.000000
-43,13,49,1625816584.0,32.000000
-43,13,49,1625816584.0,32.000000
-43,13,49,1625816584.0,32.000000
-43,13,49,1625816584.0,32.000000
-43,13,49,1625816584.0,32.000000
-43,13,49,1625816584.0,32.000000
-43,13,48,1625816584.0,32.000000
-43,13,49,1625816584.0,32.000000
-43,13,49,1625816584.0,32.000000
-43,13,49,1625816584.0,32.000000
-43,13,49,1625816584.0,32.000000
-43,13,48,1625816584.0,32.000000
-43,13,49,1625816584.0,32.000000
-43,13,49,1625816584.0,32.000000
-43,12,49,1625816584.0,32.000000
-43,13,48,1625816584.0,32.000000
-43,13,49,1625816584.0,32.000000
-43,13,48,1625816584.0,32.000000
-43,13,48,1625816584.0,32.000000
-43,13,49,1625816584.0,32.000000
-43,13,48,1625816584.0,32.000000
-43,13,49,1625816584.0,32.000000
-43,13,48,1625816584.0,32.000000
-43,13,49,1625816584.0,32.000000
-43,13,49,1625816584.0,32.000000
-43,13,49,1625816584.0,32.000000
-43,13,49,1625816584.0,32.000000
-43,13,49,1625816584.0,32.000000
-43,13,48,1625816584.0,32.000000
-43,13,49,1625816584.0,32.000000
-43,13,49,1625816584.0,32.000000
-43,13,49,1625816584.0,32.000000
-43,13,49,1625816584.0,32.000000
-43,12,49,1625816584.0,32.000000
-43,12,48,1625816584.0,32.000000
-43,12,48,1625816584.0,32.000000
-43,12,48,1625816584.0,32.000000
-43,12,48,1625816584.0,32.000000
-43,12,49,1625816584.0,32.000000
-43,14,49,1625816584.0,32.000000
-42,12,49,1625816584.0,32.000000
-43,13,48,1625816584.0,32.000000
-44,13,48,1625816584.0,32.000000
-43,13,48,1625816584.0,32.000000
-44,12,48,1625816584.0,32.000000
-43,12,48,1625816584.0,32.000000
-43,13,49,1625816584.0,32.000000
-44,13,48,1625816584.0,32.000000
-45,13,46,1625816584.0,32.000000
-45,12,47,1625816584.0,32.000000
-44,13,47,1625816584.0,32.000000
-43,13,49,1625816584.0,32.000000
-43,13,48,1625816584.0,32.000000
-43,12,49,1625816584.0,32.000000
-42,12,49,1625816584.0,32.000000
-40,11,51,1625816584.0,32.000000
-46,11,46,1625816584.0,32.000000
-49,11,44,1625816584.0,32.000000
-47,10,45,1625816584.0,32.000000
-46,10,47,1625816584.0,32.000000
-43,10,49,1625816584.0,32.000000
-47,9,45,1625816584.0,32.000000
-48,9,45,1625816584.0,32.000000
-46,8,46,1625816584.0,32.000000
-48,6,45,1625816584.0,32.000000
-49,5,45,1625816584.0,32.000000
-51,2,42,1625816584.0,32.000000
-53,1,40,1625816584.0,32.000000
-52,3,42,1625816584.0,32.000000
-51,2,42,1625816584.0,32.000000
-50,2,43,1625816584.0,32.000000
-50,2,43,1625816584.0,32.000000
-50,2,43,1625816584.0,32.000000
-50,3,43,1625816584.0,32.000000
-42,-2,51,1625816584.0,32.000000
-43,-5,49,1625816584.0,32.000000
-48,9,50,1625816584.0,32.000000
-44,10,47,1625816584.0,32.000000
-14,38,65,1625816584.0,32.000000
-19,19,61,1625816584.0,32.000000
-49,20,46,1625816584.0,32.000000
-27,9,51,1625816584.0,32.000000
-35,16,60,1625816584.0,32.000000
-38,10,49,1625816584.0,32.000000
-41,15,50,1625816584.0,32.000000
-34,12,53,1625816584.0,32.000000
-36,12,53,1625816584.0,32.000000
-38,13,52,1625816584.0,32.000000
-39,13,53,1625816584.0,32.000000
-38,11,52,1625816584.0,32.000000
-39,11,52,1625816584.0,32.000000
-38,12,53,1625816584.0,32.000000
-38,13,52,1625816584.0,32.000000
-37,12,53,1625816584.0,32.000000
-39,12,52,1625816584.0,32.000000
-41,11,50,1625816584.0,32.000000
-36,12,53,1625816584.0,32.000000
-38,13,52,1625816584.0,32.000000
-36,13,54,1625816584.0,32.000000
-39,13,53,1625816584.0,32.000000
-34,10,55,1625816584.0,32.000000
-36,12,56,1625816584.0,32.000000
-40,9,52,1625816584.0,32.000000
-38,7,53,1625816584.0,32.000000
-39,9,52,1625816584.0,32.000000
-42,10,49,1625816584.0,32.000000
-39,10,53,1625816584.0,32.000000
-35,10,55,1625816584.0,32.000000
-37,11,53,1625816584.0,32.000000
-38,12,53,1625816584.0,32.000000
-41,13,49,1625816584.0,32.000000
-40,11,51,1625816584.0,32.000000
-39,13,53,1625816584.0,32.000000
-38,13,52,1625816584.0,32.000000
-40,11,51,1625816584.0,32.000000
-40,9,51,1625816584.0,32.000000
-38,8,53,1625816584.0,32.000000
-39,9,52,1625816584.0,32.000000
-36,8,54,1625816584.0,32.000000
-36,10,55,1625816584.0,32.000000
-39,10,52,1625816584.0,32.000000
-39,10,52,1625816584.0,32.000000
-42,11,50,1625816584.0,32.000000
-36,9,55,1625816584.0,32.000000
-38,9,54,1625816584.0,32.000000
-37,12,54,1625816584.0,32.000000
-35,10,55,1625816584.0,32.000000
-39,6,52,1625816584.0,32.000000
-47,7,45,1625816584.0,32.000000
-49,5,43,1625816584.0,32.000000
-52,3,40,1625816584.0,32.000000
-55,3,38,1625816584.0,32.000000
-57,4,35,1625816584.0,32.000000
-50,3,39,1625816584.0,32.000000
-53,4,37,1625816584.0,32.000000
-57,5,29,1625816584.0,32.000000
-61,5,24,1625816584.0,32.000000
-66,2,14,1625816584.0,32.000000
-67,4,9,1625816584.0,32.000000
-65,4,12,1625816584.0,32.000000
-60,1,18,1625816584.0,32.000000
-61,2,13,1625816584.0,32.000000
-64,1,4,1625816584.0,32.000000
-77,3,-17,1625816584.0,32.000000
-74,1,-21,1625816584.0,32.000000
-66,-2,-6,1625816584.0,32.000000
-75,3,-11,1625816584.0,32.000000
-59,6,-8,1625816584.0,32.000000
-61,12,-25,1625816584.0,32.000000
-57,10,-27,1625816584.0,32.000000
-48,11,-32,1625816584.0,32.000000
-58,13,-36,1625816584.0,32.000000
-54,8,-33,1625816584.0,32.000000
-57,5,-34,1625816584.0,32.000000
-55,1,-29,1625816584.0,32.000000
-61,1,-29,1625816584.0,32.000000
-60,2,-30,1625816584.0,32.000000
-47,5,-15,1625816584.0,32.000000
-71,7,-17,1625816584.0,32.000000
-59,0,-4,1625816584.0,32.000000
-62,2,1,1625816584.0,32.000000
-65,5,2,1625816584.0,32.000000
-65,6,-3,1625816584.0,32.000000
-67,4,0,1625816584.0,32.000000
-69,5,-3,1625816584.0,32.000000
-63,3,-4,1625816584.0,32.000000
-67,4,-5,1625816584.0,32.000000
-63,5,-6,1625816584.0,32.000000
-62,5,-10,1625816584.0,32.000000
-66,3,-8,1625816584.0,32.000000
-65,2,-8,1625816584.0,32.000000
-62,4,-6,1625816584.0,32.000000
-67,6,-8,1625816584.0,32.000000
-65,1,3,1625816584.0,32.000000
-66,1,2,1625816584.0,32.000000
-65,6,-10,1625816584.0,32.000000
-67,5,-4,1625816584.0,32.000000
-63,1,-2,1625816584.0,32.000000
-67,2,-13,1625816584.0,32.000000
-65,-1,-9,1625816584.0,32.000000
-66,1,-12,1625816584.0,32.000000
-66,2,-14,1625816584.0,32.000000
-62,1,-9,1625816584.0,32.000000
-65,1,-10,1625816584.0,32.000000
-65,2,-14,1625816584.0,32.000000
-67,1,-11,1625816584.0,32.000000
-64,1,-11,1625816584.0,32.000000
-64,1,-11,1625816584.0,32.000000
-65,2,-11,1625816584.0,32.000000
-65,1,-12,1625816584.0,32.000000
-64,1,-11,1625816584.0,32.000000
-64,0,-11,1625816584.0,32.000000
-65,0,-12,1625816584.0,32.000000
-64,0,-12,1625816584.0,32.000000
-64,0,-11,1625816584.0,32.000000
-64,0,-12,1625816584.0,32.000000
-64,1,-12,1625816584.0,32.000000
-65,1,-13,1625816584.0,32.000000
-64,1,-12,1625816584.0,32.000000
-64,0,-12,1625816584.0,32.000000
-64,0,-13,1625816584.0,32.000000
-64,0,-12,1625816584.0,32.000000
-64,0,-13,1625816584.0,32.000000
-64,0,-12,1625816584.0,32.000000
-64,0,-12,1625816584.0,32.000000
-64,0,-13,1625816584.0,32.000000
-64,0,-13,1625816584.0,32.000000
-64,0,-12,1625816584.0,32.000000
-64,0,-12,1625816584.0,32.000000
-64,0,-12,1625816584.0,32.000000
-64,0,-12,1625816584.0,32.000000
-64,0,-13,1625816584.0,32.000000
-64,0,-13,1625816584.0,32.000000
-64,0,-12,1625816584.0,32.000000
-64,0,-12,1625816584.0,32.000000
-64,0,-12,1625816584.0,32.000000
-64,0,-12,1625816584.0,32.000000
-64,0,-12,1625816584.0,32.000000
-64,0,-12,1625816584.0,32.000000
-64,0,-12,1625816584.0,32.000000
-64,0,-12,1625816584.0,32.000000
-64,0,-12,1625816584.0,32.000000
-64,0,-12,1625816584.0,32.000000
-64,0,-12,1625816584.0,32.000000
-64,0,-12,1625816584.0,32.000000
-64,0,-12,1625816584.0,32.000000
-64,0,-12,1625816584.0,32.000000
-64,0,-12,1625816584.0,32.000000
-64,0,-12,1625816584.0,32.000000
-64,0,-12,1625816584.0,32.000000
-64,0,-12,1625816584.0,32.000000
-64,0,-12,1625816584.0,32.000000
-64,0,-12,1625816584.0,32.000000
-64,0,-12,1625816584.0,32.000000
-64,-1,-12,1625816584.0,32.000000
-64,-1,-12,1625816584.0,32.000000
-64,-1,-12,1625816584.0,32.000000
-64,0,-12,1625816584.0,32.000000
-64,-1,-12,1625816584.0,32.000000
-64,-1,-12,1625816584.0,32.000000
-64,-1,-12,1625816584.0,32.000000
-64,-1,-12,1625816584.0,32.000000
-64,-1,-12,1625816584.0,32.000000
-64,-1,-12,1625816584.0,32.000000
-64,-1,-12,1625816584.0,32.000000
-64,-1,-12,1625816584.0,32.000000
-64,-1,-12,1625816584.0,32.000000
-64,-1,-12,1625816584.0,32.000000
-64,-1,-12,1625816584.0,32.000000
-64,-1,-12,1625816584.0,32.000000
-64,-1,-12,1625816584.0,32.000000
-64,-1,-12,1625816584.0,32.000000
-64,-1,-12,1625816584.0,32.000000
-64,-1,-12,1625816584.0,32.000000
-64,-1,-12,1625816584.0,32.000000
-64,-1,-12,1625816584.0,32.000000
-64,-1,-12,1625816584.0,32.000000
-64,-1,-12,1625816584.0,32.000000
-64,-1,-12,1625816584.0,32.000000
-64,-1,-12,1625816584.0,32.000000
-64,-1,-12,1625816584.0,32.000000
-64,-1,-12,1625816584.0,32.000000
-64,-1,-13,1625816584.0,32.000000
-65,-1,-13,1625816584.0,32.000000
-65,-1,-13,1625816584.0,32.000000
-65,-2,-13,1625816584.0,32.000000
-65,-1,-12,1625816584.0,32.000000
-65,-1,-11,1625816584.0,32.000000
-65,1,-9,1625816584.0,32.000000
-65,2,-7,1625816584.0,32.000000
-65,3,-7,1625816584.0,32.000000
-65,4,-7,1625816584.0,32.000000
-65,5,-7,1625816584.0,32.000000
-65,6,-7,1625816584.0,32.000000
-64,6,-5,1625816584.0,32.000000
-65,4,-5,1625816584.0,32.000000
-66,6,-6,1625816584.0,32.000000
-64,6,-6,1625816584.0,32.000000
-63,10,-6,1625816584.0,32.000000
-63,11,-4,1625816584.0,32.000000
-63,11,-5,1625816584.0,32.000000
-64,11,-4,1625816584.0,32.000000
-65,11,-5,1625816584.0,32.000000
-65,9,-5,1625816584.0,32.000000
-64,7,-3,1625816584.0,32.000000
-65,7,-4,1625816584.0,32.000000
-66,8,0,1625816584.0,32.000000
-64,3,-8,1625816584.0,32.000000
-63,4,-1,1625816584.0,32.000000
-67,5,-4,1625816584.0,32.000000
-66,5,-4,1625816584.0,32.000000
-65,7,-3,1625816584.0,32.000000
-65,6,-2,1625816584.0,32.000000
-67,9,-4,1625816584.0,32.000000
-67,9,-2,1625816584.0,32.000000
-64,6,-2,1625816584.0,32.000000
-66,-5,-3,1625816584.0,32.000000
-70,-4,-7,1625816584.0,32.000000
-67,3,-9,1625816584.0,32.000000
-64,8,-4,1625816584.0,32.000000
-64,8,-3,1625816584.0,32.000000
-64,6,0,1625816584.0,32.000000
-66,3,-3,1625816584.0,32.000000
-66,1,-5,1625816584.0,32.000000
-66,0,-3,1625816584.0,32.000000
-66,-1,-2,1625816584.0,32.000000
-67,0,-6,1625816584.0,32.000000
-67,0,-6,1625816584.0,32.000000
-65,2,-2,1625816584.0,32.000000
-65,3,-2,1625816584.0,32.000000
-65,3,-3,1625816584.0,32.000000
-66,2,-5,1625816584.0,32.000000
-66,2,-5,1625816584.0,32.000000
-65,2,-3,1625816584.0,32.000000
-65,1,-2,1625816584.0,32.000000
-66,0,-3,1625816584.0,32.000000
-66,-1,-3,1625816584.0,32.000000
-66,-1,-5,1625816584.0,32.000000
-66,0,-3,1625816584.0,32.000000
-65,0,0,1625816584.0,32.000000
-64,-1,2,1625816584.0,32.000000
-65,-2,-1,1625816584.0,32.000000
-66,-3,-3,1625816584.0,32.000000
-68,-5,-8,1625816584.0,32.000000
-67,-6,-5,1625816584.0,32.000000
-63,-5,-1,1625816584.0,32.000000
-65,-6,5,1625816584.0,32.000000
-64,-7,7,1625816584.0,32.000000
-64,-8,3,1625816584.0,32.000000
-64,-8,2,1625816584.0,32.000000
-66,-11,-3,1625816584.0,32.000000
-65,-11,-7,1625816584.0,32.000000
-65,-11,-6,1625816584.0,32.000000
-65,-11,-5,1625816584.0,32.000000
-65,-11,-7,1625816584.0,32.000000
-65,-11,-8,1625816584.0,32.000000
-65,-10,-8,1625816584.0,32.000000
-65,-10,-8,1625816584.0,32.000000
-64,-9,-5,1625816584.0,32.000000
-64,-8,-4,1625816584.0,32.000000
-65,-7,-4,1625816584.0,32.000000
-65,-6,-5,1625816584.0,32.000000
-66,-5,-5,1625816584.0,32.000000
-65,-6,-2,1625816584.0,32.000000
-65,-6,-3,1625816584.0,32.000000
-66,-5,-5,1625816584.0,32.000000
-65,-6,-2,1625816584.0,32.000000
-65,-6,-3,1625816584.0,32.000000
-65,-4,-1,1625816584.0,32.000000
-65,-4,0,1625816584.0,32.000000
-65,-5,-2,1625816584.0,32.000000
-66,-4,-5,1625816584.0,32.000000
-66,-3,-6,1625816584.0,32.000000
-65,-3,-4,1625816584.0,32.000000
-65,-4,-3,1625816584.0,32.000000
-66,-2,-5,1625816584.0,32.000000
-65,-3,-4,1625816584.0,32.000000
-66,-4,-4,1625816584.0,32.000000
-66,-4,-4,1625816584.0,32.000000
-66,-4,-3,1625816584.0,32.000000
-66,-5,2,1625816584.0,32.000000
-65,-5,5,1625816584.0,32.000000
-66,-4,3,1625816584.0,32.000000
-66,-6,6,1625816584.0,32.000000
-71,-6,0,1625816584.0,32.000000
-70,-3,-2,1625816584.0,32.000000
-70,-4,5,1625816584.0,32.000000
-61,-11,8,1625816584.0,32.000000
-62,-6,19,1625816584.0,32.000000
-62,-10,24,1625816584.0,32.000000
-55,-24,33,1625816584.0,32.000000
-37,-17,36,1625816584.0,32.000000
-55,-7,43,1625816584.0,32.000000
-40,1,48,1625816584.0,32.000000
-26,8,46,1625816584.0,32.000000
-35,20,69,1625816584.0,32.000000
-34,13,79,1625816584.0,32.000000
-30,19,40,1625816584.0,32.000000
-48,29,64,1625816584.0,32.000000
-32,20,73,1625816584.0,32.000000
-29,5,61,1625816584.0,32.000000
-31,-9,45,1625816584.0,32.000000
-45,-15,34,1625816584.0,32.000000
-49,-13,27,1625816584.0,32.000000
-46,-7,16,1625816584.0,32.000000
-70,-4,-2,1625816584.0,32.000000
-72,2,-6,1625816584.0,32.000000
-80,7,-10,1625816584.0,32.000000
-46,-6,13,1625816584.0,32.000000
-66,0,13,1625816584.0,32.000000
-81,-4,-1,1625816584.0,32.000000
-72,-7,2,1625816584.0,32.000000
-66,-6,4,1625816584.0,32.000000
-66,-2,3,1625816584.0,32.000000
-68,2,7,1625816584.0,32.000000
-66,1,10,1625816584.0,32.000000
-67,0,8,1625816584.0,32.000000
-64,0,7,1625816584.0,32.000000
-68,-2,0,1625816584.0,32.000000
-67,-1,0,1625816584.0,32.000000
-67,0,4,1625816584.0,32.000000
-67,0,4,1625816584.0,32.000000
-66,0,5,1625816584.0,32.000000
-67,0,6,1625816584.0,32.000000
-66,1,5,1625816584.0,32.000000
-66,2,6,1625816584.0,32.000000
-65,1,9,1625816584.0,32.000000
-64,1,10,1625816584.0,32.000000
-65,1,8,1625816584.0,32.000000
-67,1,8,1625816584.0,32.000000
-65,0,9,1625816584.0,32.000000
-66,0,10,1625816584.0,32.000000
-65,1,11,1625816584.0,32.000000
-66,2,6,1625816584.0,32.000000
-66,2,7,1625816584.0,32.000000
-65,2,10,1625816584.0,32.000000
-65,2,10,1625816584.0,32.000000
-65,1,9,1625816584.0,32.000000
-65,1,9,1625816584.0,32.000000
-66,2,10,1625816584.0,32.000000
-65,1,11,1625816584.0,32.000000
-65,1,10,1625816584.0,32.000000
-64,1,12,1625816584.0,32.000000
-67,1,11,1625816584.0,32.000000
-67,1,10,1625816584.0,32.000000
-68,0,12,1625816584.0,32.000000
-66,-3,15,1625816584.0,32.000000
-65,-2,18,1625816584.0,32.000000
-65,-1,18,1625816584.0,32.000000
-60,-1,27,1625816584.0,32.000000
-52,-3,40,1625816584.0,32.000000
-48,-1,41,1625816584.0,32.000000
-33,7,57,1625816584.0,32.000000
-35,8,53,1625816584.0,32.000000
-28,33,57,1625816584.0,32.000000
-26,14,62,1625816584.0,32.000000
-44,14,48,1625816584.0,32.000000
-40,10,50,1625816584.0,32.000000
-39,9,53,1625816584.0,32.000000
-34,7,57,1625816584.0,32.000000
-38,5,55,1625816584.0,32.000000
-39,9,51,1625816584.0,32.000000
-35,10,55,1625816584.0,32.000000
-36,8,56,1625816584.0,32.000000
-40,8,51,1625816584.0,32.000000
-40,8,52,1625816584.0,32.000000
-40,8,52,1625816584.0,32.000000
-40,9,51,1625816584.0,32.000000
-40,9,51,1625816584.0,32.000000
-40,9,52,1625816584.0,32.000000
-40,8,52,1625816584.0,32.000000
-41,8,51,1625816584.0,32.000000
-40,9,52,1625816584.0,32.000000
-40,9,52,1625816584.0,32.000000
-40,9,52,1625816584.0,32.000000
-40,9,52,1625816584.0,32.000000
-40,9,52,1625816584.0,32.000000
-40,9,52,1625816584.0,32.000000
-40,8,52,1625816584.0,32.000000
-40,9,52,1625816584.0,32.000000
-39,9,52,1625816584.0,32.000000
-40,9,53,1625816584.0,32.000000
-39,9,52,1625816584.0,32.000000
-40,9,52,1625816584.0,32.000000
-39,9,52,1625816584.0,32.000000
-41,9,52,1625816584.0,32.000000
-39,8,52,1625816584.0,32.000000
-40,10,51,1625816584.0,32.000000
-39,10,51,1625816584.0,32.000000
-43,11,53,1625816584.0,32.000000
-39,8,52,1625816584.0,32.000000
-46,9,52,1625816584.0,32.000000
-43,8,49,1625816584.0,32.000000
-42,12,51,1625816584.0,32.000000
-22,11,68,1625816584.0,32.000000
-13,23,69,1625816584.0,32.000000
-45,15,43,1625816584.0,32.000000
-37,16,48,1625816584.0,32.000000
-33,15,58,1625816584.0,32.000000
-40,8,55,1625816584.0,32.000000
-45,5,50,1625816584.0,32.000000
-39,11,54,1625816584.0,32.000000
-29,12,60,1625816584.0,32.000000
-34,17,54,1625816584.0,32.000000
-39,14,48,1625816584.0,32.000000
-39,14,49,1625816584.0,32.000000
-38,12,53,1625816584.0,32.000000
-40,6,53,1625816584.0,32.000000
-38,10,53,1625816584.0,32.000000
-36,7,53,1625816584.0,32.000000
-38,8,52,1625816584.0,32.000000
-34,11,56,1625816584.0,32.000000
-36,10,52,1625816584.0,32.000000
-35,16,50,1625816584.0,32.000000
-38,14,49,1625816584.0,32.000000
-38,12,51,1625816584.0,32.000000
-37,11,53,1625816584.0,32.000000
-38,12,56,1625816584.0,32.000000
-35,8,52,1625816584.0,32.000000
-39,11,53,1625816584.0,32.000000
-36,10,51,1625816584.0,32.000000
-38,10,54,1625816584.0,32.000000
-36,9,53,1625816584.0,32.000000
-38,11,53,1625816584.0,32.000000
-38,11,53,1625816584.0,32.000000
-38,10,53,1625816584.0,32.000000
-37,10,54,1625816584.0,32.000000
-36,10,54,1625816584.0,32.000000
-34,6,51,1625816584.0,32.000000
-40,10,53,1625816584.0,32.000000
-37,9,53,1625816584.0,32.000000
-41,10,53,1625816584.0,32.000000
-38,8,51,1625816584.0,32.000000
-37,10,52,1625816584.0,32.000000
-38,11,53,1625816584.0,32.000000
-38,10,53,1625816584.0,32.000000
-40,9,52,1625816584.0,32.000000
-40,9,52,1625816584.0,32.000000
-40,9,53,1625816584.0,32.000000
-39,9,52,1625816584.0,32.000000
-39,9,52,1625816584.0,32.000000
-39,9,53,1625816584.0,32.000000
-39,9,53,1625816584.0,32.000000
-40,9,52,1625816584.0,32.000000
-39,9,52,1625816584.0,32.000000
-39,9,52,1625816584.0,32.000000
-39,9,52,1625816584.0,32.000000
-40,9,52,1625816584.0,32.000000
-40,8,52,1625816584.0,32.000000
-40,9,52,1625816584.0,32.000000
-40,9,52,1625816584.0,32.000000
-40,8,52,1625816584.0,32.000000
-40,8,52,1625816584.0,32.000000
-40,8,52,1625816584.0,32.000000
-40,9,52,1625816584.0,32.000000
-40,8,52,1625816584.0,32.000000
-40,9,51,1625816584.0,32.000000
-40,9,52,1625816584.0,32.000000
-40,8,52,1625816584.0,32.000000
-41,8,52,1625816584.0,32.000000
-40,8,52,1625816584.0,32.000000
-40,9,52,1625816584.0,32.000000
-40,8,52,1625816584.0,32.000000
-40,8,52,1625816584.0,32.000000
-40,8,51,1625816584.0,32.000000
-40,8,52,1625816584.0,32.000000
-41,8,51,1625816584.0,32.000000
-41,8,52,1625816584.0,32.000000
-40,8,52,1625816584.0,32.000000
-40,9,52,1625816584.0,32.000000
-40,8,52,1625816584.0,32.000000
-40,8,52,1625816584.0,32.000000
-40,8,52,1625816584.0,32.000000
-40,8,52,1625816584.0,32.000000
-40,8,52,1625816584.0,32.000000
-41,8,51,1625816584.0,32.000000
-41,8,52,1625816584.0,32.000000
-40,8,52,1625816584.0,32.000000
-40,8,51,1625816584.0,32.000000
-40,9,51,1625816584.0,32.000000
-41,8,52,1625816584.0,32.000000
-40,8,51,1625816584.0,32.000000
-41,8,52,1625816584.0,32.000000
-41,8,51,1625816584.0,32.000000
-41,8,52,1625816584.0,32.000000
-40,9,51,1625816584.0,32.000000
-40,8,52,1625816584.0,32.000000
-41,8,52,1625816584.0,32.000000
-41,8,51,1625816584.0,32.000000
-41,8,52,1625816584.0,32.000000
-41,8,51,1625816584.0,32.000000
-40,8,51,1625816584.0,32.000000
-40,9,51,1625816584.0,32.000000
-41,8,51,1625816584.0,32.000000
-41,8,51,1625816584.0,32.000000
-41,8,51,1625816584.0,32.000000
-40,8,51,1625816584.0,32.000000
-41,8,51,1625816584.0,32.000000
-40,8,52,1625816584.0,32.000000
-40,8,51,1625816584.0,32.000000
-41,8,51,1625816584.0,32.000000
-41,8,51,1625816584.0,32.000000
-41,8,51,1625816584.0,32.000000
-41,8,51,1625816584.0,32.000000
-41,8,51,1625816584.0,32.000000
-41,8,52,1625816584.0,32.000000
-41,8,51,1625816584.0,32.000000
-40,8,52,1625816584.0,32.000000
-41,8,51,1625816584.0,32.000000
-41,8,51,1625816584.0,32.000000
-41,8,51,1625816584.0,32.000000
-41,8,51,1625816584.0,32.000000
-41,8,52,1625816584.0,32.000000
-41,8,51,1625816584.0,32.000000
-41,8,51,1625816584.0,32.000000
-41,8,51,1625816584.0,32.000000
-41,8,51,1625816584.0,32.000000
-41,8,51,1625816584.0,32.000000
-41,8,51,1625816584.0,32.000000
-41,8,51,1625816584.0,32.000000
-41,8,51,1625816584.0,32.000000
-41,8,52,1625816584.0,32.000000
-41,8,52,1625816584.0,32.000000
-41,8,51,1625816584.0,32.000000
-41,8,52,1625816584.0,32.000000
-41,8,51,1625816584.0,32.000000
-41,8,51,1625816584.0,32.000000
-41,8,52,1625816584.0,32.000000
-41,8,51,1625816584.0,32.000000
-41,8,51,1625816584.0,32.000000
-41,9,51,1625816584.0,32.000000
-41,8,52,1625816584.0,32.000000
-41,8,51,1625816584.0,32.000000
-41,9,51,1625816584.0,32.000000
-41,9,51,1625816584.0,32.000000
-41,9,52,1625816584.0,32.000000
-40,8,51,1625816584.0,32.000000
-41,8,51,1625816584.0,32.000000
-41,8,51,1625816584.0,32.000000
-41,8,51,1625816584.0,32.000000
-41,9,52,1625816584.0,32.000000
-41,8,51,1625816584.0,32.000000
-41,8,51,1625816584.0,32.000000
-41,9,51,1625816584.0,32.000000
-41,8,51,1625816584.0,32.000000
-41,9,51,1625816584.0,32.000000
-41,8,51,1625816584.0,32.000000
-40,8,52,1625816584.0,32.000000
-41,9,52,1625816584.0,32.000000
-41,8,51,1625816584.0,32.000000
-41,9,51,1625816584.0,32.000000
-41,8,51,1625816584.0,32.000000
-41,8,51,1625816584.0,32.000000
-41,8,51,1625816584.0,32.000000
-41,8,51,1625816584.0,32.000000
-40,8,51,1625816584.0,32.000000
-41,8,51,1625816584.0,32.000000
-41,8,51,1625816584.0,32.000000
-41,8,51,1625816584.0,32.000000
-41,8,51,1625816584.0,32.000000
-41,8,51,1625816584.0,32.000000
-41,8,51,1625816584.0,32.000000
-41,8,51,1625816584.0,32.000000
-41,8,51,1625816584.0,32.000000
-41,8,51,1625816584.0,32.000000
-41,8,51,1625816584.0,32.000000
-41,8,51,1625816584.0,32.000000
-41,8,51,1625816584.0,32.000000
-41,8,51,1625816584.0,32.000000
-41,8,51,1625816584.0,32.000000
-41,8,51,1625816584.0,32.000000
-41,8,51,1625816584.0,32.000000
-41,8,51,1625816584.0,32.000000
-41,8,51,1625816584.0,32.000000
-41,8,51,1625816584.0,32.000000
-41,8,51,1625816584.0,32.000000
-41,8,51,1625816584.0,32.000000
-41,8,51,1625816584.0,32.000000
-41,8,51,1625816584.0,32.000000
-41,8,51,1625816584.0,32.000000
-40,8,51,1625816584.0,32.000000
-41,9,52,1625816584.0,32.000000
-42,9,51,1625816584.0,32.000000
-41,8,51,1625816584.0,32.000000
-40,8,51,1625816584.0,32.000000
-40,8,52,1625816584.0,32.000000
-41,8,51,1625816584.0,32.000000
-41,9,51,1625816584.0,32.000000
-40,9,51,1625816584.0,32.000000
-41,8,52,1625816584.0,32.000000
-41,9,51,1625816584.0,32.000000
-40,9,52,1625816584.0,32.000000
-41,9,51,1625816584.0,32.000000
-41,9,51,1625816584.0,32.000000
-40,9,52,1625816584.0,32.000000
-41,9,51,1625816584.0,32.000000
-41,8,51,1625816584.0,32.000000
-41,9,51,1625816584.0,32.000000
-40,9,51,1625816584.0,32.000000
-40,9,52,1625816584.0,32.000000
-40,9,52,1625816584.0,32.000000
-40,9,51,1625816584.0,32.000000
-40,9,52,1625816584.0,32.000000
-40,9,51,1625816584.0,32.000000
-41,8,51,1625816584.0,32.000000
-41,8,51,1625816584.0,32.000000
-41,8,51,1625816584.0,32.000000
-41,8,51,1625816584.0,32.000000
-41,8,51,1625816584.0,32.000000
-40,8,51,1625816584.0,32.000000
-41,9,51,1625816584.0,32.000000
-41,8,51,1625816584.0,32.000000
-41,9,51,1625816584.0,32.000000
-41,9,51,1625816584.0,32.000000
-40,9,52,1625816584.0,32.000000
-40,8,51,1625816584.0,32.000000
-41,8,51,1625816584.0,32.000000
-41,8,52,1625816584.0,32.000000
-41,9,52,1625816584.0,32.000000
-41,8,51,1625816584.0,32.000000
-41,8,51,1625816584.0,32.000000
-40,8,51,1625816584.0,32.000000
-41,9,51,1625816584.0,32.000000
-41,9,51,1625816584.0,32.000000
-41,8,52,1625816584.0,32.000000
-41,8,52,1625816584.0,32.000000
-41,8,52,1625816584.0,32.000000
-41,8,52,1625816584.0,32.000000
-41,8,51,1625816584.0,32.000000
-41,8,51,1625816584.0,32.000000
-41,8,51,1625816584.0,32.000000
-41,8,51,1625816584.0,32.000000
-41,8,52,1625816584.0,32.000000
-41,8,51,1625816584.0,32.000000
-41,8,51,1625816584.0,32.000000
-41,8,51,1625816584.0,32.000000
-41,8,52,1625816584.0,32.000000
-41,8,51,1625816584.0,32.000000
-41,8,51,1625816584.0,32.000000
-41,8,51,1625816584.0,32.000000
-41,8,51,1625816584.0,32.000000
-41,8,51,1625816584.0,32.000000
-41,8,51,1625816584.0,32.000000
-41,8,51,1625816584.0,32.000000
-41,8,51,1625816584.0,32.000000
-41,8,52,1625816584.0,32.000000
-41,8,52,1625816584.0,32.000000
-41,8,51,1625816584.0,32.000000
-41,8,51,1625816584.0,32.000000
-41,8,52,1625816584.0,32.000000
-41,8,51,1625816584.0,32.000000
-41,8,52,1625816584.0,32.000000
-41,8,51,1625816584.0,32.000000
-41,8,51,1625816584.0,32.000000
-41,8,51,1625816584.0,32.000000
-41,7,51,1625816584.0,32.000000
-41,8,52,1625816584.0,32.000000
-41,7,51,1625816584.0,32.000000
-41,7,51,1625816584.0,32.000000
-41,7,51,1625816584.0,32.000000
-41,7,51,1625816584.0,32.000000
-41,7,51,1625816584.0,32.000000
-41,7,51,1625816584.0,32.000000
-41,7,51,1625816584.0,32.000000
-41,7,51,1625816584.0,32.000000
-41,7,51,1625816584.0,32.000000
-41,7,51,1625816584.0,32.000000
-41,7,51,1625816584.0,32.000000
-41,7,51,1625816584.0,32.000000
-41,7,51,1625816584.0,32.000000
-41,7,51,1625816584.0,32.000000
-41,7,52,1625816584.0,32.000000
-41,7,51,1625816584.0,32.000000
-41,7,51,1625816584.0,32.000000
-41,7,51,1625816584.0,32.000000
-41,7,51,1625816584.0,32.000000
-41,7,51,1625816584.0,32.000000
-41,7,51,1625816584.0,32.000000
-41,7,51,1625816584.0,32.000000
-41,7,51,1625816584.0,32.000000
-41,7,51,1625816584.0,32.000000
-41,7,51,1625816584.0,32.000000
-41,7,51,1625816584.0,32.000000
-41,7,51,1625816584.0,32.000000
-41,7,51,1625816584.0,32.000000
-42,7,51,1625816584.0,32.000000
-41,7,52,1625816584.0,32.000000
-41,7,51,1625816584.0,32.000000
-41,7,51,1625816584.0,32.000000
-41,7,51,1625816584.0,32.000000
-41,7,51,1625816584.0,32.000000
-41,7,51,1625816584.0,32.000000
-41,7,51,1625816584.0,32.000000
-41,7,51,1625816584.0,32.000000
-41,8,51,1625816584.0,32.000000
-41,8,51,1625816584.0,32.000000
-41,8,51,1625816584.0,32.000000
-41,8,51,1625816584.0,32.000000
-41,8,51,1625816584.0,32.000000
-40,8,52,1625816584.0,32.000000
-40,8,52,1625816584.0,32.000000
-41,8,51,1625816584.0,32.000000
-41,8,51,1625816584.0,32.000000
-41,8,51,1625816584.0,32.000000
-41,8,51,1625816584.0,32.000000
-41,8,52,1625816584.0,32.000000
-41,8,51,1625816584.0,32.000000
-41,8,51,1625816584.0,32.000000
-41,8,51,1625816584.0,32.000000
-41,8,51,1625816584.0,32.000000
-41,7,52,1625816584.0,32.000000
-40,8,51,1625816584.0,32.000000
-41,8,51,1625816584.0,32.000000
-41,7,52,1625816584.0,32.000000
-41,7,51,1625816584.0,32.000000
-41,7,51,1625816584.0,32.000000
-41,8,51,1625816584.0,32.000000
-41,7,51,1625816584.0,32.000000
-41,7,51,1625816584.0,32.000000
-42,7,51,1625816584.0,32.000000
-41,7,51,1625816584.0,32.000000
-41,8,50,1625816584.0,32.000000
-41,7,51,1625816584.0,32.000000
-41,7,51,1625816584.0,32.000000
-41,7,51,1625816584.0,32.000000
-41,7,51,1625816584.0,32.000000
-41,7,52,1625816584.0,32.000000
-41,7,51,1625816584.0,32.000000
-41,7,51,1625816584.0,32.000000
-41,7,52,1625816584.0,32.000000
-41,7,51,1625816584.0,32.000000
-42,8,50,1625816584.0,32.000000
-41,7,50,1625816584.0,32.000000
-41,6,52,1625816584.0,32.000000
-41,7,51,1625816584.0,32.000000
-41,8,50,1625816584.0,32.000000
-41,7,51,1625816584.0,32.000000
-41,6,52,1625816584.0,32.000000
-41,7,51,1625816584.0,32.000000
-41,8,50,1625816584.0,32.000000
-40,7,52,1625816584.0,32.000000
-41,7,52,1625816584.0,32.000000
-42,7,50,1625816584.0,32.000000
-41,8,51,1625816584.0,32.000000
-40,8,51,1625816584.0,32.000000
-41,7,52,1625816584.0,32.000000
-41,7,51,1625816584.0,32.000000
-41,8,51,1625816584.0,32.000000
-41,7,51,1625816584.0,32.000000
-41,7,51,1625816584.0,32.000000
-40,8,52,1625816584.0,32.000000
-41,8,51,1625816584.0,32.000000
-41,8,51,1625816584.0,32.000000
-41,8,51,1625816584.0,32.000000
-42,7,52,1625816584.0,32.000000
-41,7,52,1625816584.0,32.000000
-41,7,50,1625816584.0,32.000000
-40,9,51,1625816584.0,32.000000
-41,7,52,1625816584.0,32.000000
-41,7,51,1625816584.0,32.000000
-41,8,51,1625816584.0,32.000000
-41,8,51,1625816584.0,32.000000
-41,8,51,1625816584.0,32.000000
-41,8,51,1625816584.0,32.000000
-41,8,51,1625816584.0,32.000000
-41,8,51,1625816584.0,32.000000
-41,8,51,1625816584.0,32.000000
-41,7,51,1625816584.0,32.000000
-40,8,51,1625816584.0,32.000000
-41,9,51,1625816584.0,32.000000
-41,8,51,1625816584.0,32.000000
-41,8,52,1625816584.0,32.000000
-41,8,51,1625816584.0,32.000000
-41,8,51,1625816584.0,32.000000
-41,8,51,1625816584.0,32.000000
-41,8,51,1625816584.0,32.000000
-41,8,51,1625816584.0,32.000000
-41,8,51,1625816584.0,32.000000
-41,8,51,1625816584.0,32.000000
-41,8,51,1625816584.0,32.000000
-41,8,51,1625816584.0,32.000000
-41,8,51,1625816584.0,32.000000
-41,7,51,1625816584.0,32.000000
-41,7,51,1625816584.0,32.000000
-41,8,51,1625816584.0,32.000000
-41,7,51,1625816584.0,32.000000
-41,7,52,1625816584.0,32.000000
-42,7,51,1625816584.0,32.000000
-41,7,51,1625816584.0,32.000000
-41,8,51,1625816584.0,32.000000
-41,7,52,1625816584.0,32.000000
-41,7,51,1625816584.0,32.000000
-41,8,51,1625816584.0,32.000000
-41,8,51,1625816584.0,32.000000
-41,7,52,1625816584.0,32.000000
-41,7,51,1625816584.0,32.000000
-41,8,51,1625816584.0,32.000000
-41,8,51,1625816584.0,32.000000
-41,7,52,1625816584.0,32.000000
-41,7,51,1625816584.0,32.000000
-41,7,51,1625816584.0,32.000000
-41,7,51,1625816584.0,32.000000
-41,7,51,1625816584.0,32.000000
-42,7,51,1625816584.0,32.000000
-41,7,51,1625816584.0,32.000000
-42,7,51,1625816584.0,32.000000
-41,7,51,1625816584.0,32.000000
-41,7,51,1625816584.0,32.000000
-41,7,51,1625816584.0,32.000000
-41,7,51,1625816584.0,32.000000
-41,7,51,1625816584.0,32.000000
-41,7,51,1625816584.0,32.000000
-42,7,50,1625816584.0,32.000000
-41,7,51,1625816584.0,32.000000
-41,7,51,1625816584.0,32.000000
-42,6,52,1625816584.0,32.000000
-42,6,51,1625816584.0,32.000000
-42,7,51,1625816584.0,32.000000
-41,8,50,1625816584.0,32.000000
-41,7,51,1625816584.0,32.000000
-42,7,51,1625816584.0,32.000000
-42,7,51,1625816584.0,32.000000
-41,8,51,1625816584.0,32.000000
-42,7,51,1625816584.0,32.000000
-41,7,51,1625816584.0,32.000000
-42,8,50,1625816584.0,32.000000
-41,8,51,1625816584.0,32.000000
-41,7,52,1625816584.0,32.000000
-41,8,51,1625816584.0,32.000000
-41,7,51,1625816584.0,32.000000
-42,7,50,1625816584.0,32.000000
-41,8,52,1625816584.0,32.000000
-39,7,54,1625816584.0,32.000000
-40,8,51,1625816584.0,32.000000
-39,7,53,1625816584.0,32.000000
-38,8,54,1625816584.0,32.000000
-40,8,52,1625816584.0,32.000000
-43,14,51,1625816584.0,32.000000
-30,6,58,1625816584.0,32.000000
-40,8,51,1625816584.0,32.000000
-40,8,52,1625816584.0,32.000000
-38,9,53,1625816584.0,32.000000
-39,9,53,1625816584.0,32.000000
-39,8,53,1625816584.0,32.000000
-40,8,52,1625816584.0,32.000000
-39,9,52,1625816584.0,32.000000
-39,9,52,1625816584.0,32.000000
-40,7,52,1625816584.0,32.000000
-40,8,52,1625816584.0,32.000000
-40,8,52,1625816584.0,32.000000
-40,8,52,1625816584.0,32.000000
-40,8,52,1625816584.0,32.000000
-40,8,52,1625816584.0,32.000000
-40,8,52,1625816584.0,32.000000
-40,8,52,1625816584.0,32.000000
-40,7,52,1625816584.0,32.000000
-40,8,52,1625816584.0,32.000000
-39,8,52,1625816584.0,32.000000
-40,7,52,1625816584.0,32.000000
-40,7,52,1625816584.0,32.000000
-40,7,52,1625816584.0,32.000000
-40,8,52,1625816584.0,32.000000
-40,8,52,1625816584.0,32.000000
-40,7,52,1625816584.0,32.000000
-41,7,51,1625816584.0,32.000000
-41,6,51,1625816584.0,32.000000
-40,7,52,1625816584.0,32.000000
-40,7,51,1625816584.0,32.000000
-40,8,52,1625816584.0,32.000000
-41,7,51,1625816584.0,32.000000
-41,5,51,1625816584.0,32.000000
-40,7,52,1625816584.0,32.000000
-41,5,50,1625816584.0,32.000000
-39,3,53,1625816584.0,32.000000
-42,4,51,1625816584.0,32.000000
-42,4,50,1625816584.0,32.000000
-41,2,50,1625816584.0,32.000000
-40,1,52,1625816584.0,32.000000
-42,0,51,1625816584.0,32.000000
-44,-1,48,1625816584.0,32.000000
-45,-2,48,1625816584.0,32.000000
-47,-3,48,1625816584.0,32.000000
-48,-3,47,1625816584.0,32.000000
-42,-4,52,1625816584.0,32.000000
-45,-4,49,1625816584.0,32.000000
-46,-4,46,1625816584.0,32.000000
-47,-4,47,1625816584.0,32.000000
-45,-4,48,1625816584.0,32.000000
-46,-5,49,1625816584.0,32.000000
-46,-5,49,1625816584.0,32.000000
-45,-5,49,1625816584.0,32.000000
-48,-6,44,1625816584.0,32.000000
-48,-5,44,1625816584.0,32.000000
-49,-6,43,1625816584.0,32.000000
-50,-6,42,1625816584.0,32.000000
-49,-5,43,1625816584.0,32.000000
-49,-3,44,1625816584.0,32.000000
-48,-3,44,1625816584.0,32.000000
-47,-4,48,1625816584.0,32.000000
-47,-5,48,1625816584.0,32.000000
-47,-6,47,1625816584.0,32.000000
-49,-7,45,1625816584.0,32.000000
-49,-8,44,1625816584.0,32.000000
-50,-8,43,1625816584.0,32.000000
-49,-7,44,1625816584.0,32.000000
-48,-6,44,1625816584.0,32.000000
-49,-6,45,1625816584.0,32.000000
-48,-6,44,1625816584.0,32.000000
-49,-6,45,1625816584.0,32.000000
-50,-6,44,1625816584.0,32.000000
-49,-6,44,1625816584.0,32.000000
-49,-6,45,1625816584.0,32.000000
-49,-6,45,1625816584.0,32.000000
-48,-6,45,1625816584.0,32.000000
-49,-6,45,1625816584.0,32.000000
-49,-6,44,1625816584.0,32.000000
-49,-6,44,1625816584.0,32.000000
-49,-6,44,1625816584.0,32.000000
-49,-6,45,1625816584.0,32.000000
-48,-6,44,1625816584.0,32.000000
-48,-6,45,1625816584.0,32.000000
-48,-6,45,1625816584.0,32.000000
-48,-6,45,1625816584.0,32.000000
-48,-6,46,1625816584.0,32.000000
-48,-6,45,1625816584.0,32.000000
-49,-6,44,1625816584.0,32.000000
-49,-6,44,1625816584.0,32.000000
-50,-6,44,1625816584.0,32.000000
-49,-6,43,1625816584.0,32.000000
-49,-6,44,1625816584.0,32.000000
-49,-6,43,1625816584.0,32.000000
-49,-6,43,1625816584.0,32.000000
-49,-6,43,1625816584.0,32.000000
-49,-6,44,1625816584.0,32.000000
-49,-6,43,1625816584.0,32.000000
-49,-7,43,1625816584.0,32.000000
-50,-7,44,1625816584.0,32.000000
-49,-6,44,1625816584.0,32.000000
-50,-6,43,1625816584.0,32.000000
-50,-7,43,1625816584.0,32.000000
-49,-6,44,1625816584.0,32.000000
-50,-5,44,1625816584.0,32.000000
-48,-5,44,1625816584.0,32.000000
-49,-6,44,1625816584.0,32.000000
-49,-6,44,1625816584.0,32.000000
-49,-6,43,1625816584.0,32.000000
-49,-6,44,1625816584.0,32.000000
-49,-6,44,1625816584.0,32.000000
-49,-6,44,1625816584.0,32.000000
-49,-6,43,1625816584.0,32.000000
-49,-6,44,1625816584.0,32.000000
-49,-6,43,1625816584.0,32.000000
-50,-6,43,1625816584.0,32.000000
-49,-6,44,1625816584.0,32.000000
-49,-6,44,1625816584.0,32.000000
-49,-6,44,1625816584.0,32.000000
-49,-6,44,1625816584.0,32.000000
-49,-7,44,1625816584.0,32.000000
-49,-7,43,1625816584.0,32.000000
-50,-6,43,1625816584.0,32.000000
-50,-6,43,1625816584.0,32.000000
-49,-6,43,1625816584.0,32.000000
-49,-6,44,1625816584.0,32.000000
-49,-6,43,1625816584.0,32.000000
-50,-6,43,1625816584.0,32.000000
-49,-6,44,1625816584.0,32.000000
-50,-6,44,1625816584.0,32.000000
-49,-7,44,1625816584.0,32.000000
-49,-7,44,1625816584.0,32.000000
-49,-6,44,1625816584.0,32.000000
-49,-6,43,1625816584.0,32.000000
-49,-6,44,1625816584.0,32.000000
-49,-6,44,1625816584.0,32.000000
-49,-7,43,1625816584.0,32.000000
-49,-6,43,1625816584.0,32.000000
-50,-7,43,1625816584.0,32.000000
-49,-7,44,1625816584.0,32.000000
-49,-7,43,1625816584.0,32.000000
-49,-7,43,1625816584.0,32.000000
-49,-7,44,1625816584.0,32.000000
-49,-7,44,1625816584.0,32.000000
-49,-7,43,1625816584.0,32.000000
-49,-7,43,1625816584.0,32.000000
-49,-6,43,1625816584.0,32.000000
-49,-6,43,1625816584.0,32.000000
-49,-7,44,1625816584.0,32.000000
-49,-6,44,1625816584.0,32.000000
-49,-7,43,1625816584.0,32.000000
-49,-6,43,1625816584.0,32.000000
-49,-6,44,1625816584.0,32.000000
-49,-7,44,1625816584.0,32.000000
-49,-6,43,1625816584.0,32.000000
-50,-7,43,1625816584.0,32.000000
-50,-7,43,1625816584.0,32.000000
-49,-6,43,1625816584.0,32.000000
-49,-7,44,1625816584.0,32.000000
-49,-7,43,1625816584.0,32.000000
-50,-7,43,1625816584.0,32.000000
-51,-7,43,1625816584.0,32.000000
-49,-6,44,1625816584.0,32.000000
-49,-5,44,1625816584.0,32.000000
-48,-4,44,1625816584.0,32.000000
-49,-5,44,1625816584.0,32.000000
-49,-6,44,1625816584.0,32.000000
-49,-6,44,1625816584.0,32.000000
-50,-7,43,1625816584.0,32.000000
-50,-7,43,1625816584.0,32.000000
-49,-7,44,1625816584.0,32.000000
-49,-6,43,1625816584.0,32.000000
-49,-5,44,1625816584.0,32.000000
-49,-6,44,1625816584.0,32.000000
-48,-6,44,1625816584.0,32.000000
-49,-6,43,1625816584.0,32.000000
-49,-6,43,1625816584.0,32.000000
-50,-6,44,1625816584.0,32.000000
-49,-6,44,1625816584.0,32.000000
-49,-6,44,1625816584.0,32.000000
-49,-6,44,1625816584.0,32.000000
-49,-6,44,1625816584.0,32.000000
-49,-6,44,1625816584.0,32.000000
-49,-6,44,1625816584.0,32.000000
-49,-6,44,1625816584.0,32.000000
-49,-6,44,1625816584.0,32.000000
-49,-6,44,1625816584.0,32.000000
-49,-6,44,1625816584.0,32.000000
-49,-5,44,1625816584.0,32.000000
-49,-5,45,1625816584.0,32.000000
-48,-5,45,1625816584.0,32.000000
-48,-5,45,1625816584.0,32.000000
-48,-5,44,1625816584.0,32.000000
-48,-5,45,1625816584.0,32.000000
-48,-5,45,1625816584.0,32.000000
-48,-4,45,1625816584.0,32.000000
-48,-4,45,1625816584.0,32.000000
-48,-4,45,1625816584.0,32.000000
-48,-4,45,1625816584.0,32.000000
-48,-4,45,1625816584.0,32.000000
-48,-4,45,1625816584.0,32.000000
-48,-4,45,1625816584.0,32.000000
-48,-4,46,1625816584.0,32.000000
-48,-4,46,1625816584.0,32.000000
-48,-4,45,1625816584.0,32.000000
-48,-4,45,1625816584.0,32.000000
-48,-4,46,1625816584.0,32.000000
-48,-4,46,1625816584.0,32.000000
-48,-4,46,1625816584.0,32.000000
-48,-4,46,1625816584.0,32.000000
-48,-4,46,1625816584.0,32.000000
-48,-4,46,1625816584.0,32.000000
-48,-4,46,1625816584.0,32.000000
-48,-3,46,1625816584.0,32.000000
-47,-3,46,1625816584.0,32.000000
-48,-3,46,1625816584.0,32.000000
-47,-3,46,1625816584.0,32.000000
-47,-4,45,1625816584.0,32.000000
-48,-4,45,1625816584.0,32.000000
-48,-6,45,1625816584.0,32.000000
-49,-7,44,1625816584.0,32.000000
-49,-6,44,1625816584.0,32.000000
-49,-5,45,1625816584.0,32.000000
-47,-3,46,1625816584.0,32.000000
-47,-3,46,1625816584.0,32.000000
-47,-3,46,1625816584.0,32.000000
-48,-4,46,1625816584.0,32.000000
-49,-5,44,1625816584.0,32.000000
-49,-6,44,1625816584.0,32.000000
-48,-5,45,1625816584.0,32.000000
-47,-5,46,1625816584.0,32.000000
-47,-5,47,1625816584.0,32.000000
-49,-5,45,1625816584.0,32.000000
-47,-5,45,1625816584.0,32.000000
-48,-5,46,1625816584.0,32.000000
-48,-4,45,1625816584.0,32.000000
-49,-4,45,1625816584.0,32.000000
-43,-4,46,1625816584.0,32.000000
-44,-3,48,1625816584.0,32.000000
-49,-6,46,1625816584.0,32.000000
-47,-9,47,1625816584.0,32.000000
-45,-9,48,1625816584.0,32.000000
-52,-8,40,1625816584.0,32.000000
-53,-6,41,1625816584.0,32.000000
-48,-2,44,1625816584.0,32.000000
-42,-1,51,1625816584.0,32.000000
-43,-2,52,1625816584.0,32.000000
-44,-2,49,1625816584.0,32.000000
-47,-3,47,1625816584.0,32.000000
-48,-3,45,1625816584.0,32.000000
-47,-3,46,1625816584.0,32.000000
-46,-3,47,1625816584.0,32.000000
-46,-3,48,1625816584.0,32.000000
-46,-2,48,1625816584.0,32.000000
-46,-3,47,1625816584.0,32.000000
-46,-3,48,1625816584.0,32.000000
-46,-3,47,1625816584.0,32.000000
-45,-2,48,1625816584.0,32.000000
-46,-2,48,1625816584.0,32.000000
-45,-2,48,1625816584.0,32.000000
-45,-2,48,1625816584.0,32.000000
-45,-2,48,1625816584.0,32.000000
-45,-2,48,1625816584.0,32.000000
-45,-2,48,1625816584.0,32.000000
-45,-1,48,1625816584.0,32.000000
-45,-1,48,1625816584.0,32.000000
-45,-1,49,1625816584.0,32.000000
-45,-1,50,1625816584.0,32.000000
-44,-2,51,1625816584.0,32.000000
-46,-2,54,1625816584.0,32.000000
-48,-5,57,1625816584.0,32.000000
-41,8,68,1625816584.0,32.000000
-50,5,49,1625816584.0,32.000000
-60,6,50,1625816584.0,32.000000
-62,-2,54,1625816584.0,32.000000
-51,1,58,1625816584.0,32.000000
-37,-6,53,1625816584.0,32.000000
-33,-14,35,1625816584.0,32.000000
-28,-11,31,1625816584.0,32.000000
-21,-7,30,1625816584.0,32.000000
-30,-8,31,1625816584.0,32.000000
-40,16,36,1625816584.0,32.000000
-37,11,48,1625816584.0,32.000000
-44,17,49,1625816584.0,32.000000
-49,27,51,1625816584.0,32.000000
-43,29,53,1625816584.0,32.000000
-33,26,44,1625816584.0,32.000000
-37,21,39,1625816584.0,32.000000
-29,15,42,1625816584.0,32.000000
-24,24,37,1625816584.0,32.000000
-88,127,127,1625816584.0,32.000000
5,23,68,1625816584.0,32.000000
-38,0,61,1625816584.0,32.000000
-42,10,50,1625816584.0,32.000000
-43,15,53,1625816584.0,32.000000
-41,8,47,1625816584.0,32.000000
-36,9,59,1625816584.0,32.000000
-32,12,61,1625816584.0,32.000000
-34,5,55,1625816584.0,32.000000
-37,11,52,1625816584.0,32.000000
-38,10,53,1625816584.0,32.000000
-38,8,55,1625816584.0,32.000000
-39,4,54,1625816584.0,32.000000
-41,3,52,1625816584.0,32.000000
-45,5,48,1625816584.0,32.000000
-45,8,48,1625816584.0,32.000000
-41,8,51,1625816584.0,32.000000
-41,7,52,1625816584.0,32.000000
-43,6,49,1625816584.0,32.000000
-45,7,49,1625816584.0,32.000000
-43,7,49,1625816584.0,32.000000
-43,7,50,1625816584.0,32.000000
-44,7,49,1625816584.0,32.000000
-44,7,49,1625816584.0,32.000000
-44,7,49,1625816584.0,32.000000
-45,6,49,1625816584.0,32.000000
-43,7,50,1625816584.0,32.000000
-44,8,48,1625816584.0,32.000000
-43,8,49,1625816584.0,32.000000
-42,8,50,1625816584.0,32.000000
-43,7,50,1625816584.0,32.000000
-45,7,48,1625816584.0,32.000000
-45,8,49,1625816584.0,32.000000
-42,8,50,1625816584.0,32.000000
-42,7,50,1625816584.0,32.000000
-43,7,50,1625816584.0,32.000000
-43,8,49,1625816584.0,32.000000
-43,7,49,1625816584.0,32.000000
-43,7,49,1625816584.0,32.000000
-44,8,49,1625816584.0,32.000000
-43,7,49,1625816584.0,32.000000
-43,7,50,1625816584.0,32.000000
-44,7,49,1625816584.0,32.000000
-44,7,49,1625816584.0,32.000000
-44,7,49,1625816584.0,32.000000
-44,7,49,1625816584.0,32.000000
-43,8,50,1625816584.0,32.000000
-43,7,49,1625816584.0,32.000000
-44,7,49,1625816584.0,32.000000
-44,7,49,1625816584.0,32.000000
-44,7,49,1625816584.0,32.000000
-44,7,49,1625816584.0,32.000000
-44,7,49,1625816584.0,32.000000
-44,7,49,1625816584.0,32.000000
-44,7,49,1625816584.0,32.000000
-44,7,49,1625816584.0,32.000000
-44,7,49,1625816584.0,32.000000
-44,7,49,1625816584.0,32.000000
-44,7,49,1625816584.0,32.000000
-44,7,49,1625816584.0,32.000000
-45,7,48,1625816584.0,32.000000
-44,7,49,1625816584.0,32.000000
-44,7,49,1625816584.0,32.000000
-44,7,49,1625816584.0,32.000000
-45,7,48,1625816584.0,32.000000
-44,7,49,1625816584.0,32.000000
-44,7,49,1625816584.0,32.000000
-44,7,48,1625816584.0,32.000000
-44,7,48,1625816584.0,32.000000
-44,7,49,1625816584.0,32.000000
-45,7,48,1625816584.0,32.000000
-44,7,49,1625816584.0,32.000000
-44,7,49,1625816584.0,32.000000
-45,7,48,1625816584.0,32.000000
-45,7,48,1625816584.0,32.000000
-45,7,48,1625816584.0,32.000000
-45,7,48,1625816584.0,32.000000
-44,7,48,1625816584.0,32.000000
-45,7,48,1625816584.0,32.000000
-45,7,48,1625816584.0,32.000000
-45,7,48,1625816584.0,32.000000
-45,7,48,1625816584.0,32.000000
-45,7,48,1625816584.0,32.000000
-45,7,48,1625816584.0,32.000000
-45,7,48,1625816584.0,32.000000
-45,7,48,1625816584.0,32.000000
-45,7,48,1625816584.0,32.000000
-45,7,48,1625816584.0,32.000000
-46,7,48,1625816584.0,32.000000
-45,7,48,1625816584.0,32.000000
-45,7,48,1625816584.0,32.000000
-45,7,48,1625816584.0,32.000000
-45,7,48,1625816584.0,32.000000
-45,7,48,1625816584.0,32.000000
-46,7,48,1625816584.0,32.000000
-45,7,48,1625816584.0,32.000000
-45,7,48,1625816584.0,32.000000
-45,7,48,1625816584.0,32.000000
-45,7,48,1625816584.0,32.000000
-45,7,48,1625816584.0,32.000000
-45,7,48,1625816584.0,32.000000
-45,7,48,1625816584.0,32.000000
-44,7,48,1625816584.0,32.000000
-45,8,48,1625816584.0,32.000000
-45,7,48,1625816584.0,32.000000
-45,7,48,1625816584.0,32.000000
-44,7,48,1625816584.0,32.000000
-45,7,48,1625816584.0,32.000000
-45,8,48,1625816584.0,32.000000
-44,7,48,1625816584.0,32.000000
-45,8,48,1625816584.0,32.000000
-45,7,48,1625816584.0,32.000000
-46,6,47,1625816584.0,32.000000
-41,5,53,1625816584.0,32.000000
-39,7,54,1625816584.0,32.000000
-49,0,46,1625816584.0,32.000000
-50,5,45,1625816584.0,32.000000
-51,33,57,1625816584.0,32.000000
-61,12,58,1625816584.0,32.000000
-75,24,61,1625816584.0,32.000000
-76,18,53,1625816584.0,32.000000
-76,10,53,1625816584.0,32.000000
-71,13,53,1625816584.0,32.000000
-60,6,52,1625816584.0,32.000000
-56,3,52,1625816584.0,32.000000
-49,-1,45,1625816584.0,32.000000
-48,-7,42,1625816584.0,32.000000
-40,-5,44,1625816584.0,32.000000
-26,-19,41,1625816584.0,32.000000
-25,-21,38,1625816584.0,32.000000
-9,-23,42,1625816584.0,32.000000
-7,-25,43,1625816584.0,32.000000
7,-27,43,1625816584.0,32.000000
3,-30,37,1625816584.0,32.000000
-14,-24,29,1625816584.0,32.000000
3,-37,35,1625816584.0,32.000000
16,-31,44,1625816584.0,32.000000
32,-34,46,1625816584.0,32.000000
22,-35,47,1625816584.0,32.000000
24,-35,54,1625816584.0,32.000000
9,-40,51,1625816584.0,32.000000
2,-40,48,1625816584.0,32.000000
1,-43,46,1625816584.0,32.000000
-3,-43,45,1625816584.0,32.000000
3,-38,42,1625816584.0,32.000000
3,-32,55,1625816584.0,32.000000
11,-32,64,1625816584.0,32.000000
11,-42,48,1625816584.0,32.000000
5,-44,42,1625816584.0,32.000000
12,-46,45,1625816584.0,32.000000
9,-39,44,1625816584.0,32.000000
4,-32,43,1625816584.0,32.000000
12,-28,37,1625816584.0,32.000000
15,-28,25,1625816584.0,32.000000
11,-26,18,1625816584.0,32.000000
11,-26,13,1625816584.0,32.000000
10,-28,20,1625816584.0,32.000000
-2,-30,31,1625816584.0,32.000000
-33,-37,49,1625816584.0,32.000000
-61,-24,60,1625816584.0,32.000000
-27,-15,69,1625816584.0,32.000000
-3,-14,83,1625816584.0,32.000000
-97,28,84,1625816584.0,32.000000
-79,15,77,1625816584.0,32.000000
-60,-3,58,1625816584.0,32.000000
-36,2,48,1625816584.0,32.000000
-35,9,54,1625816584.0,32.000000
-39,17,53,1625816584.0,32.000000
-52,18,49,1625816584.0,32.000000
-59,24,37,1625816584.0,32.000000
-58,19,56,1625816584.0,32.000000
-54,34,98,1625816584.0,32.000000
-23,14,60,1625816584.0,32.000000
-37,17,51,1625816584.0,32.000000
-34,14,52,1625816584.0,32.000000
-34,19,56,1625816584.0,32.000000
-35,11,54,1625816584.0,32.000000
-40,11,53,1625816584.0,32.000000
-34,7,54,1625816584.0,32.000000
-34,8,57,1625816584.0,32.000000
-38,7,54,1625816584.0,32.000000
-39,6,53,1625816584.0,32.000000
-36,7,55,1625816584.0,32.000000
-37,7,53,1625816584.0,32.000000
-41,7,52,1625816584.0,32.000000
-35,9,57,1625816584.0,32.000000
-35,8,56,1625816584.0,32.000000
-37,8,54,1625816584.0,32.000000
-39,5,53,1625816584.0,32.000000
-35,5,56,1625816584.0,32.000000
-34,6,56,1625816584.0,32.000000
-35,8,55,1625816584.0,32.000000
-36,9,55,1625816584.0,32.000000
-36,9,55,1625816584.0,32.000000
-36,10,54,1625816584.0,32.000000
-36,11,53,1625816584.0,32.000000
-37,13,53,1625816584.0,32.000000
-37,11,55,1625816584.0,32.000000
-36,8,55,1625816584.0,32.000000
-39,6,53,1625816584.0,32.000000
-39,8,53,1625816584.0,32.000000
-38,9,54,1625816584.0,32.000000
-38,10,53,1625816584.0,32.000000
-38,11,52,1625816584.0,32.000000
-41,8,52,1625816584.0,32.000000
-38,8,54,1625816584.0,32.000000
-37,9,55,1625816584.0,32.000000
-39,8,51,1625816584.0,32.000000
-39,9,53,1625816584.0,32.000000
-37,9,54,1625816584.0,32.000000
-37,9,53,1625816584.0,32.000000
-39,8,53,1625816584.0,32.000000
-38,8,53,1625816584.0,32.000000
-38,10,53,1625816584.0,32.000000
-40,10,52,1625816584.0,32.000000
-40,10,52,1625816584.0,32.000000
-39,10,52,1625816584.0,32.000000
-39,11,51,1625816584.0,32.000000
-39,12,53,1625816584.0,32.000000
-40,11,51,1625816584.0,32.000000
-40,11,52,1625816584.0,32.000000
-39,8,53,1625816584.0,32.000000
-41,7,52,1625816584.0,32.000000
-39,6,54,1625816584.0,32.000000
-42,9,50,1625816584.0,32.000000
-45,10,47,1625816584.0,32.000000
-42,6,49,1625816584.0,32.000000
-41,1,52,1625816584.0,32.000000
-41,0,51,1625816584.0,32.000000
-45,0,48,1625816584.0,32.000000
-41,4,51,1625816584.0,32.000000
-40,4,52,1625816584.0,32.000000
-39,3,53,1625816584.0,32.000000
-41,4,48,1625816584.0,32.000000
-50,-10,49,1625816584.0,32.000000
-48,-12,48,1625816584.0,32.000000
-60,-8,37,1625816584.0,32.000000
-44,-5,55,1625816584.0,32.000000
-45,-10,58,1625816584.0,32.000000
-42,-12,48,1625816584.0,32.000000
-47,-13,41,1625816584.0,32.000000
-63,-8,38,1625816584.0,32.000000
-60,6,46,1625816584.0,32.000000
-49,0,48,1625816584.0,32.000000
-44,2,44,1625816584.0,32.000000
-42,2,38,1625816584.0,32.000000
-46,0,39,1625816584.0,32.000000
-72,27,38,1625816584.0,32.000000
-63,33,32,1625816584.0,32.000000
-40,22,34,1625816584.0,32.000000
-34,18,36,1625816584.0,32.000000
-27,14,28,1625816584.0,32.000000
-27,10,22,1625816584.0,32.000000
-36,12,32,1625816584.0,32.000000
-128,28,67,1625816584.0,32.000000
-128,8,20,1625816584.0,32.000000
-29,-12,21,1625816584.0,32.000000
-66,-2,22,1625816584.0,32.000000
-63,2,24,1625816584.0,32.000000
-63,3,24,1625816584.0,32.000000
-61,6,25,1625816584.0,32.000000
-56,6,29,1625816584.0,32.000000
-59,4,33,1625816584.0,32.000000
-60,5,31,1625816584.0,32.000000
-61,6,29,1625816584.0,32.000000
-61,6,28,1625816584.0,32.000000
-59,6,28,1625816584.0,32.000000
-59,7,28,1625816584.0,32.000000
-58,7,30,1625816584.0,32.000000
-58,7,30,1625816584.0,32.000000
-58,6,30,1625816584.0,32.000000
-60,6,29,1625816584.0,32.000000
-60,6,29,1625816584.0,32.000000
-60,5,31,1625816584.0,32.000000
-59,6,32,1625816584.0,32.000000
-60,6,31,1625816584.0,32.000000
-59,7,30,1625816584.0,32.000000
-58,7,29,1625816584.0,32.000000
-58,7,30,1625816584.0,32.000000
-59,6,30,1625816584.0,32.000000
-59,6,31,1625816584.0,32.000000
-59,6,30,1625816584.0,32.000000
-59,7,30,1625816584.0,32.000000
-59,7,30,1625816584.0,32.000000
-58,7,31,1625816584.0,32.000000
-59,6,31,1625816584.0,32.000000
-60,8,30,1625816584.0,32.000000
-59,7,29,1625816584.0,32.000000
-59,6,30,1625816584.0,32.000000
-58,6,31,1625816584.0,32.000000
-58,6,31,1625816584.0,32.000000
-58,7,30,1625816584.0,32.000000
-58,7,32,1625816584.0,32.000000
-67,28,39,1625816584.0,32.000000
-120,30,15,1625816584.0,32.000000
-105,19,12,1625816584.0,32.000000
-66,0,13,1625816584.0,32.000000
-57,1,17,1625816584.0,32.000000
-38,-12,15,1625816584.0,32.000000
-47,-18,18,1625816584.0,32.000000
-37,-14,31,1625816584.0,32.000000
-24,-13,49,1625816584.0,32.000000
-26,-11,49,1625816584.0,32.000000
-43,-17,33,1625816584.0,32.000000
-47,-14,36,1625816584.0,32.000000
-47,-2,50,1625816584.0,32.000000
-63,-12,30,1625816584.0,32.000000
-74,-13,31,1625816584.0,32.000000
-77,-16,24,1625816584.0,32.000000
-73,-18,22,1625816584.0,32.000000
-64,-18,30,1625816584.0,32.000000
-87,-13,27,1625816584.0,32.000000
-57,-19,15,1625816584.0,32.000000
-50,-30,2,1625816584.0,32.000000
-64,-30,-25,1625816584.0,32.000000
-41,-39,-33,1625816584.0,32.000000
-44,-25,11,1625816584.0,32.000000
-41,-18,18,1625816584.0,32.000000
-78,-16,16,1625816584.0,32.000000
-86,-11,21,1625816584.0,32.000000
-63,7,42,1625816584.0,32.000000
-44,9,53,1625816584.0,32.000000
-46,2,49,1625816584.0,32.000000
-75,-13,16,1625816584.0,32.000000
-85,-18,1,1625816584.0,32.000000
-48,-24,4,1625816584.0,32.000000
-21,-17,12,1625816584.0,32.000000
-22,-10,10,1625816584.0,32.000000
-32,4,23,1625816584.0,32.000000
-41,10,18,1625816584.0,32.000000
-69,14,12,1625816584.0,32.000000
-108,-2,18,1625816584.0,32.000000
-76,11,24,1625816584.0,32.000000
-119,15,15,1625816584.0,32.000000
-112,23,9,1625816584.0,32.000000
-51,-4,10,1625816584.0,32.000000
-73,0,20,1625816584.0,32.000000
-72,-2,20,1625816584.0,32.000000
-58,2,25,1625816584.0,32.000000
-62,4,26,1625816584.0,32.000000
-59,6,28,1625816584.0,32.000000
-59,7,29,1625816584.0,32.000000
-59,7,29,1625816584.0,32.000000
-58,7,29,1625816584.0,32.000000
-59,7,29,1625816584.0,32.000000
-61,5,26,1625816584.0,32.000000
-62,4,25,1625816584.0,32.000000
-62,4,24,1625816584.0,32.000000
-62,5,26,1625816584.0,32.000000
-61,6,26,1625816584.0,32.000000
-60,6,27,1625816584.0,32.000000
-60,5,27,1625816584.0,32.000000
-61,5,26,1625816584.0,32.000000
-61,6,26,1625816584.0,32.000000
-62,5,25,1625816584.0,32.000000
-61,5,25,1625816584.0,32.000000
-61,5,26,1625816584.0,32.000000
-62,5,25,1625816584.0,32.000000
-61,5,25,1625816584.0,32.000000
-61,5,25,1625816584.0,32.000000
-61,5,26,1625816584.0,32.000000
-61,5,26,1625816584.0,32.000000
-61,6,26,1625816584.0,32.000000
-61,5,26,1625816584.0,32.000000
-61,5,26,1625816584.0,32.000000
-61,5,26,1625816584.0,32.000000
-61,5,26,1625816584.0,32.000000
-61,5,26,1625816584.0,32.000000
-61,5,26,1625816584.0,32.000000
-61,5,26,1625816584.0,32.000000
-61,5,26,1625816584.0,32.000000
-61,5,26,1625816584.0,32.000000
-61,6,26,1625816584.0,32.000000
-61,5,26,1625816584.0,32.000000
-61,5,26,1625816584.0,32.000000
-61,5,26,1625816584.0,32.000000
-61,5,26,1625816584.0,32.000000
-61,5,26,1625816584.0,32.000000
-61,5,26,1625816584.0,32.000000
-61,5,26,1625816584.0,32.000000
-61,5,26,1625816584.0,32.000000
-61,5,26,1625816584.0,32.000000
-61,5,26,1625816584.0,32.000000
-61,5,26,1625816584.0,32.000000
-61,5,26,1625816584.0,32.000000
-61,5,26,1625816584.0,32.000000
-61,5,26,1625816584.0,32.000000
-61,5,26,1625816584.0,32.000000
-61,5,26,1625816584.0,32.000000
-61,5,26,1625816584.0,32.000000
-61,5,26,1625816584.0,32.000000
-61,5,26,1625816584.0,32.000000
-61,5,26,1625816584.0,32.000000
-61,5,26,1625816584.0,32.000000
-61,5,26,1625816584.0,32.000000
-61,5,26,1625816584.0,32.000000
-61,5,26,1625816584.0,32.000000
-61,5,26,1625816584.0,32.000000
-61,5,26,1625816584.0,32.000000
-61,5,26,1625816584.0,32.000000
-61,5,26,1625816584.0,32.000000
-61,5,26,1625816584.0,32.000000
-61,5,26,1625816584.0,32.000000
-60,5,26,1625816584.0,32.000000
-61,5,26,1625816584.0,32.000000
-61,5,26,1625816584.0,32.000000
-61,5,26,1625816584.0,32.000000
-61,5,26,1625816584.0,32.000000
-61,6,26,1625816584.0,32.000000
-61,5,26,1625816584.0,32.000000
-61,5,26,1625816584.0,32.000000
-61,5,26,1625816584.0,32.000000
-61,5,26,1625816584.0,32.000000
-61,5,26,1625816584.0,32.000000
-61,5,26,1625816584.0,32.000000
-61,5,27,1625816584.0,32.000000
-61,5,26,1625816584.0,32.000000
-61,5,26,1625816584.0,32.000000
-61,5,26,1625816584.0,32.000000
-61,5,26,1625816584.0,32.000000
-61,5,26,1625816584.0,32.000000
-61,5,26,1625816584.0,32.000000
-61,5,26,1625816584.0,32.000000
-61,5,26,1625816584.0,32.000000
-61,5,27,1625816584.0,32.000000
-61,5,26,1625816584.0,32.000000
-61,5,26,1625816584.0,32.000000
-61,5,26,1625816584.0,32.000000
-64,3,22,1625816584.0,32.000000
-60,6,26,1625816584.0,32.000000
-58,7,30,1625816584.0,32.000000
-74,3,21,1625816584.0,32.000000
-50,6,40,1625816584.0,32.000000
-49,9,35,1625816584.0,32.000000
-56,6,33,1625816584.0,32.000000
-47,11,48,1625816584.0,32.000000
-35,12,49,1625816584.0,32.000000
-38,15,52,1625816584.0,32.000000
-39,13,48,1625816584.0,32.000000
-46,10,44,1625816584.0,32.000000
-52,11,43,1625816584.0,32.000000
-61,6,32,1625816584.0,32.000000
-61,6,29,1625816584.0,32.000000
-60,7,30,1625816584.0,32.000000
-56,8,35,1625816584.0,32.000000
-55,9,36,1625816584.0,32.000000
-54,9,38,1625816584.0,32.000000
-55,8,36,1625816584.0,32.000000
-57,8,35,1625816584.0,32.000000
-57,8,34,1625816584.0,32.000000
-56,8,35,1625816584.0,32.000000
-55,9,36,1625816584.0,32.000000
-56,9,36,1625816584.0,32.000000
-56,9,35,1625816584.0,32.000000
-56,8,35,1625816584.0,32.000000
-56,8,35,1625816584.0,32.000000
-56,8,35,1625816584.0,32.000000
-55,9,36,1625816584.0,32.000000
-56,9,36,1625816584.0,32.000000
-56,8,35,1625816584.0,32.000000
-56,8,35,1625816584.0,32.000000
-56,8,35,1625816584.0,32.000000
-56,9,35,1625816584.0,32.000000
-56,9,35,1625816584.0,32.000000
-56,9,35,1625816584.0,32.000000
-56,9,35,1625816584.0,32.000000
-56,8,35,1625816584.0,32.000000
-56,8,35,1625816584.0,32.000000
-56,8,35,1625816584.0,32.000000
-56,8,35,1625816584.0,32.000000
-56,8,35,1625816584.0,32.000000
-56,8,35,1625816584.0,32.000000
-56,8,35,1625816584.0,32.000000
-56,8,35,1625816584.0,32.000000
-56,8,35,1625816584.0,32.000000
-56,9,35,1625816584.0,32.000000
-56,9,35,1625816584.0,32.000000
-56,8,35,1625816584.0,32.000000
-56,8,35,1625816584.0,32.000000
-56,8,35,1625816584.0,32.000000
-56,8,35,1625816584.0,32.000000
-56,9,35,1625816584.0,32.000000
-55,8,35,1625816584.0,32.000000
-56,9,35,1625816584.0,32.000000
-56,8,35,1625816584.0,32.000000
-56,8,35,1625816584.0,32.000000
-56,8,36,1625816584.0,32.000000
-56,9,35,1625816584.0,32.000000
-56,9,35,1625816584.0,32.000000
-56,9,36,1625816584.0,32.000000
-55,8,35,1625816584.0,32.000000
-57,9,35,1625816584.0,32.000000
-56,8,35,1625816584.0,32.000000
-57,9,36,1625816584.0,32.000000
-55,9,35,1625816584.0,32.000000
-57,9,34,1625816584.0,32.000000
-57,9,34,1625816584.0,32.000000
-58,9,36,1625816584.0,32.000000
-55,7,36,1625816584.0,32.000000
-56,9,34,1625816584.0,32.000000
-56,9,33,1625816584.0,32.000000
-56,8,35,1625816584.0,32.000000
-55,8,36,1625816584.0,32.000000
-56,8,34,1625816584.0,32.000000
-57,8,34,1625816584.0,32.000000
-56,9,35,1625816584.0,32.000000
-56,9,36,1625816584.0,32.000000
-56,9,35,1625816584.0,32.000000
-56,9,35,1625816584.0,32.000000
-57,8,35,1625816584.0,32.000000
-56,8,35,1625816584.0,32.000000
-56,9,35,1625816584.0,32.000000
-56,9,35,1625816584.0,32.000000
-56,8,35,1625816584.0,32.000000
-56,8,35,1625816584.0,32.000000
-56,8,35,1625816584.0,32.000000
-56,9,35,1625816584.0,32.000000
-56,9,35,1625816584.0,32.000000
-56,9,35,1625816584.0,32.000000
-56,9,35,1625816584.0,32.000000
-56,8,35,1625816584.0,32.000000
-56,8,34,1625816584.0,32.000000
-56,9,35,1625816584.0,32.000000
-56,9,35,1625816584.0,32.000000
-56,8,35,1625816584.0,32.000000
-56,8,35,1625816584.0,32.000000
-56,9,35,1625816584.0,32.000000
-56,8,35,1625816584.0,32.000000
-56,9,35,1625816584.0,32.000000
-56,9,35,1625816584.0,32.000000
-56,8,35,1625816584.0,32.000000
-56,8,35,1625816584.0,32.000000
-56,8,35,1625816584.0,32.000000
-56,9,35,1625816584.0,32.000000
-56,9,35,1625816584.0,32.000000
-56,8,35,1625816584.0,32.000000
-56,8,35,1625816584.0,32.000000
-56,8,35,1625816584.0,32.000000
-56,9,35,1625816584.0,32.000000
-56,8,35,1625816584.0,32.000000
-56,9,35,1625816584.0,32.000000
-56,8,35,1625816584.0,32.000000
-56,8,35,1625816584.0,32.000000
-56,9,35,1625816584.0,32.000000
-56,9,35,1625816584.0,32.000000
-56,8,35,1625816584.0,32.000000
-56,8,35,1625816584.0,32.000000
-56,8,35,1625816584.0,32.000000
-56,8,35,1625816584.0,32.000000
-56,9,35,1625816584.0,32.000000
-56,8,35,1625816584.0,32.000000
-56,8,35,1625816584.0,32.000000
-56,9,35,1625816584.0,32.000000
-56,9,35,1625816584.0,32.000000
-56,8,35,1625816584.0,32.000000
-56,8,35,1625816584.0,32.000000
-56,8,35,1625816584.0,32.000000
-56,8,35,1625816584.0,32.000000
-56,8,35,1625816584.0,32.000000
-56,8,35,1625816584.0,32.000000
-56,9,35,1625816584.0,32.000000
-56,9,35,1625816584.0,32.000000
-56,8,35,1625816584.0,32.000000
-56,8,35,1625816584.0,32.000000
-56,8,35,1625816584.0,32.000000
-56,8,35,1625816584.0,32.000000
-56,9,35,1625816584.0,32.000000
-56,8,35,1625816584.0,32.000000
-56,9,35,1625816584.0,32.000000
-56,9,35,1625816584.0,32.000000
-56,8,35,1625816584.0,32.000000
-56,9,35,1625816584.0,32.000000
-56,8,35,1625816584.0,32.000000
-56,8,35,1625816584.0,32.000000
-56,9,35,1625816584.0,32.000000
-56,8,35,1625816584.0,32.000000
-56,9,35,1625816584.0,32.000000
-56,9,35,1625816584.0,32.000000
-56,8,35,1625816584.0,32.000000
-56,8,35,1625816584.0,32.000000
-56,8,35,1625816584.0,32.000000
-56,8,35,1625816584.0,32.000000
-56,8,35,1625816584.0,32.000000
-56,8,35,1625816584.0,32.000000
-56,9,35,1625816584.0,32.000000
-56,9,35,1625816584.0,32.000000
-56,9,35,1625816584.0,32.000000
-56,9,35,1625816584.0,32.000000
-56,8,35,1625816584.0,32.000000
-56,8,35,1625816584.0,32.000000
-56,9,35,1625816584.0,32.000000
-56,8,35,1625816584.0,32.000000
-56,9,35,1625816584.0,32.000000
-56,8,35,1625816584.0,32.000000
-56,8,35,1625816584.0,32.000000
-56,8,35,1625816584.0,32.000000
-56,9,35,1625816584.0,32.000000
-56,8,35,1625816584.0,32.000000
-56,8,35,1625816584.0,32.000000
-56,9,35,1625816584.0,32.000000
-56,9,35,1625816584.0,32.000000
-56,8,35,1625816584.0,32.000000
-56,8,35,1625816584.0,32.000000
-56,8,35,1625816584.0,32.000000
-56,9,35,1625816584.0,32.000000
-56,9,35,1625816584.0,32.000000
-56,9,35,1625816584.0,32.000000
-56,8,35,1625816584.0,32.000000
-56,9,35,1625816584.0,32.000000
-56,8,35,1625816584.0,32.000000
-56,8,35,1625816584.0,32.000000
-56,8,35,1625816584.0,32.000000
-56,8,35,1625816584.0,32.000000
-56,9,35,1625816584.0,32.000000
-56,9,35,1625816584.0,32.000000
-56,9,35,1625816584.0,32.000000
-56,9,35,1625816584.0,32.000000
-56,9,35,1625816584.0,32.000000
-56,9,35,1625816584.0,32.000000
-56,8,35,1625816584.0,32.000000
-56,8,35,1625816584.0,32.000000
-56,8,35,1625816584.0,32.000000
-56,8,35,1625816584.0,32.000000
-56,8,35,1625816584.0,32.000000
-56,8,35,1625816584.0,32.000000
-56,9,35,1625816584.0,32.000000
-56,9,35,1625816584.0,32.000000
-56,9,35,1625816584.0,32.000000
-56,9,35,1625816584.0,32.000000
-56,9,35,1625816584.0,32.000000
-56,8,35,1625816584.0,32.000000
-56,8,35,1625816584.0,32.000000
-56,9,35,1625816584.0,32.000000
-56,8,35,1625816584.0,32.000000
-56,8,35,1625816584.0,32.000000
-56,9,35,1625816584.0,32.000000
-56,9,35,1625816584.0,32.000000
-56,9,35,1625816584.0,32.000000
-56,9,35,1625816584.0,32.000000
-56,9,35,1625816584.0,32.000000
-56,9,35,1625816584.0,32.000000
-56,8,35,1625816584.0,32.000000
-56,8,36,1625816584.0,32.000000
-56,9,35,1625816584.0,32.000000
-56,9,35,1625816584.0,32.000000
-56,9,35,1625816584.0,32.000000
-56,8,35,1625816584.0,32.000000
-56,9,35,1625816584.0,32.000000
-56,9,35,1625816584.0,32.000000
-57,8,37,1625816584.0,32.000000
-50,10,37,1625816584.0,32.000000
-62,-2,39,1625816584.0,32.000000
-113,18,53,1625816584.0,32.000000
-111,24,57,1625816584.0,32.000000
-92,2,58,1625816584.0,32.000000
-127,-31,3,1625816584.0,32.000000
-124,-25,-6,1625816584.0,32.000000
-80,8,10,1625816584.0,32.000000
-59,10,18,1625816584.0,32.000000
-17,5,27,1625816584.0,32.000000
-28,0,17,1625816584.0,32.000000
-21,5,9,1625816584.0,32.000000
54,-2,30,1625816584.0,32.000000
57,0,33,1625816584.0,32.000000
44,0,44,1625816584.0,32.000000
30,-7,40,1625816584.0,32.000000
24,-11,40,1625816584.0,32.000000
5,-12,49,1625816584.0,32.000000
-5,-12,44,1625816584.0,32.000000
-16,1,44,1625816584.0,32.000000
-22,10,50,1625816584.0,32.000000
-30,-11,48,1625816584.0,32.000000
-46,-2,47,1625816584.0,32.000000
-42,9,49,1625816584.0,32.000000
-40,-16,47,1625816584.0,32.000000
-56,-12,51,1625816584.0,32.000000
-87,15,55,1625816584.0,32.000000
-72,6,69,1625816584.0,32.000000
-72,6,85,1625816584.0,32.000000
-87,11,51,1625816584.0,32.000000
-63,7,37,1625816584.0,32.000000
-44,3,23,1625816584.0,32.000000
-70,1,10,1625816584.0,32.000000
-83,9,17,1625816584.0,32.000000
-59,8,25,1625816584.0,32.000000
-54,4,27,1625816584.0,32.000000
-57,5,43,1625816584.0,32.000000
-51,6,43,1625816584.0,32.000000
-53,8,41,1625816584.0,32.000000
-50,14,46,1625816584.0,32.000000
-50,13,43,1625816584.0,32.000000
-55,9,38,1625816584.0,32.000000
-52,8,38,1625816584.0,32.000000
-55,7,34,1625816584.0,32.000000
-56,8,34,1625816584.0,32.000000
-55,8,35,1625816584.0,32.000000
-55,8,37,1625816584.0,32.000000
-55,8,37,1625816584.0,32.000000
-55,8,36,1625816584.0,32.000000
-56,9,36,1625816584.0,32.000000
-55,8,36,1625816584.0,32.000000
-56,8,36,1625816584.0,32.000000
-55,8,35,1625816584.0,32.000000
-56,8,36,1625816584.0,32.000000
-56,8,35,1625816584.0,32.000000
-56,8,35,1625816584.0,32.000000
-55,8,36,1625816584.0,32.000000
-55,8,36,1625816584.0,32.000000
-56,8,35,1625816584.0,32.000000
-56,8,35,1625816584.0,32.000000
-56,8,35,1625816584.0,32.000000
-56,9,35,1625816584.0,32.000000
-56,8,35,1625816584.0,32.000000
-55,8,36,1625816584.0,32.000000
-56,8,35,1625816584.0,32.000000
-56,8,35,1625816584.0,32.000000
-57,8,35,1625816584.0,32.000000
-57,8,35,1625816584.0,32.000000
-54,8,36,1625816584.0,32.000000
-56,9,35,1625816584.0,32.000000
-55,9,34,1625816584.0,32.000000
-57,8,36,1625816584.0,32.000000
-56,8,36,1625816584.0,32.000000
-54,8,36,1625816584.0,32.000000
-57,8,34,1625816584.0,32.000000
-56,8,34,1625816584.0,32.000000
-56,8,35,1625816584.0,32.000000
-55,8,36,1625816584.0,32.000000
-55,8,35,1625816584.0,32.000000
-57,8,35,1625816584.0,32.000000
-56,8,35,1625816584.0,32.000000
-56,8,36,1625816584.0,32.000000
-56,8,35,1625816584.0,32.000000
-56,8,35,1625816584.0,32.000000
-56,8,35,1625816584.0,32.000000
-56,8,35,1625816584.0,32.000000
-56,8,35,1625816584.0,32.000000
-56,8,35,1625816584.0,32.000000
-56,8,35,1625816584.0,32.000000
-56,8,35,1625816584.0,32.000000
-56,8,35,1625816584.0,32.000000
-56,8,35,1625816584.0,32.000000
-56,8,35,1625816584.0,32.000000
-56,8,35,1625816584.0,32.000000
-56,8,35,1625816584.0,32.000000
-56,8,35,1625816584.0,32.000000
-56,8,35,1625816584.0,32.000000
-56,8,35,1625816584.0,32.000000
-56,8,35,1625816584.0,32.000000
-56,8,35,1625816584.0,32.000000
-56,8,35,1625816584.0,32.000000
-56,8,35,1625816584.0,32.000000
-56,8,35,1625816584.0,32.000000
-56,8,35,1625816584.0,32.000000
-56,8,35,1625816584.0,32.000000
-55,9,35,1625816584.0,32.000000
-55,9,35,1625816584.0,32.000000
-58,9,36,1625816584.0,32.000000
-56,7,36,1625816584.0,32.000000
-54,8,35,1625816584.0,32.000000
-57,8,34,1625816584.0,32.000000
-56,8,34,1625816584.0,32.000000
-56,8,35,1625816584.0,32.000000
-56,8,35,1625816584.0,32.000000
-56,8,34,1625816584.0,32.000000
-56,8,35,1625816584.0,32.000000
-56,8,35,1625816584.0,32.000000
-56,9,35,1625816584.0,32.000000
-56,8,35,1625816584.0,32.000000
-56,8,34,1625816584.0,32.000000
-56,8,35,1625816584.0,32.000000
-56,8,35,1625816584.0,32.000000
-56,8,35,1625816584.0,32.000000
-56,8,35,1625816584.0,32.000000
-56,8,35,1625816584.0,32.000000
-56,8,35,1625816584.0,32.000000
-56,8,35,1625816584.0,32.000000
-56,8,35,1625816584.0,32.000000
-56,8,35,1625816584.0,32.000000
-56,8,35,1625816584.0,32.000000
-56,8,35,1625816584.0,32.000000
-56,8,35,1625816584.0,32.000000
-56,8,35,1625816584.0,32.000000
-56,8,35,1625816584.0,32.000000
-56,8,35,1625816584.0,32.000000
-56,8,35,1625816584.0,32.000000
-56,8,35,1625816584.0,32.000000
-56,8,35,1625816584.0,32.000000
-56,8,35,1625816584.0,32.000000
-56,8,35,1625816584.0,32.000000
-56,8,35,1625816584.0,32.000000
-56,8,35,1625816584.0,32.000000
-56,8,35,1625816584.0,32.000000
-56,8,35,1625816584.0,32.000000
-56,8,35,1625816584.0,32.000000
-56,8,35,1625816584.0,32.000000
-56,8,35,1625816584.0,32.000000
-56,8,35,1625816584.0,32.000000
-56,8,35,1625816584.0,32.000000
-56,8,35,1625816584.0,32.000000
-56,8,35,1625816584.0,32.000000
-56,8,35,1625816584.0,32.000000
-56,8,35,1625816584.0,32.000000
-56,8,35,1625816584.0,32.000000
-56,8,35,1625816584.0,32.000000
-56,8,35,1625816584.0,32.000000
-56,8,35,1625816584.0,32.000000
-56,8,35,1625816584.0,32.000000
-56,8,35,1625816584.0,32.000000
-56,8,35,1625816584.0,32.000000
-57,8,35,1625816584.0,32.000000
-55,8,35,1625816584.0,32.000000
-57,8,35,1625816584.0,32.000000
-56,8,34,1625816584.0,32.000000
-56,8,35,1625816584.0,32.000000
-56,8,35,1625816584.0,32.000000
-56,8,35,1625816584.0,32.000000
-57,8,36,1625816584.0,32.000000
-56,8,35,1625816584.0,32.000000
-57,8,34,1625816584.0,32.000000
-57,8,34,1625816584.0,32.000000
-56,8,35,1625816584.0,32.000000
-56,8,36,1625816584.0,32.000000
-57,8,34,1625816584.0,32.000000
-57,8,34,1625816584.0,32.000000
-56,8,35,1625816584.0,32.000000
-56,8,35,1625816584.0,32.000000
-56,8,35,1625816584.0,32.000000
-56,8,35,1625816584.0,32.000000
-56,8,35,1625816584.0,32.000000
-56,8,35,1625816584.0,32.000000
-56,8,35,1625816584.0,32.000000
-56,8,35,1625816584.0,32.000000
-56,8,35,1625816584.0,32.000000
-56,8,35,1625816584.0,32.000000
-56,8,35,1625816584.0,32.000000
-56,8,35,1625816584.0,32.000000
-56,8,35,1625816584.0,32.000000
-56,8,35,1625816584.0,32.000000
-56,8,35,1625816584.0,32.000000
-56,8,35,1625816584.0,32.000000
-56,8,35,1625816584.0,32.000000
-56,8,35,1625816584.0,32.000000
-56,8,35,1625816584.0,32.000000
-56,8,35,1625816584.0,32.000000
-56,8,35,1625816584.0,32.000000
-56,8,35,1625816584.0,32.000000
-56,8,35,1625816584.0,32.000000
-56,8,35,1625816584.0,32.000000
-56,8,35,1625816584.0,32.000000
-56,8,35,1625816584.0,32.000000
-56,8,35,1625816584.0,32.000000
-56,8,34,1625816584.0,32.000000
-56,8,35,1625816584.0,32.000000
-56,8,35,1625816584.0,32.000000
-56,8,35,1625816584.0,32.000000
-56,8,35,1625816584.0,32.000000
-56,8,35,1625816584.0,32.000000
-56,8,35,1625816584.0,32.000000
-56,8,35,1625816584.0,32.000000
-56,8,35,1625816584.0,32.000000
-56,8,35,1625816584.0,32.000000
-56,8,35,1625816584.0,32.000000
-56,8,35,1625816584.0,32.000000
-56,8,35,1625816584.0,32.000000
-56,8,35,1625816584.0,32.000000
-56,8,35,1625816584.0,32.000000
-56,8,35,1625816584.0,32.000000
-56,8,35,1625816584.0,32.000000
-56,8,35,1625816584.0,32.000000
-56,8,35,1625816584.0,32.000000
-56,8,35,1625816584.0,32.000000
-56,8,35,1625816584.0,32.000000
-56,8,35,1625816584.0,32.000000
-56,8,34,1625816584.0,32.000000
-56,8,35,1625816584.0,32.000000
-57,8,35,1625816584.0,32.000000
-56,7,35,1625816584.0,32.000000
-57,8,35,1625816584.0,32.000000
-56,8,35,1625816584.0,32.000000
-56,9,35,1625816584.0,32.000000
-56,9,34,1625816584.0,32.000000
-55,9,35,1625816584.0,32.000000
-59,8,36,1625816584.0,32.000000
-55,6,35,1625816584.0,32.000000
-56,8,33,1625816584.0,32.000000
-57,8,33,1625816584.0,32.000000
-55,9,36,1625816584.0,32.000000
-55,8,36,1625816584.0,32.000000
-56,8,34,1625816584.0,32.000000
-57,8,34,1625816584.0,32.000000
-57,8,34,1625816584.0,32.000000
-56,8,35,1625816584.0,32.000000
-56,8,35,1625816584.0,32.000000
-56,8,35,1625816584.0,32.000000
-56,8,35,1625816584.0,32.000000
-56,8,34,1625816584.0,32.000000
-56,8,35,1625816584.0,32.000000
-56,8,35,1625816584.0,32.000000
-56,8,35,1625816584.0,32.000000
-56,8,35,1625816584.0,32.000000
-56,8,35,1625816584.0,32.000000
-56,8,34,1625816584.0,32.000000
-57,8,34,1625816584.0,32.000000
-56,8,35,1625816584.0,32.000000
-56,8,35,1625816584.0,32.000000
-56,8,35,1625816584.0,32.000000
-56,8,34,1625816584.0,32.000000
-56,8,34,1625816584.0,32.000000
-56,8,35,1625816584.0,32.000000
-56,8,35,1625816584.0,32.000000
-56,8,35,1625816584.0,32.000000
-56,8,35,1625816584.0,32.000000
-56,8,35,1625816584.0,32.000000
-56,8,35,1625816584.0,32.000000
-56,8,35,1625816584.0,32.000000
-56,8,35,1625816584.0,32.000000
-56,8,35,1625816584.0,32.000000
-56,8,35,1625816584.0,32.000000
-57,8,35,1625816584.0,32.000000
-56,8,35,1625816584.0,32.000000
-56,8,35,1625816584.0,32.000000
-56,8,35,1625816584.0,32.000000
-56,8,35,1625816584.0,32.000000
-56,8,35,1625816584.0,32.000000
-56,8,35,1625816584.0,32.000000
-56,8,35,1625816584.0,32.000000
-56,8,34,1625816584.0,32.000000
-56,8,35,1625816584.0,32.000000
-56,8,35,1625816584.0,32.000000
-56,8,35,1625816584.0,32.000000
-56,8,35,1625816584.0,32.000000
-56,8,35,1625816584.0,32.000000
-56,8,35,1625816584.0,32.000000
-56,8,35,1625816584.0,32.000000
-56,8,35,1625816584.0,32.000000
-56,8,35,1625816584.0,32.000000
-56,8,35,1625816584.0,32.000000
-56,8,35,1625816584.0,32.000000
-56,8,35,1625816584.0,32.000000
-56,8,35,1625816584.0,32.000000
-56,8,35,1625816584.0,32.000000
-57,8,35,1625816584.0,32.000000
-56,8,35,1625816584.0,32.000000
-56,8,35,1625816584.0,32.000000
-56,8,35,1625816584.0,32.000000
-56,8,34,1625816584.0,32.000000
-56,8,34,1625816584.0,32.000000
-56,8,35,1625816584.0,32.000000
-56,8,36,1625816584.0,32.000000
-56,8,36,1625816584.0,32.000000
-56,8,34,1625816584.0,32.000000
-57,8,33,1625816584.0,32.000000
-56,8,35,1625816584.0,32.000000
-56,8,36,1625816584.0,32.000000
-56,8,35,1625816584.0,32.000000
-57,8,34,1625816584.0,32.000000
-57,8,34,1625816584.0,32.000000
-56,8,35,1625816584.0,32.000000
-56,8,35,1625816584.0,32.000000
-56,8,35,1625816584.0,32.000000
-56,8,35,1625816584.0,32.000000
-56,8,35,1625816584.0,32.000000
-57,8,34,1625816584.0,32.000000
-56,8,35,1625816584.0,32.000000
-56,9,35,1625816584.0,32.000000
-56,9,35,1625816584.0,32.000000
-56,8,35,1625816584.0,32.000000
-56,8,34,1625816584.0,32.000000
-57,8,35,1625816584.0,32.000000
-56,8,35,1625816584.0,32.000000
-56,8,35,1625816584.0,32.000000
-56,8,35,1625816584.0,32.000000
-56,8,35,1625816584.0,32.000000
-56,8,34,1625816584.0,32.000000
-56,8,35,1625816584.0,32.000000
-56,8,35,1625816584.0,32.000000
-56,8,35,1625816584.0,32.000000
-56,8,35,1625816584.0,32.000000
-56,8,35,1625816584.0,32.000000
-56,8,35,1625816584.0,32.000000
-56,8,35,1625816584.0,32.000000
-56,8,35,1625816584.0,32.000000
-56,8,35,1625816584.0,32.000000
-56,8,35,1625816584.0,32.000000
-56,8,35,1625816584.0,32.000000
-56,8,35,1625816584.0,32.000000
-56,8,35,1625816584.0,32.000000
-56,8,35,1625816584.0,32.000000
-56,8,35,1625816584.0,32.000000
-56,8,35,1625816584.0,32.000000
-56,8,35,1625816584.0,32.000000
-56,8,35,1625816584.0,32.000000
-56,8,35,1625816584.0,32.000000
-56,8,35,1625816584.0,32.000000
-56,8,35,1625816584.0,32.000000
-56,8,35,1625816584.0,32.000000
-56,8,35,1625816584.0,32.000000
-56,8,35,1625816584.0,32.000000
-56,8,35,1625816584.0,32.000000
-57,8,35,1625816584.0,32.000000
-56,8,35,1625816584.0,32.000000
-57,8,35,1625816584.0,32.000000
-56,8,34,1625816584.0,32.000000
-56,9,34,1625816584.0,32.000000
-56,9,35,1625816584.0,32.000000
-56,8,36,1625816584.0,32.000000
-56,8,35,1625816584.0,32.000000
-57,8,35,1625816584.0,32.000000
-56,8,35,1625816584.0,32.000000
-56,8,35,1625816584.0,32.000000
-56,9,34,1625816584.0,32.000000
-57,8,34,1625816584.0,32.000000
-56,8,35,1625816584.0,32.000000
-56,8,35,1625816584.0,32.000000
-57,8,34,1625816584.0,32.000000
-56,9,35,1625816584.0,32.000000
-56,8,35,1625816584.0,32.000000
-56,8,35,1625816584.0,32.000000
-57,8,35,1625816584.0,32.000000
-56,8,34,1625816584.0,32.000000
-56,8,35,1625816584.0,32.000000
-56,8,35,1625816584.0,32.000000
-56,8,35,1625816584.0,32.000000
-56,8,35,1625816584.0,32.000000
-56,8,35,1625816584.0,32.000000
-56,8,35,1625816584.0,32.000000
-56,8,35,1625816584.0,32.000000
-56,8,35,1625816584.0,32.000000
-56,8,35,1625816584.0,32.000000
-56,8,35,1625816584.0,32.000000
-56,8,35,1625816584.0,32.000000
-56,8,35,1625816584.0,32.000000
-56,8,34,1625816584.0,32.000000
-56,8,35,1625816584.0,32.000000
-56,8,35,1625816584.0,32.000000
-56,8,35,1625816584.0,32.000000
-56,8,34,1625816584.0,32.000000
-56,8,35,1625816584.0,32.000000
-56,8,35,1625816584.0,32.000000
-56,8,35,1625816584.0,32.000000
-56,8,35,1625816584.0,32.000000
-56,8,35,1625816584.0,32.000000
-56,8,35,1625816584.0,32.000000
-56,8,35,1625816584.0,32.000000
-56,8,35,1625816584.0,32.000000
-56,8,35,1625816584.0,32.000000
-56,8,35,1625816584.0,32.000000
-56,8,35,1625816584.0,32.000000
-56,8,35,1625816584.0,32.000000
-56,8,35,1625816584.0,32.000000
-56,8,35,1625816584.0,32.000000
-56,8,35,1625816584.0,32.000000
-56,8,35,1625816584.0,32.000000
-56,8,35,1625816584.0,32.000000
-56,8,35,1625816584.0,32.000000
-56,8,35,1625816584.0,32.000000
-56,8,35,1625816584.0,32.000000
-56,8,35,1625816584.0,32.000000
-56,8,35,1625816584.0,32.000000
-56,8,35,1625816584.0,32.000000
-57,8,35,1625816584.0,32.000000
-56,8,35,1625816584.0,32.000000
-56,8,35,1625816584.0,32.000000
-56,8,34,1625816584.0,32.000000
-56,8,35,1625816584.0,32.000000
-57,8,35,1625816584.0,32.000000
-56,7,35,1625816584.0,32.000000
-56,8,34,1625816584.0,32.000000
-56,9,34,1625816584.0,32.000000
-56,8,35,1625816584.0,32.000000
-56,8,36,1625816584.0,32.000000
-56,8,35,1625816584.0,32.000000
-60,8,34,1625816584.0,32.000000
-53,8,35,1625816584.0,32.000000
-57,9,36,1625816584.0,32.000000
-55,8,34,1625816584.0,32.000000
-57,9,33,1625816584.0,32.000000
-55,8,36,1625816584.0,32.000000
-55,8,36,1625816584.0,32.000000
-57,8,34,1625816584.0,32.000000
-57,8,34,1625816584.0,32.000000
-56,8,36,1625816584.0,32.000000
-56,8,35,1625816584.0,32.000000
-56,8,35,1625816584.0,32.000000
-56,8,35,1625816584.0,32.000000
-56,8,35,1625816584.0,32.000000
-57,8,35,1625816584.0,32.000000
-56,8,35,1625816584.0,32.000000
-56,9,35,1625816584.0,32.000000
-56,8,35,1625816584.0,32.000000
-57,8,34,1625816584.0,32.000000
-56,8,35,1625816584.0,32.000000
-56,8,35,1625816584.0,32.000000
-56,8,35,1625816584.0,32.000000
-56,8,35,1625816584.0,32.000000
-56,8,35,1625816584.0,32.000000
-56,8,35,1625816584.0,32.000000
-56,8,35,1625816584.0,32.000000
-56,8,35,1625816584.0,32.000000
-56,8,35,1625816584.0,32.000000
-56,9,35,1625816584.0,32.000000
-56,9,35,1625816584.0,32.000000
-57,8,34,1625816584.0,32.000000
-57,8,35,1625816584.0,32.000000
-56,8,35,1625816584.0,32.000000
-56,8,35,1625816584.0,32.000000
-56,8,34,1625816584.0,32.000000
-56,8,34,1625816584.0,32.000000
-56,8,34,1625816584.0,32.000000
-56,8,34,1625816584.0,32.000000
-57,9,37,1625816584.0,32.000000
-56,8,33,1625816584.0,32.000000
-57,9,31,1625816584.0,32.000000
-57,8,34,1625816584.0,32.000000
-56,9,36,1625816584.0,32.000000
-56,8,36,1625816584.0,32.000000
-58,8,32,1625816584.0,32.000000
-57,7,31,1625816584.0,32.000000
-57,9,35,1625816584.0,32.000000
-51,10,42,1625816584.0,32.000000
-51,10,42,1625816584.0,32.000000
-57,8,33,1625816584.0,32.000000
-59,8,30,1625816584.0,32.000000
-56,8,35,1625816584.0,32.000000
-55,8,37,1625816584.0,32.000000
-56,8,36,1625816584.0,32.000000
-57,9,34,1625816584.0,32.000000
-56,9,35,1625816584.0,32.000000
-56,9,36,1625816584.0,32.000000
-56,8,36,1625816584.0,32.000000
-56,8,35,1625816584.0,32.000000
-56,8,35,1625816584.0,32.000000
-56,8,35,1625816584.0,32.000000
-56,8,35,1625816584.0,32.000000
-57,8,35,1625816584.0,32.000000
-56,8,35,1625816584.0,32.000000
-56,9,34,1625816584.0,32.000000
-56,10,34,1625816584.0,32.000000
-55,9,36,1625816584.0,32.000000
-55,8,36,1625816584.0,32.000000
-55,8,35,1625816584.0,32.000000
-57,7,34,1625816584.0,32.000000
-57,7,34,1625816584.0,32.000000
-55,8,35,1625816584.0,32.000000
-56,9,36,1625816584.0,32.000000
-55,9,36,1625816584.0,32.000000
-56,9,34,1625816584.0,32.000000
-56,8,34,1625816584.0,32.000000
-56,8,35,1625816584.0,32.000000
-55,8,35,1625816584.0,32.000000
-55,8,35,1625816584.0,32.000000
-56,8,35,1625816584.0,32.000000
-56,8,35,1625816584.0,32.000000
-56,8,35,1625816584.0,32.000000
-56,8,35,1625816584.0,32.000000
-56,8,36,1625816584.0,32.000000
-55,8,36,1625816584.0,32.000000
-56,8,35,1625816584.0,32.000000
-56,8,35,1625816584.0,32.000000
-56,8,35,1625816584.0,32.000000
-56,8,35,1625816584.0,32.000000
-56,8,35,1625816584.0,32.000000
-56,9,35,1625816584.0,32.000000
-56,8,35,1625816584.0,32.000000
-56,8,35,1625816584.0,32.000000
-56,8,35,1625816584.0,32.000000
-56,8,35,1625816584.0,32.000000
-56,8,35,1625816584.0,32.000000
-56,8,35,1625816584.0,32.000000
-56,8,35,1625816584.0,32.000000
-56,8,35,1625816584.0,32.000000
-57,8,35,1625816584.0,32.000000
-57,8,35,1625816584.0,32.000000
-56,8,34,1625816584.0,32.000000
-56,8,34,1625816584.0,32.000000
-56,8,34,1625816584.0,32.000000
-56,8,34,1625816584.0,32.000000
-56,8,34,1625816584.0,32.000000
-57,8,34,1625816584.0,32.000000
-57,8,34,1625816584.0,32.000000
-57,8,35,1625816584.0,32.000000
-57,8,35,1625816584.0,32.000000
-57,8,34,1625816584.0,32.000000
-57,8,34,1625816584.0,32.000000
-57,8,34,1625816584.0,32.000000
-56,8,34,1625816584.0,32.000000
-56,8,34,1625816584.0,32.000000
-56,8,34,1625816584.0,32.000000
-57,8,34,1625816584.0,32.000000
-56,8,35,1625816584.0,32.000000
-57,8,34,1625816584.0,32.000000
-57,8,34,1625816584.0,32.000000
-57,8,34,1625816584.0,32.000000
-56,8,34,1625816584.0,32.000000
-57,8,34,1625816584.0,32.000000
-56,7,34,1625816584.0,32.000000
-56,8,35,1625816584.0,32.000000
-57,8,34,1625816584.0,32.000000
-56,9,33,1625816584.0,32.000000
-56,9,34,1625816584.0,32.000000
-55,8,34,1625816584.0,32.000000
-61,7,35,1625816584.0,32.000000
-56,6,34,1625816584.0,32.000000
-55,8,33,1625816584.0,32.000000
-57,9,33,1625816584.0,32.000000
-56,8,34,1625816584.0,32.000000
-56,8,35,1625816584.0,32.000000
-57,8,34,1625816584.0,32.000000
-57,8,34,1625816584.0,32.000000
-57,8,34,1625816584.0,32.000000
-56,8,34,1625816584.0,32.000000
-56,8,34,1625816584.0,32.000000
-57,8,34,1625816584.0,32.000000
-57,8,34,1625816584.0,32.000000
-57,8,34,1625816584.0,32.000000
-57,8,33,1625816584.0,32.000000
-56,8,34,1625816584.0,32.000000
-57,8,34,1625816584.0,32.000000
-57,8,34,1625816584.0,32.000000
-57,8,34,1625816584.0,32.000000
-57,8,34,1625816584.0,32.000000
-57,8,34,1625816584.0,32.000000
-57,9,34,1625816584.0,32.000000
-56,9,34,1625816584.0,32.000000
-56,8,34,1625816584.0,32.000000
-57,8,34,1625816584.0,32.000000
-57,8,34,1625816584.0,32.000000
-56,8,34,1625816584.0,32.000000
-56,8,34,1625816584.0,32.000000
-56,9,34,1625816584.0,32.000000
-57,8,34,1625816584.0,32.000000
-57,8,34,1625816584.0,32.000000
-57,8,34,1625816584.0,32.000000
-57,8,34,1625816584.0,32.000000
-57,8,34,1625816584.0,32.000000
-56,8,34,1625816584.0,32.000000
-57,8,34,1625816584.0,32.000000
-57,8,34,1625816584.0,32.000000
-57,8,34,1625816584.0,32.000000
-57,8,34,1625816584.0,32.000000
-56,8,34,1625816584.0,32.000000
-56,8,34,1625816584.0,32.000000
-57,8,34,1625816584.0,32.000000
-57,8,34,1625816584.0,32.000000
-57,8,34,1625816584.0,32.000000
-57,8,34,1625816584.0,32.000000
-57,8,34,1625816584.0,32.000000
-57,8,34,1625816584.0,32.000000
-57,8,34,1625816584.0,32.000000
-57,8,34,1625816584.0,32.000000
-57,8,34,1625816584.0,32.000000
-57,8,34,1625816584.0,32.000000
-57,8,34,1625816584.0,32.000000
-57,8,35,1625816584.0,32.000000
-56,8,34,1625816584.0,32.000000
-56,8,34,1625816584.0,32.000000
-57,8,34,1625816584.0,32.000000
-57,8,34,1625816584.0,32.000000
-57,8,34,1625816584.0,32.000000
-56,8,34,1625816584.0,32.000000
-56,9,33,1625816584.0,32.000000
-56,9,34,1625816584.0,32.000000
-57,8,35,1625816584.0,32.000000
-56,8,36,1625816584.0,32.000000
-56,8,34,1625816584.0,32.000000
-56,8,33,1625816584.0,32.000000
-57,8,33,1625816584.0,32.000000
-56,8,35,1625816584.0,32.000000
-56,8,35,1625816584.0,32.000000
-57,8,33,1625816584.0,32.000000
-57,8,33,1625816584.0,32.000000
-57,8,35,1625816584.0,32.000000
-56,8,34,1625816584.0,32.000000
-57,8,34,1625816584.0,32.000000
-56,8,34,1625816584.0,32.000000
-57,8,34,1625816584.0,32.000000
-57,8,34,1625816584.0,32.000000
-57,8,34,1625816584.0,32.000000
-56,8,34,1625816584.0,32.000000
-57,8,35,1625816584.0,32.000000
-56,8,34,1625816584.0,32.000000
-57,8,34,1625816584.0,32.000000
-57,8,34,1625816584.0,32.000000
-57,8,34,1625816584.0,32.000000
-56,8,35,1625816584.0,32.000000
-57,8,34,1625816584.0,32.000000
-57,8,34,1625816584.0,32.000000
-57,8,34,1625816584.0,32.000000
-57,8,34,1625816584.0,32.000000
-57,8,34,1625816584.0,32.000000
-57,8,34,1625816584.0,32.000000
-56,8,34,1625816584.0,32.000000
-56,8,34,1625816584.0,32.000000
-57,8,34,1625816584.0,32.000000
-57,8,34,1625816584.0,32.000000
-57,8,34,1625816584.0,32.000000
-57,8,34,1625816584.0,32.000000
-56,8,34,1625816584.0,32.000000
-57,8,34,1625816584.0,32.000000
-57,8,34,1625816584.0,32.000000
-56,8,34,1625816584.0,32.000000
-56,8,34,1625816584.0,32.000000
-57,8,34,1625816584.0,32.000000
-57,8,34,1625816584.0,32.000000
-57,8,34,1625816584.0,32.000000
-56,8,34,1625816584.0,32.000000
-57,8,34,1625816584.0,32.000000
-57,8,34,1625816584.0,32.000000
-57,8,35,1625816584.0,32.000000
-57,8,34,1625816584.0,32.000000
-57,8,34,1625816584.0,32.000000
-56,8,34,1625816584.0,32.000000
-57,8,34,1625816584.0,32.000000
-57,8,34,1625816584.0,32.000000
-57,8,34,1625816584.0,32.000000
-57,8,34,1625816584.0,32.000000
-56,8,34,1625816584.0,32.000000
-57,8,34,1625816584.0,32.000000
-57,8,34,1625816584.0,32.000000
-57,8,34,1625816584.0,32.000000
-57,8,34,1625816584.0,32.000000
-57,8,34,1625816584.0,32.000000
-57,8,34,1625816584.0,32.000000
-57,8,34,1625816584.0,32.000000
-57,8,34,1625816584.0,32.000000
-57,8,34,1625816584.0,32.000000
-57,9,34,1625816584.0,32.000000
-57,9,34,1625816584.0,32.000000
-56,8,35,1625816584.0,32.000000
-56,8,35,1625816584.0,32.000000
-59,8,35,1625816584.0,32.000000
-56,7,34,1625816584.0,32.000000
-58,8,35,1625816584.0,32.000000
-57,8,34,1625816584.0,32.000000
-56,8,34,1625816584.0,32.000000
-56,8,35,1625816584.0,32.000000
-57,8,33,1625816584.0,32.000000
-57,8,34,1625816584.0,32.000000
-57,8,34,1625816584.0,32.000000
-56,8,34,1625816584.0,32.000000
-56,8,34,1625816584.0,32.000000
-57,8,34,1625816584.0,32.000000
-57,7,34,1625816584.0,32.000000
-56,8,34,1625816584.0,32.000000
-57,8,34,1625816584.0,32.000000
-56,8,34,1625816584.0,32.000000
-56,8,34,1625816584.0,32.000000
-57,8,34,1625816584.0,32.000000
-57,8,34,1625816584.0,32.000000
-57,8,34,1625816584.0,32.000000
-57,8,34,1625816584.0,32.000000
-56,8,34,1625816584.0,32.000000
-56,8,34,1625816584.0,32.000000
-57,8,34,1625816584.0,32.000000
-57,8,34,1625816584.0,32.000000
-57,8,34,1625816584.0,32.000000
-56,8,34,1625816584.0,32.000000
-57,8,34,1625816584.0,32.000000
-57,8,34,1625816584.0,32.000000
-56,8,34,1625816584.0,32.000000
-57,8,34,1625816584.0,32.000000
-57,8,34,1625816584.0,32.000000
-57,8,34,1625816584.0,32.000000
-57,8,34,1625816584.0,32.000000
-56,8,34,1625816584.0,32.000000
-57,8,34,1625816584.0,32.000000
-57,8,34,1625816584.0,32.000000
-57,8,34,1625816584.0,32.000000
-57,8,34,1625816584.0,32.000000
-57,8,34,1625816584.0,32.000000
-57,8,34,1625816584.0,32.000000
-56,8,34,1625816584.0,32.000000
-57,8,34,1625816584.0,32.000000
-57,8,34,1625816584.0,32.000000
-57,8,34,1625816584.0,32.000000
-56,8,34,1625816584.0,32.000000
-56,8,34,1625816584.0,32.000000
-56,8,34,1625816584.0,32.000000
-57,8,34,1625816584.0,32.000000
-57,8,34,1625816584.0,32.000000
-57,8,34,1625816584.0,32.000000
-56,8,34,1625816584.0,32.000000
-57,8,34,1625816584.0,32.000000
-56,8,34,1625816584.0,32.000000
-57,8,34,1625816584.0,32.000000
-57,8,34,1625816584.0,32.000000
-56,8,34,1625816584.0,32.000000
-56,9,34,1625816584.0,32.000000
-56,9,34,1625816584.0,32.000000
-56,8,35,1625816584.0,32.000000
-55,8,35,1625816584.0,32.000000
-58,8,34,1625816584.0,32.000000
-56,8,33,1625816584.0,32.000000
-57,8,34,1625816584.0,32.000000
-56,8,35,1625816584.0,32.000000
-56,8,35,1625816584.0,32.000000
-57,8,33,1625816584.0,32.000000
-57,8,34,1625816584.0,32.000000
-56,8,35,1625816584.0,32.000000
-56,8,35,1625816584.0,32.000000
-57,8,34,1625816584.0,32.000000
-57,8,34,1625816584.0,32.000000
-57,8,34,1625816584.0,32.000000
-57,8,34,1625816584.0,32.000000
-57,8,34,1625816584.0,32.000000
-56,8,34,1625816584.0,32.000000
-56,8,34,1625816584.0,32.000000
-56,8,35,1625816584.0,32.000000
-56,8,34,1625816584.0,32.000000
-57,8,34,1625816584.0,32.000000
-57,8,34,1625816584.0,32.000000
-56,8,34,1625816584.0,32.000000
-57,8,34,1625816584.0,32.000000
-57,8,34,1625816584.0,32.000000
-57,8,34,1625816584.0,32.000000
-57,8,34,1625816584.0,32.000000
-56,8,34,1625816584.0,32.000000
-57,8,34,1625816584.0,32.000000
-57,8,34,1625816584.0,32.000000
-57,8,34,1625816584.0,32.000000
-56,8,34,1625816584.0,32.000000
-57,8,34,1625816584.0,32.000000
-56,8,34,1625816584.0,32.000000
-56,8,34,1625816584.0,32.000000
-57,8,34,1625816584.0,32.000000
-57,8,34,1625816584.0,32.000000
-57,8,34,1625816584.0,32.000000
-57,8,34,1625816584.0,32.000000
-56,8,34,1625816584.0,32.000000
-56,8,34,1625816584.0,32.000000
-57,8,34,1625816584.0,32.000000
-56,8,34,1625816584.0,32.000000
-57,8,34,1625816584.0,32.000000
-57,8,34,1625816584.0,32.000000
-57,8,34,1625816584.0,32.000000
-57,8,34,1625816584.0,32.000000
-57,8,34,1625816584.0,32.000000
-57,8,34,1625816584.0,32.000000
-56,8,34,1625816584.0,32.000000
-57,8,34,1625816584.0,32.000000
-57,8,34,1625816584.0,32.000000
-57,8,34,1625816584.0,32.000000
-57,8,34,1625816584.0,32.000000
-56,8,34,1625816584.0,32.000000
-57,8,34,1625816584.0,32.000000
-57,8,34,1625816584.0,32.000000
-57,8,34,1625816584.0,32.000000
-57,8,34,1625816584.0,32.000000
-57,8,34,1625816584.0,32.000000
-57,8,34,1625816584.0,32.000000
-57,8,34,1625816584.0,32.000000
-56,8,34,1625816584.0,32.000000
-57,9,34,1625816584.0,32.000000
-56,8,34,1625816584.0,32.000000
-58,8,35,1625816584.0,32.000000
-56,7,35,1625816584.0,32.000000
-56,8,35,1625816584.0,32.000000
-57,8,33,1625816584.0,32.000000
-56,8,33,1625816584.0,32.000000
-56,8,35,1625816584.0,32.000000
-57,8,33,1625816584.0,32.000000
-57,8,34,1625816584.0,32.000000
-56,8,34,1625816584.0,32.000000
-57,8,35,1625816584.0,32.000000
-57,8,34,1625816584.0,32.000000
-57,8,34,1625816584.0,32.000000
-57,8,34,1625816584.0,32.000000
-57,8,34,1625816584.0,32.000000
-56,8,34,1625816584.0,32.000000
-56,8,34,1625816584.0,32.000000
-57,8,34,1625816584.0,32.000000
-56,8,34,1625816584.0,32.000000
-57,8,35,1625816584.0,32.000000
-56,8,34,1625816584.0,32.000000
-56,8,34,1625816584.0,32.000000
-57,8,34,1625816584.0,32.000000
-56,8,35,1625816584.0,32.000000
-57,8,34,1625816584.0,32.000000
-57,8,34,1625816584.0,32.000000
-56,8,34,1625816584.0,32.000000
-57,8,34,1625816584.0,32.000000
-56,8,34,1625816584.0,32.000000
-57,8,34,1625816584.0,32.000000
-56,8,34,1625816584.0,32.000000
-57,8,34,1625816584.0,32.000000
-56,8,34,1625816584.0,32.000000
-57,8,34,1625816584.0,32.000000
-56,8,35,1625816584.0,32.000000
-56,8,35,1625816584.0,32.000000
-57,8,34,1625816584.0,32.000000
-56,8,34,1625816584.0,32.000000
-57,8,35,1625816584.0,32.000000
-57,8,34,1625816584.0,32.000000
-57,8,34,1625816584.0,32.000000
-57,8,34,1625816584.0,32.000000
-56,8,34,1625816584.0,32.000000
-57,8,34,1625816584.0,32.000000
-57,8,34,1625816584.0,32.000000
-57,8,34,1625816584.0,32.000000
-56,8,34,1625816584.0,32.000000
-57,8,34,1625816584.0,32.000000
-57,8,34,1625816584.0,32.000000
-57,8,34,1625816584.0,32.000000
-56,8,34,1625816584.0,32.000000
-57,8,34,1625816584.0,32.000000
-57,8,34,1625816584.0,32.000000
-56,8,34,1625816584.0,32.000000
-57,8,34,1625816584.0,32.000000
-57,8,34,1625816584.0,32.000000
-56,8,34,1625816584.0,32.000000
-57,8,35,1625816584.0,32.000000
-57,8,34,1625816584.0,32.000000
-56,8,35,1625816584.0,32.000000
-56,8,34,1625816584.0,32.000000
-56,7,34,1625816584.0,32.000000
-57,8,35,1625816584.0,32.000000
-56,9,34,1625816584.0,32.000000
-56,9,33,1625816584.0,32.000000
-56,9,35,1625816584.0,32.000000
-55,8,36,1625816584.0,32.000000
-56,7,35,1625816584.0,32.000000
-56,8,33,1625816584.0,32.000000
-58,8,34,1625816584.0,32.000000
-56,8,35,1625816584.0,32.000000
-56,8,36,1625816584.0,32.000000
-56,8,34,1625816584.0,32.000000
-57,8,34,1625816584.0,32.000000
-56,8,35,1625816584.0,32.000000
-56,8,35,1625816584.0,32.000000
-56,8,34,1625816584.0,32.000000
-57,9,34,1625816584.0,32.000000
-56,8,35,1625816584.0,32.000000
-56,8,34,1625816584.0,32.000000
-56,8,34,1625816584.0,32.000000
-56,8,34,1625816584.0,32.000000
-56,8,34,1625816584.0,32.000000
-56,8,35,1625816584.0,32.000000
-57,8,34,1625816584.0,32.000000
-57,8,34,1625816584.0,32.000000
-57,8,34,1625816584.0,32.000000
-57,8,34,1625816584.0,32.000000
-56,8,35,1625816584.0,32.000000
-56,8,34,1625816584.0,32.000000
-57,8,34,1625816584.0,32.000000
-57,8,34,1625816584.0,32.000000
-57,8,35,1625816584.0,32.000000
-57,8,34,1625816584.0,32.000000
-57,8,34,1625816584.0,32.000000
-57,8,34,1625816584.0,32.000000
-57,8,34,1625816584.0,32.000000
-56,8,34,1625816584.0,32.000000
-57,8,33,1625816584.0,32.000000
-57,8,34,1625816584.0,32.000000
-57,8,34,1625816584.0,32.000000
-56,8,34,1625816584.0,32.000000
-57,8,34,1625816584.0,32.000000
-57,8,34,1625816584.0,32.000000
-57,8,34,1625816584.0,32.000000
-57,8,34,1625816584.0,32.000000
-57,8,34,1625816584.0,32.000000
-57,8,34,1625816584.0,32.000000
-56,8,34,1625816584.0,32.000000
-57,8,34,1625816584.0,32.000000
-56,8,34,1625816584.0,32.000000
-57,8,34,1625816584.0,32.000000
-57,8,34,1625816584.0,32.000000
-57,8,34,1625816584.0,32.000000
-57,8,34,1625816584.0,32.000000
-57,8,34,1625816584.0,32.000000
-57,8,34,1625816584.0,32.000000
-57,8,34,1625816584.0,32.000000
-57,8,34,1625816584.0,32.000000
-57,8,34,1625816584.0,32.000000
-57,8,34,1625816584.0,32.000000
-57,8,34,1625816584.0,32.000000
-57,8,34,1625816584.0,32.000000
-56,8,34,1625816584.0,32.000000
-57,8,34,1625816584.0,32.000000
-57,8,34,1625816584.0,32.000000
-56,8,34,1625816584.0,32.000000
-56,8,34,1625816584.0,32.000000
-57,8,34,1625816584.0,32.000000
-57,8,34,1625816584.0,32.000000
-56,8,34,1625816584.0,32.000000
-57,8,34,1625816584.0,32.000000
-56,8,34,1625816584.0,32.000000
-56,8,35,1625816584.0,32.000000
-56,7,34,1625816584.0,32.000000
-57,8,33,1625816584.0,32.000000
-57,8,34,1625816584.0,32.000000
-58,8,35,1625816584.0,32.000000
