ACC_X,ACC_Y,ACC_Z,start_time_unix,sampling_rate
-33,-19,49,1625816583.0,32.000000
-28,-17,52,1625816583.0,32.000000
-28,-14,58,1625816583.0,32.000000
-33,-18,50,1625816583.0,32.000000
-32,-16,52,1625816583.0,32.000000
-29,-18,53,1625816583.0,32.000000
-28,-17,54,1625816583.0,32.000000
-31,-19,52,1625816583.0,32.000000
-31,-19,51,1625816583.0,32.000000
-28,-21,52,1625816583.0,32.000000
-27,-19,53,1625816583.0,32.000000
-34,-14,53,1625816583.0,32.000000
-34,-13,50,1625816583.0,32.000000
-36,-12,52,1625816583.0,32.000000
-36,-12,51,1625816583.0,32.000000
-36,-14,49,1625816583.0,32.000000
-33,-11,53,1625816583.0,32.000000
-33,-10,53,1625816583.0,32.000000
-36,-9,50,1625816583.0,32.000000
-39,-9,48,1625816583.0,32.000000
-41,-9,47,1625816583.0,32.000000
-42,-10,46,1625816583.0,32.000000
-40,-11,46,1625816583.0,32.000000
-45,-11,46,1625816583.0,32.000000
-43,-6,46,1625816583.0,32.000000
-45,-5,44,1625816583.0,32.000000
-45,-5,46,1625816583.0,32.000000
-43,-5,45,1625816583.0,32.000000
-41,-7,46,1625816583.0,32.000000
-37,-5,51,1625816583.0,32.000000
-39,-6,49,1625816583.0,32.000000
-50,-2,46,1625816583.0,32.000000
-59,-26,52,1625816583.0,32.000000
-67,-37,42,1625816583.0,32.000000
-63,-36,37,1625816583.0,32.000000
-54,-27,43,1625816583.0,32.000000
-64,-34,25,1625816583.0,32.000000
-40,-23,17,1625816583.0,32.000000
-34,-18,21,1625816583.0,32.000000
-36,-15,15,1625816583.0,32.000000
-35,-12,8,1625816583.0,32.000000
-35,-13,-3,1625816583.0,32.000000
-40,-17,-13,1625816583.0,32.000000
-33,-24,4,1625816583.0,32.000000
-117,-44,-70,1625816583.0,32.000000
-32,-2,-42,1625816583.0,32.000000
-56,-53,-35,1625816583.0,32.000000
-32,-23,-1,1625816583.0,32.000000
-51,-26,-12,1625816583.0,32.000000
-41,-21,-13,1625816583.0,32.000000
-43,-23,-7,1625816583.0,32.000000
-45,-27,-2,1625816583.0,32.000000
-45,-36,1,1625816583.0,32.000000
-42,-44,1,1625816583.0,32.000000
-39,-69,-2,1625816583.0,32.000000
-26,-86,-20,1625816583.0,32.000000
-38,-87,-33,1625816583.0,32.000000
-27,-79,-26,1625816583.0,32.000000
-20,-73,-32,1625816583.0,32.000000
-19,-77,-41,1625816583.0,32.000000
-18,-68,-46,1625816583.0,32.000000
-25,-81,-43,1625816583.0,32.000000
-40,-126,17,1625816583.0,32.000000
-27,-49,-18,1625816583.0,32.000000
-35,-52,-45,1625816583.0,32.000000
-17,-42,-48,1625816583.0,32.000000
26,-34,-48,1625816583.0,32.000000
-10,-55,10,1625816583.0,32.000000
0,-51,-24,1625816583.0,32.000000
-44,-50,-53,1625816583.0,32.000000
-21,-51,-40,1625816583.0,32.000000
-42,-55,-53,1625816583.0,32.000000
1,-64,-3,1625816583.0,32.000000
7,-69,-18,1625816583.0,32.000000
12,-66,-40,1625816583.0,32.000000
-1,-57,-30,1625816583.0,32.000000
2,-50,-22,1625816583.0,32.000000
-3,-54,-33,1625816583.0,32.000000
-8,-58,-12,1625816583.0,32.000000
-9,-55,-10,1625816583.0,32.000000
-20,-53,-20,1625816583.0,32.000000
-30,-59,-28,1625816583.0,32.000000
-26,-61,-26,1625816583.0,32.000000
-4,-61,-21,1625816583.0,32.000000
-8,-63,-21,1625816583.0,32.000000
24,-62,-8,1625816583.0,32.000000
-6,-70,-25,1625816583.0,32.000000
-8,-65,-23,1625816583.0,32.000000
-6,-54,-25,1625816583.0,32.000000
-15,-54,-33,1625816583.0,32.000000
-14,-53,-36,1625816583.0,32.000000
-10,-56,-25,1625816583.0,32.000000
-13,-61,-15,1625816583.0,32.000000
6,-63,-7,1625816583.0,32.000000
-12,-59,-24,1625816583.0,32.000000
-9,-57,-21,1625816583.0,32.000000
-5,-57,-25,1625816583.0,32.000000
-3,-56,-25,1625816583.0,32.000000
-8,-64,-17,1625816583.0,32.000000
-11,-57,-19,1625816583.0,32.000000
-9,-55,-21,1625816583.0,32.000000
-8,-60,-20,1625816583.0,32.000000
-5,-62,-19,1625816583.0,32.000000
1,-65,-15,1625816583.0,32.000000
3,-60,-15,1625816583.0,32.000000
17,-69,-17,1625816583.0,32.000000
2,-58,-19,1625816583.0,32.000000
3,-56,-23,1625816583.0,32.000000
12,-59,-9,1625816583.0,32.000000
26,-60,-25,1625816583.0,32.000000
-3,-53,-37,1625816583.0,32.000000
-9,-60,-17,1625816583.0,32.000000
-31,-52,-34,1625816583.0,32.000000
-34,-52,-39,1625816583.0,32.000000
-1,-62,-18,1625816583.0,32.000000
11,-57,-14,1625816583.0,32.000000
-12,-57,-53,1625816583.0,32.000000
3,-56,-30,1625816583.0,32.000000
22,-55,-16,1625816583.0,32.000000
-10,-71,-28,1625816583.0,32.000000
-5,-64,-20,1625816583.0,32.000000
10,-56,-28,1625816583.0,32.000000
-1,-54,-32,1625816583.0,32.000000
-6,-54,-31,1625816583.0,32.000000
8,-57,-19,1625816583.0,32.000000
-7,-65,-27,1625816583.0,32.000000
0,-58,-26,1625816583.0,32.000000
-6,-61,-23,1625816583.0,32.000000
-3,-60,-27,1625816583.0,32.000000
-5,-63,-26,1625816583.0,32.000000
-5,-65,-20,1625816583.0,32.000000
1,-59,-18,1625816583.0,32.000000
-4,-61,-24,1625816583.0,32.000000
-13,-66,-26,1625816583.0,32.000000
-2,-59,-19,1625816583.0,32.000000
-7,-63,-25,1625816583.0,32.000000
-8,-67,-27,1625816583.0,32.000000
-4,-63,-18,1625816583.0,32.000000
-11,-64,-26,1625816583.0,32.000000
-14,-64,-27,1625816583.0,32.000000
-21,-78,-29,1625816583.0,32.000000
-19,-85,-28,1625816583.0,32.000000
73,8,65,1625816583.0,32.000000
-54,-18,-82,1625816583.0,32.000000
8,-34,-23,1625816583.0,32.000000
-20,-76,-18,1625816583.0,32.000000
-13,-72,-13,1625816583.0,32.000000
-20,-56,-15,1625816583.0,32.000000
-15,-52,-19,1625816583.0,32.000000
-9,-55,-21,1625816583.0,32.000000
-6,-56,-24,1625816583.0,32.000000
-6,-55,-23,1625816583.0,32.000000
-15,-59,-19,1625816583.0,32.000000
-17,-61,2,1625816583.0,32.000000
-15,-58,2,1625816583.0,32.000000
-34,-50,-4,1625816583.0,32.000000
-15,-46,-7,1625816583.0,32.000000
-14,-47,-9,1625816583.0,32.000000
-17,-42,-18,1625816583.0,32.000000
-33,-30,-14,1625816583.0,32.000000
20,-44,1,1625816583.0,32.000000
-44,-113,-48,1625816583.0,32.000000
-23,-93,-64,1625816583.0,32.000000
-33,-98,-38,1625816583.0,32.000000
10,-62,35,1625816583.0,32.000000
22,-75,5,1625816583.0,32.000000
5,-52,31,1625816583.0,32.000000
14,-57,15,1625816583.0,32.000000
-91,-49,-78,1625816583.0,32.000000
1,-33,-82,1625816583.0,32.000000
31,-23,-66,1625816583.0,32.000000
3,-54,-38,1625816583.0,32.000000
19,-54,-28,1625816583.0,32.000000
-7,-77,-18,1625816583.0,32.000000
-50,-72,0,1625816583.0,32.000000
-40,-85,0,1625816583.0,32.000000
11,-38,8,1625816583.0,32.000000
-12,-38,-35,1625816583.0,32.000000
-42,-68,-76,1625816583.0,32.000000
20,-49,7,1625816583.0,32.000000
-24,-77,-15,1625816583.0,32.000000
-22,-53,-22,1625816583.0,32.000000
-12,-55,-21,1625816583.0,32.000000
-17,-56,-22,1625816583.0,32.000000
-12,-47,-8,1625816583.0,32.000000
-17,-46,-15,1625816583.0,32.000000
-8,-52,-15,1625816583.0,32.000000
-21,-53,-20,1625816583.0,32.000000
-34,-71,-28,1625816583.0,32.000000
-18,-50,-21,1625816583.0,32.000000
-18,-55,-28,1625816583.0,32.000000
-28,-42,-34,1625816583.0,32.000000
-23,-54,-24,1625816583.0,32.000000
-11,-55,-10,1625816583.0,32.000000
3,-54,-22,1625816583.0,32.000000
-4,-56,-42,1625816583.0,32.000000
-5,-53,-36,1625816583.0,32.000000
-12,-54,-52,1625816583.0,32.000000
-28,-45,-61,1625816583.0,32.000000
-29,-59,-44,1625816583.0,32.000000
-2,-41,-29,1625816583.0,32.000000
-1,-46,-47,1625816583.0,32.000000
-18,-53,-48,1625816583.0,32.000000
-14,-41,-57,1625816583.0,32.000000
-3,-53,-17,1625816583.0,32.000000
-40,-77,-48,1625816583.0,32.000000
24,-1,-34,1625816583.0,32.000000
-12,-38,-26,1625816583.0,32.000000
-12,-35,-17,1625816583.0,32.000000
-29,-56,-29,1625816583.0,32.000000
-21,-34,-38,1625816583.0,32.000000
-20,-51,-32,1625816583.0,32.000000
-28,-67,-28,1625816583.0,32.000000
-11,-44,-46,1625816583.0,32.000000
-15,-69,-41,1625816583.0,32.000000
-42,-60,-48,1625816583.0,32.000000
-51,-68,-53,1625816583.0,32.000000
-27,-59,-39,1625816583.0,32.000000
-15,-48,-29,1625816583.0,32.000000
-19,-45,-27,1625816583.0,32.000000
-19,-34,-22,1625816583.0,32.000000
-29,-47,-34,1625816583.0,32.000000
-28,-44,-32,1625816583.0,32.000000
-25,-56,-29,1625816583.0,32.000000
-35,-60,-29,1625816583.0,32.000000
-38,-60,-20,1625816583.0,32.000000
-29,-65,-16,1625816583.0,32.000000
-35,-66,-13,1625816583.0,32.000000
-47,-76,-19,1625816583.0,32.000000
-48,-71,-23,1625816583.0,32.000000
-53,-69,-16,1625816583.0,32.000000
-56,-72,-29,1625816583.0,32.000000
-65,-72,-35,1625816583.0,32.000000
-81,-75,-47,1625816583.0,32.000000
-70,-54,-61,1625816583.0,32.000000
-62,-43,-43,1625816583.0,32.000000
-57,-27,-41,1625816583.0,32.000000
-60,-25,-48,1625816583.0,32.000000
-57,-15,-41,1625816583.0,32.000000
-44,-7,-33,1625816583.0,32.000000
-39,-2,-30,1625816583.0,32.000000
-31,9,-20,1625816583.0,32.000000
-29,13,-10,1625816583.0,32.000000
-30,13,5,1625816583.0,32.000000
-29,11,10,1625816583.0,32.000000
-31,7,16,1625816583.0,32.000000
-49,-4,12,1625816583.0,32.000000
-29,-13,24,1625816583.0,32.000000
-24,-22,37,1625816583.0,32.000000
-19,-22,52,1625816583.0,32.000000
-16,-22,55,1625816583.0,32.000000
-17,-22,50,1625816583.0,32.000000
-27,-35,62,1625816583.0,32.000000
-17,-31,66,1625816583.0,32.000000
-2,-14,63,1625816583.0,32.000000
-17,-16,58,1625816583.0,32.000000
-4,-28,70,1625816583.0,32.000000
-20,-28,60,1625816583.0,32.000000
-24,-35,59,1625816583.0,32.000000
-16,-29,60,1625816583.0,32.000000
-23,-30,54,1625816583.0,32.000000
-14,-12,54,1625816583.0,32.000000
-19,-6,52,1625816583.0,32.000000
-24,2,57,1625816583.0,32.000000
-38,-16,110,1625816583.0,32.000000
-25,-6,54,1625816583.0,32.000000
-19,-5,48,1625816583.0,32.000000
-25,-7,54,1625816583.0,32.000000
-25,-8,57,1625816583.0,32.000000
-18,-9,70,1625816583.0,32.000000
-23,-11,64,1625816583.0,32.000000
-25,-9,57,1625816583.0,32.000000
-27,-5,57,1625816583.0,32.000000
-25,-7,59,1625816583.0,32.000000
-21,-4,54,1625816583.0,32.000000
-22,-3,52,1625816583.0,32.000000
-18,-3,53,1625816583.0,32.000000
-24,-3,54,1625816583.0,32.000000
-31,-8,54,1625816583.0,32.000000
-28,-7,52,1625816583.0,32.000000
-23,-5,54,1625816583.0,32.000000
-27,-5,57,1625816583.0,32.000000
-59,-2,45,1625816583.0,32.000000
-40,-8,47,1625816583.0,32.000000
-47,-1,47,1625816583.0,32.000000
-49,-9,40,1625816583.0,32.000000
-45,-9,42,1625816583.0,32.000000
-39,-3,52,1625816583.0,32.000000
-39,-4,51,1625816583.0,32.000000
-46,-4,49,1625816583.0,32.000000
-42,-5,55,1625816583.0,32.000000
-37,-11,44,1625816583.0,32.000000
-42,-10,50,1625816583.0,32.000000
-33,-7,51,1625816583.0,32.000000
-37,-11,52,1625816583.0,32.000000
-34,-11,52,1625816583.0,32.000000
-26,-8,58,1625816583.0,32.000000
-30,-8,56,1625816583.0,32.000000
-35,-10,50,1625816583.0,32.000000
-36,-8,52,1625816583.0,32.000000
-34,-11,52,1625816583.0,32.000000
-30,-12,54,1625816583.0,32.000000
-22,-11,58,1625816583.0,32.000000
-31,-9,56,1625816583.0,32.000000
-31,-8,56,1625816583.0,32.000000
-29,-9,52,1625816583.0,32.000000
-36,-9,52,1625816583.0,32.000000
-33,-8,54,1625816583.0,32.000000
-31,-9,52,1625816583.0,32.000000
-25,-5,57,1625816583.0,32.000000
-35,-10,52,1625816583.0,32.000000
-35,-8,51,1625816583.0,32.000000
-33,-8,52,1625816583.0,32.000000
-34,-8,54,1625816583.0,32.000000
-35,-8,51,1625816583.0,32.000000
-35,-9,51,1625816583.0,32.000000
-35,-8,53,1625816583.0,32.000000
-36,-8,51,1625816583.0,32.000000
-36,-8,52,1625816583.0,32.000000
-34,-8,52,1625816583.0,32.000000
-35,-7,52,1625816583.0,32.000000
-35,-8,52,1625816583.0,32.000000
-35,-8,52,1625816583.0,32.000000
-35,-8,52,1625816583.0,32.000000
-34,-8,53,1625816583.0,32.000000
-34,-8,53,1625816583.0,32.000000
-36,-9,51,1625816583.0,32.000000
-35,-9,52,1625816583.0,32.000000
-34,-9,52,1625816583.0,32.000000
-36,-9,51,1625816583.0,32.000000
-35,-8,52,1625816583.0,32.000000
-35,-9,52,1625816583.0,32.000000
-36,-9,51,1625816583.0,32.000000
-36,-9,51,1625816583.0,32.000000
-31,-8,54,1625816583.0,32.000000
-35,-9,52,1625816583.0,32.000000
-36,-9,51,1625816583.0,32.000000
-35,-9,52,1625816583.0,32.000000
-34,-8,53,1625816583.0,32.000000
-36,-8,52,1625816583.0,32.000000
-35,-9,52,1625816583.0,32.000000
-35,-9,52,1625816583.0,32.000000
-35,-8,52,1625816583.0,32.000000
-35,-8,52,1625816583.0,32.000000
-37,-9,51,1625816583.0,32.000000
-35,-9,51,1625816583.0,32.000000
-36,-8,51,1625816583.0,32.000000
-36,-8,51,1625816583.0,32.000000
-37,-8,51,1625816583.0,32.000000
-38,-7,50,1625816583.0,32.000000
-38,-7,51,1625816583.0,32.000000
-38,-7,50,1625816583.0,32.000000
-37,-9,49,1625816583.0,32.000000
-37,-7,51,1625816583.0,32.000000
-37,-8,50,1625816583.0,32.000000
-38,-8,50,1625816583.0,32.000000
-37,-7,51,1625816583.0,32.000000
-37,-8,51,1625816583.0,32.000000
-39,-6,50,1625816583.0,32.000000
-41,-6,50,1625816583.0,32.000000
-41,-8,49,1625816583.0,32.000000
-44,-3,46,1625816583.0,32.000000
-48,-4,45,1625816583.0,32.000000
-46,-12,42,1625816583.0,32.000000
-42,-13,46,1625816583.0,32.000000
-31,-8,52,1625816583.0,32.000000
-35,-12,52,1625816583.0,32.000000
-35,-13,49,1625816583.0,32.000000
-38,-14,49,1625816583.0,32.000000
-36,-13,50,1625816583.0,32.000000
-30,-13,55,1625816583.0,32.000000
-29,-15,53,1625816583.0,32.000000
-30,-13,53,1625816583.0,32.000000
-35,-11,52,1625816583.0,32.000000
-33,-10,52,1625816583.0,32.000000
-34,-10,53,1625816583.0,32.000000
-43,-9,48,1625816583.0,32.000000
-42,-12,46,1625816583.0,32.000000
-34,-15,50,1625816583.0,32.000000
-30,-15,53,1625816583.0,32.000000
-32,-14,53,1625816583.0,32.000000
-34,-13,52,1625816583.0,32.000000
-35,-13,51,1625816583.0,32.000000
-35,-12,52,1625816583.0,32.000000
-36,-12,51,1625816583.0,32.000000
-35,-12,51,1625816583.0,32.000000
-34,-12,52,1625816583.0,32.000000
-35,-13,50,1625816583.0,32.000000
-35,-14,49,1625816583.0,32.000000
-31,-13,53,1625816583.0,32.000000
-33,-11,53,1625816583.0,32.000000
-37,-11,50,1625816583.0,32.000000
-37,-11,51,1625816583.0,32.000000
-33,-11,51,1625816583.0,32.000000
-38,-10,51,1625816583.0,32.000000
-38,-10,49,1625816583.0,32.000000
-36,-9,52,1625816583.0,32.000000
-36,-10,50,1625816583.0,32.000000
-37,-10,50,1625816583.0,32.000000
-34,-10,51,1625816583.0,32.000000
-38,-8,51,1625816583.0,32.000000
-40,-8,49,1625816583.0,32.000000
-37,-9,49,1625816583.0,32.000000
-36,-8,51,1625816583.0,32.000000
-40,-7,50,1625816583.0,32.000000
-41,-7,48,1625816583.0,32.000000
-40,-8,48,1625816583.0,32.000000
-40,-7,48,1625816583.0,32.000000
-41,-7,48,1625816583.0,32.000000
-40,-7,48,1625816583.0,32.000000
-39,-7,48,1625816583.0,32.000000
-40,-6,48,1625816583.0,32.000000
-42,-6,47,1625816583.0,32.000000
-40,-7,47,1625816583.0,32.000000
-40,-6,48,1625816583.0,32.000000
-42,-7,47,1625816583.0,32.000000
-42,-7,47,1625816583.0,32.000000
-41,-7,47,1625816583.0,32.000000
-40,-7,48,1625816583.0,32.000000
-41,-7,48,1625816583.0,32.000000
-40,-6,48,1625816583.0,32.000000
-41,-7,49,1625816583.0,32.000000
-40,-6,48,1625816583.0,32.000000
-40,-6,47,1625816583.0,32.000000
-42,-7,49,1625816583.0,32.000000
-41,-6,48,1625816583.0,32.000000
-42,-6,48,1625816583.0,32.000000
-40,-7,47,1625816583.0,32.000000
-40,-6,47,1625816583.0,32.000000
-41,-6,49,1625816583.0,32.000000
-41,-7,47,1625816583.0,32.000000
-40,-7,48,1625816583.0,32.000000
-40,-6,48,1625816583.0,32.000000
-41,-6,47,1625816583.0,32.000000
-41,-7,47,1625816583.0,32.000000
-39,-7,48,1625816583.0,32.000000
-42,-6,48,1625816583.0,32.000000
-42,-7,47,1625816583.0,32.000000
-40,-7,48,1625816583.0,32.000000
-39,-7,49,1625816583.0,32.000000
-42,-7,48,1625816583.0,32.000000
-41,-7,47,1625816583.0,32.000000
-40,-7,48,1625816583.0,32.000000
-40,-6,49,1625816583.0,32.000000
-39,-7,48,1625816583.0,32.000000
-39,-7,49,1625816583.0,32.000000
-40,-6,48,1625816583.0,32.000000
-41,-7,48,1625816583.0,32.000000
-39,-7,49,1625816583.0,32.000000
-39,-7,50,1625816583.0,32.000000
-40,-7,49,1625816583.0,32.000000
-39,-7,49,1625816583.0,32.000000
-38,-8,49,1625816583.0,32.000000
-38,-7,49,1625816583.0,32.000000
-38,-8,49,1625816583.0,32.000000
-38,-7,49,1625816583.0,32.000000
-39,-7,49,1625816583.0,32.000000
-40,-7,48,1625816583.0,32.000000
-39,-7,49,1625816583.0,32.000000
-40,-6,48,1625816583.0,32.000000
-40,-7,48,1625816583.0,32.000000
-41,-4,52,1625816583.0,32.000000
-24,-8,56,1625816583.0,32.000000
-38,-8,49,1625816583.0,32.000000
-39,-8,48,1625816583.0,32.000000
-37,-10,50,1625816583.0,32.000000
-33,-9,53,1625816583.0,32.000000
-35,-10,50,1625816583.0,32.000000
-33,-9,53,1625816583.0,32.000000
-35,-8,53,1625816583.0,32.000000
-36,-8,52,1625816583.0,32.000000
-36,-7,51,1625816583.0,32.000000
-37,-8,52,1625816583.0,32.000000
-33,-8,53,1625816583.0,32.000000
-30,-9,54,1625816583.0,32.000000
-39,-6,50,1625816583.0,32.000000
-40,-7,48,1625816583.0,32.000000
-38,-8,50,1625816583.0,32.000000
-39,-9,49,1625816583.0,32.000000
-35,-7,52,1625816583.0,32.000000
-31,-9,56,1625816583.0,32.000000
-28,-5,55,1625816583.0,32.000000
-36,-9,52,1625816583.0,32.000000
-35,-7,51,1625816583.0,32.000000
-36,-7,52,1625816583.0,32.000000
-35,-9,52,1625816583.0,32.000000
-31,-9,53,1625816583.0,32.000000
-35,-8,52,1625816583.0,32.000000
-33,-7,53,1625816583.0,32.000000
-33,-8,53,1625816583.0,32.000000
-36,-8,51,1625816583.0,32.000000
-37,-8,50,1625816583.0,32.000000
-32,-8,54,1625816583.0,32.000000
-40,-7,46,1625816583.0,32.000000
-53,-15,38,1625816583.0,32.000000
-47,-15,39,1625816583.0,32.000000
-33,2,51,1625816583.0,32.000000
-37,-2,47,1625816583.0,32.000000
-39,5,40,1625816583.0,32.000000
-82,10,38,1625816583.0,32.000000
-71,2,6,1625816583.0,32.000000
-50,3,31,1625816583.0,32.000000
-44,2,35,1625816583.0,32.000000
-69,3,23,1625816583.0,32.000000
-58,2,28,1625816583.0,32.000000
-55,0,33,1625816583.0,32.000000
-60,1,26,1625816583.0,32.000000
-61,0,27,1625816583.0,32.000000
-62,2,30,1625816583.0,32.000000
-69,4,15,1625816583.0,32.000000
-66,7,14,1625816583.0,32.000000
-63,4,22,1625816583.0,32.000000
-65,0,25,1625816583.0,32.000000
-48,3,28,1625816583.0,32.000000
-37,3,43,1625816583.0,32.000000
-32,0,49,1625816583.0,32.000000
-40,-2,48,1625816583.0,32.000000
-41,-1,45,1625816583.0,32.000000
-32,-1,43,1625816583.0,32.000000
-26,0,41,1625816583.0,32.000000
-35,1,31,1625816583.0,32.000000
-82,1,19,1625816583.0,32.000000
-79,-5,26,1625816583.0,32.000000
-44,-6,47,1625816583.0,32.000000
-60,-4,45,1625816583.0,32.000000
-55,1,43,1625816583.0,32.000000
-46,3,41,1625816583.0,32.000000
-54,1,38,1625816583.0,32.000000
-58,2,36,1625816583.0,32.000000
-58,7,33,1625816583.0,32.000000
-61,7,30,1625816583.0,32.000000
-59,8,27,1625816583.0,32.000000
-56,7,25,1625816583.0,32.000000
-53,8,27,1625816583.0,32.000000
-53,4,29,1625816583.0,32.000000
-54,6,26,1625816583.0,32.000000
-57,4,20,1625816583.0,32.000000
-55,3,18,1625816583.0,32.000000
-53,2,19,1625816583.0,32.000000
-48,-2,20,1625816583.0,32.000000
-47,-5,19,1625816583.0,32.000000
-47,-6,20,1625816583.0,32.000000
-59,-6,13,1625816583.0,32.000000
-68,-6,11,1625816583.0,32.000000
-107,-3,13,1625816583.0,32.000000
-52,6,6,1625816583.0,32.000000
-49,7,2,1625816583.0,32.000000
-69,3,1,1625816583.0,32.000000
-54,4,8,1625816583.0,32.000000
-66,7,2,1625816583.0,32.000000
-64,9,-8,1625816583.0,32.000000
-66,12,-9,1625816583.0,32.000000
-68,5,6,1625816583.0,32.000000
-60,-1,13,1625816583.0,32.000000
-60,-1,12,1625816583.0,32.000000
-78,4,2,1625816583.0,32.000000
-66,8,2,1625816583.0,32.000000
-71,5,0,1625816583.0,32.000000
-56,2,3,1625816583.0,32.000000
-66,4,3,1625816583.0,32.000000
-62,5,3,1625816583.0,32.000000
-64,6,6,1625816583.0,32.000000
-65,2,9,1625816583.0,32.000000
-67,-1,10,1625816583.0,32.000000
-61,-1,13,1625816583.0,32.000000
-58,2,15,1625816583.0,32.000000
-61,3,14,1625816583.0,32.000000
-77,4,11,1625816583.0,32.000000
-69,0,14,1625816583.0,32.000000
-72,5,10,1625816583.0,32.000000
-61,2,8,1625816583.0,32.000000
-58,5,5,1625816583.0,32.000000
-65,4,7,1625816583.0,32.000000
-62,3,6,1625816583.0,32.000000
-62,3,5,1625816583.0,32.000000
-62,5,11,1625816583.0,32.000000
-62,4,13,1625816583.0,32.000000
-62,4,11,1625816583.0,32.000000
-62,5,10,1625816583.0,32.000000
-60,6,10,1625816583.0,32.000000
-60,5,12,1625816583.0,32.000000
-63,1,13,1625816583.0,32.000000
-63,0,13,1625816583.0,32.000000
-63,1,13,1625816583.0,32.000000
-64,2,14,1625816583.0,32.000000
-62,2,14,1625816583.0,32.000000
-62,2,12,1625816583.0,32.000000
-60,2,12,1625816583.0,32.000000
-63,3,10,1625816583.0,32.000000
-58,4,20,1625816583.0,32.000000
-50,2,29,1625816583.0,32.000000
-60,3,14,1625816583.0,32.000000
-63,2,13,1625816583.0,32.000000
-63,0,16,1625816583.0,32.000000
-63,-1,14,1625816583.0,32.000000
-64,-1,14,1625816583.0,32.000000
-63,-3,16,1625816583.0,32.000000
-64,-1,13,1625816583.0,32.000000
-64,2,8,1625816583.0,32.000000
-66,3,6,1625816583.0,32.000000
-63,3,10,1625816583.0,32.000000
-58,2,18,1625816583.0,32.000000
-57,2,22,1625816583.0,32.000000
-58,1,21,1625816583.0,32.000000
-54,0,29,1625816583.0,32.000000
-60,-1,25,1625816583.0,32.000000
-56,-1,25,1625816583.0,32.000000
-60,0,25,1625816583.0,32.000000
-58,1,25,1625816583.0,32.000000
-58,2,23,1625816583.0,32.000000
-58,2,26,1625816583.0,32.000000
-57,2,28,1625816583.0,32.000000
-56,1,31,1625816583.0,32.000000
-53,1,33,1625816583.0,32.000000
-57,2,29,1625816583.0,32.000000
-56,2,31,1625816583.0,32.000000
-56,1,30,1625816583.0,32.000000
-56,1,30,1625816583.0,32.000000
-55,1,30,1625816583.0,32.000000
-54,1,30,1625816583.0,32.000000
-54,2,29,1625816583.0,32.000000
-57,1,31,1625816583.0,32.000000
-57,2,29,1625816583.0,32.000000
-57,1,26,1625816583.0,32.000000
-59,0,25,1625816583.0,32.000000
-59,3,24,1625816583.0,32.000000
-57,3,25,1625816583.0,32.000000
-58,2,23,1625816583.0,32.000000
-58,-1,29,1625816583.0,32.000000
-58,0,28,1625816583.0,32.000000
-57,-1,25,1625816583.0,32.000000
-60,0,25,1625816583.0,32.000000
-57,-1,27,1625816583.0,32.000000
-56,-2,28,1625816583.0,32.000000
-57,0,27,1625816583.0,32.000000
-58,0,25,1625816583.0,32.000000
-58,2,22,1625816583.0,32.000000
-59,5,19,1625816583.0,32.000000
-59,5,17,1625816583.0,32.000000
-59,2,21,1625816583.0,32.000000
-58,-1,25,1625816583.0,32.000000
-60,0,23,1625816583.0,32.000000
-59,2,21,1625816583.0,32.000000
-60,2,20,1625816583.0,32.000000
-60,1,20,1625816583.0,32.000000
-60,1,20,1625816583.0,32.000000
-61,2,18,1625816583.0,32.000000
-61,1,19,1625816583.0,32.000000
-60,1,19,1625816583.0,32.000000
-60,1,18,1625816583.0,32.000000
-62,1,19,1625816583.0,32.000000
-61,-1,20,1625816583.0,32.000000
-61,0,20,1625816583.0,32.000000
-59,0,21,1625816583.0,32.000000
-59,0,21,1625816583.0,32.000000
-58,-1,22,1625816583.0,32.000000
-60,0,20,1625816583.0,32.000000
-61,0,19,1625816583.0,32.000000
-60,0,18,1625816583.0,32.000000
-62,2,15,1625816583.0,32.000000
-63,2,14,1625816583.0,32.000000
-61,1,18,1625816583.0,32.000000
-60,0,19,1625816583.0,32.000000
-60,0,20,1625816583.0,32.000000
-61,0,19,1625816583.0,32.000000
-61,0,18,1625816583.0,32.000000
-61,1,18,1625816583.0,32.000000
-60,0,19,1625816583.0,32.000000
-61,1,19,1625816583.0,32.000000
-61,0,18,1625816583.0,32.000000
-61,1,19,1625816583.0,32.000000
-61,1,19,1625816583.0,32.000000
-59,2,20,1625816583.0,32.000000
-59,2,21,1625816583.0,32.000000
-60,1,20,1625816583.0,32.000000
-60,2,19,1625816583.0,32.000000
-60,1,20,1625816583.0,32.000000
-60,0,22,1625816583.0,32.000000
-59,1,22,1625816583.0,32.000000
-59,1,22,1625816583.0,32.000000
-60,1,21,1625816583.0,32.000000
-60,1,21,1625816583.0,32.000000
-60,1,22,1625816583.0,32.000000
-59,1,21,1625816583.0,32.000000
-60,1,20,1625816583.0,32.000000
-61,1,19,1625816583.0,32.000000
-60,1,20,1625816583.0,32.000000
-59,1,22,1625816583.0,32.000000
-59,2,23,1625816583.0,32.000000
-60,1,23,1625816583.0,32.000000
-60,0,24,1625816583.0,32.000000
-59,-1,25,1625816583.0,32.000000
-58,0,24,1625816583.0,32.000000
-58,1,23,1625816583.0,32.000000
-58,0,25,1625816583.0,32.000000
-60,0,23,1625816583.0,32.000000
-59,0,23,1625816583.0,32.000000
-58,0,24,1625816583.0,32.000000
-59,0,25,1625816583.0,32.000000
-59,0,24,1625816583.0,32.000000
-58,0,23,1625816583.0,32.000000
-59,1,23,1625816583.0,32.000000
-59,1,24,1625816583.0,32.000000
-60,1,22,1625816583.0,32.000000
-59,1,22,1625816583.0,32.000000
-59,1,22,1625816583.0,32.000000
-59,1,22,1625816583.0,32.000000
-60,1,22,1625816583.0,32.000000
-59,2,21,1625816583.0,32.000000
-60,2,22,1625816583.0,32.000000
-59,1,22,1625816583.0,32.000000
-60,1,21,1625816583.0,32.000000
-60,1,20,1625816583.0,32.000000
-64,1,22,1625816583.0,32.000000
-54,1,22,1625816583.0,32.000000
-60,1,23,1625816583.0,32.000000
-58,1,23,1625816583.0,32.000000
-60,0,23,1625816583.0,32.000000
-60,1,22,1625816583.0,32.000000
-59,1,21,1625816583.0,32.000000
-60,1,21,1625816583.0,32.000000
-59,1,23,1625816583.0,32.000000
-59,1,23,1625816583.0,32.000000
-59,1,22,1625816583.0,32.000000
-59,1,23,1625816583.0,32.000000
-60,1,22,1625816583.0,32.000000
-59,1,22,1625816583.0,32.000000
-59,1,22,1625816583.0,32.000000
-59,1,22,1625816583.0,32.000000
-59,0,23,1625816583.0,32.000000
-60,1,21,1625816583.0,32.000000
-60,1,21,1625816583.0,32.000000
-59,1,22,1625816583.0,32.000000
-59,1,22,1625816583.0,32.000000
-59,1,21,1625816583.0,32.000000
-60,1,22,1625816583.0,32.000000
-59,1,22,1625816583.0,32.000000
-59,1,22,1625816583.0,32.000000
-60,1,21,1625816583.0,32.000000
-59,1,22,1625816583.0,32.000000
-59,1,22,1625816583.0,32.000000
-60,1,21,1625816583.0,32.000000
-59,2,21,1625816583.0,32.000000
-60,1,21,1625816583.0,32.000000
-60,1,22,1625816583.0,32.000000
-59,2,22,1625816583.0,32.000000
-59,2,23,1625816583.0,32.000000
-59,1,22,1625816583.0,32.000000
-59,2,22,1625816583.0,32.000000
-59,1,22,1625816583.0,32.000000
-59,2,22,1625816583.0,32.000000
-59,1,22,1625816583.0,32.000000
-60,1,21,1625816583.0,32.000000
-59,1,22,1625816583.0,32.000000
-59,2,22,1625816583.0,32.000000
-60,1,22,1625816583.0,32.000000
-59,1,22,1625816583.0,32.000000
-59,1,23,1625816583.0,32.000000
-59,1,23,1625816583.0,32.000000
-59,1,23,1625816583.0,32.000000
-60,1,22,1625816583.0,32.000000
-59,1,22,1625816583.0,32.000000
-59,1,22,1625816583.0,32.000000
-59,1,22,1625816583.0,32.000000
-59,1,22,1625816583.0,32.000000
-60,1,22,1625816583.0,32.000000
-59,1,22,1625816583.0,32.000000
-59,1,23,1625816583.0,32.000000
-59,1,22,1625816583.0,32.000000
-59,1,22,1625816583.0,32.000000
-58,1,22,1625816583.0,32.000000
-60,1,22,1625816583.0,32.000000
-60,1,22,1625816583.0,32.000000
-59,1,22,1625816583.0,32.000000
-59,1,22,1625816583.0,32.000000
-59,1,22,1625816583.0,32.000000
-60,1,22,1625816583.0,32.000000
-59,1,22,1625816583.0,32.000000
-59,1,22,1625816583.0,32.000000
-59,1,22,1625816583.0,32.000000
-59,1,22,1625816583.0,32.000000
-59,1,23,1625816583.0,32.000000
-59,1,23,1625816583.0,32.000000
-60,1,22,1625816583.0,32.000000
-60,1,21,1625816583.0,32.000000
-60,2,21,1625816583.0,32.000000
-59,1,21,1625816583.0,32.000000
-60,1,21,1625816583.0,32.000000
-60,1,21,1625816583.0,32.000000
-60,2,21,1625816583.0,32.000000
-60,2,21,1625816583.0,32.000000
-59,2,21,1625816583.0,32.000000
-60,1,21,1625816583.0,32.000000
-60,2,20,1625816583.0,32.000000
-60,2,21,1625816583.0,32.000000
-59,1,21,1625816583.0,32.000000
-60,1,21,1625816583.0,32.000000
-60,1,21,1625816583.0,32.000000
-60,1,20,1625816583.0,32.000000
-61,1,20,1625816583.0,32.000000
-60,1,21,1625816583.0,32.000000
-60,2,20,1625816583.0,32.000000
-59,1,21,1625816583.0,32.000000
-60,1,21,1625816583.0,32.000000
-60,2,21,1625816583.0,32.000000
-60,2,21,1625816583.0,32.000000
-60,2,20,1625816583.0,32.000000
-61,1,20,1625816583.0,32.000000
-60,1,21,1625816583.0,32.000000
-59,1,22,1625816583.0,32.000000
-59,1,22,1625816583.0,32.000000
-58,1,23,1625816583.0,32.000000
-60,1,22,1625816583.0,32.000000
-59,1,22,1625816583.0,32.000000
-60,1,21,1625816583.0,32.000000
-59,1,22,1625816583.0,32.000000
-60,1,22,1625816583.0,32.000000
-59,1,22,1625816583.0,32.000000
-59,1,22,1625816583.0,32.000000
-60,1,21,1625816583.0,32.000000
-59,1,22,1625816583.0,32.000000
-60,1,22,1625816583.0,32.000000
-60,1,22,1625816583.0,32.000000
-59,1,22,1625816583.0,32.000000
-59,1,22,1625816583.0,32.000000
-59,1,22,1625816583.0,32.000000
-59,1,22,1625816583.0,32.000000
-60,1,22,1625816583.0,32.000000
-59,1,22,1625816583.0,32.000000
-60,1,22,1625816583.0,32.000000
-59,1,21,1625816583.0,32.000000
-59,0,22,1625816583.0,32.000000
-59,1,21,1625816583.0,32.000000
-60,1,22,1625816583.0,32.000000
-59,1,22,1625816583.0,32.000000
-59,1,21,1625816583.0,32.000000
-60,1,21,1625816583.0,32.000000
-60,1,21,1625816583.0,32.000000
-60,1,21,1625816583.0,32.000000
-60,1,21,1625816583.0,32.000000
-59,2,22,1625816583.0,32.000000
-60,2,21,1625816583.0,32.000000
-59,1,21,1625816583.0,32.000000
-59,1,22,1625816583.0,32.000000
-59,1,22,1625816583.0,32.000000
-59,1,22,1625816583.0,32.000000
-60,1,21,1625816583.0,32.000000
-60,1,22,1625816583.0,32.000000
-59,1,22,1625816583.0,32.000000
-59,1,22,1625816583.0,32.000000
-60,2,20,1625816583.0,32.000000
-59,1,21,1625816583.0,32.000000
-59,1,21,1625816583.0,32.000000
-60,2,21,1625816583.0,32.000000
-60,2,21,1625816583.0,32.000000
-60,2,21,1625816583.0,32.000000
-60,2,21,1625816583.0,32.000000
-60,2,20,1625816583.0,32.000000
-60,1,20,1625816583.0,32.000000
-59,1,21,1625816583.0,32.000000
-60,1,21,1625816583.0,32.000000
-60,1,21,1625816583.0,32.000000
-60,1,21,1625816583.0,32.000000
-60,2,21,1625816583.0,32.000000
-60,2,21,1625816583.0,32.000000
-60,1,21,1625816583.0,32.000000
-60,1,21,1625816583.0,32.000000
-60,1,21,1625816583.0,32.000000
-60,1,20,1625816583.0,32.000000
-60,1,21,1625816583.0,32.000000
-60,1,21,1625816583.0,32.000000
-60,1,20,1625816583.0,32.000000
-59,1,21,1625816583.0,32.000000
-60,1,22,1625816583.0,32.000000
-59,1,21,1625816583.0,32.000000
-59,1,21,1625816583.0,32.000000
-60,1,21,1625816583.0,32.000000
-60,1,21,1625816583.0,32.000000
-60,1,21,1625816583.0,32.000000
-60,1,21,1625816583.0,32.000000
-60,1,21,1625816583.0,32.000000
-59,1,21,1625816583.0,32.000000
-60,1,21,1625816583.0,32.000000
-60,2,21,1625816583.0,32.000000
-60,1,21,1625816583.0,32.000000
-60,1,21,1625816583.0,32.000000
-60,1,21,1625816583.0,32.000000
-60,2,20,1625816583.0,32.000000
-60,1,21,1625816583.0,32.000000
-60,1,21,1625816583.0,32.000000
-60,1,21,1625816583.0,32.000000
-60,1,21,1625816583.0,32.000000
-60,1,21,1625816583.0,32.000000
-60,1,20,1625816583.0,32.000000
-60,2,20,1625816583.0,32.000000
-59,2,21,1625816583.0,32.000000
-60,1,21,1625816583.0,32.000000
-60,1,21,1625816583.0,32.000000
-60,2,21,1625816583.0,32.000000
-60,2,20,1625816583.0,32.000000
-60,1,21,1625816583.0,32.000000
-60,1,20,1625816583.0,32.000000
-60,1,21,1625816583.0,32.000000
-60,2,21,1625816583.0,32.000000
-60,1,21,1625816583.0,32.000000
-60,2,21,1625816583.0,32.000000
-60,1,21,1625816583.0,32.000000
-60,1,21,1625816583.0,32.000000
-60,1,21,1625816583.0,32.000000
-60,2,21,1625816583.0,32.000000
-59,1,22,1625816583.0,32.000000
-59,1,23,1625816583.0,32.000000
-58,1,23,1625816583.0,32.000000
-59,1,23,1625816583.0,32.000000
-59,1,23,1625816583.0,32.000000
-59,1,23,1625816583.0,32.000000
-59,1,22,1625816583.0,32.000000
-59,1,22,1625816583.0,32.000000
-59,1,22,1625816583.0,32.000000
-59,1,23,1625816583.0,32.000000
-59,1,22,1625816583.0,32.000000
-59,1,22,1625816583.0,32.000000
-59,1,22,1625816583.0,32.000000
-59,1,22,1625816583.0,32.000000
-59,1,22,1625816583.0,32.000000
-59,1,22,1625816583.0,32.000000
-59,1,22,1625816583.0,32.000000
-59,1,22,1625816583.0,32.000000
-59,1,22,1625816583.0,32.000000
-59,1,23,1625816583.0,32.000000
-60,1,21,1625816583.0,32.000000
-59,1,22,1625816583.0,32.000000
-60,1,21,1625816583.0,32.000000
-60,0,21,1625816583.0,32.000000
-60,1,21,1625816583.0,32.000000
-59,0,21,1625816583.0,32.000000
-60,1,21,1625816583.0,32.000000
-60,1,21,1625816583.0,32.000000
-59,1,22,1625816583.0,32.000000
-60,1,21,1625816583.0,32.000000
-59,1,21,1625816583.0,32.000000
-60,0,23,1625816583.0,32.000000
-61,1,21,1625816583.0,32.000000
-60,1,22,1625816583.0,32.000000
-60,1,21,1625816583.0,32.000000
-61,1,21,1625816583.0,32.000000
-59,0,23,1625816583.0,32.000000
-58,0,24,1625816583.0,32.000000
-58,1,22,1625816583.0,32.000000
-58,0,23,1625816583.0,32.000000
-59,1,23,1625816583.0,32.000000
-59,1,23,1625816583.0,32.000000
-59,1,21,1625816583.0,32.000000
-60,2,20,1625816583.0,32.000000
-57,1,24,1625816583.0,32.000000
-58,0,23,1625816583.0,32.000000
-63,0,17,1625816583.0,32.000000
-55,1,24,1625816583.0,32.000000
-52,0,31,1625816583.0,32.000000
-60,1,20,1625816583.0,32.000000
-55,0,27,1625816583.0,32.000000
-52,2,27,1625816583.0,32.000000
-57,10,11,1625816583.0,32.000000
-66,12,1,1625816583.0,32.000000
-67,13,-1,1625816583.0,32.000000
-61,18,-9,1625816583.0,32.000000
-58,20,-12,1625816583.0,32.000000
-62,18,-16,1625816583.0,32.000000
-60,19,-17,1625816583.0,32.000000
-60,19,-18,1625816583.0,32.000000
-65,21,-24,1625816583.0,32.000000
-62,20,-24,1625816583.0,32.000000
-59,20,-21,1625816583.0,32.000000
-63,16,-16,1625816583.0,32.000000
-72,16,-20,1625816583.0,32.000000
-75,13,-31,1625816583.0,32.000000
-70,20,-28,1625816583.0,32.000000
-10,15,35,1625816583.0,32.000000
-39,-30,56,1625816583.0,32.000000
-20,-5,59,1625816583.0,32.000000
-57,-7,22,1625816583.0,32.000000
-63,4,17,1625816583.0,32.000000
-61,-2,19,1625816583.0,32.000000
-63,-1,20,1625816583.0,32.000000
-60,1,21,1625816583.0,32.000000
-61,2,21,1625816583.0,32.000000
-58,0,22,1625816583.0,32.000000
-58,0,23,1625816583.0,32.000000
-59,-1,23,1625816583.0,32.000000
-59,-1,23,1625816583.0,32.000000
-60,0,21,1625816583.0,32.000000
-61,0,21,1625816583.0,32.000000
-60,0,21,1625816583.0,32.000000
-58,-1,23,1625816583.0,32.000000
-59,0,22,1625816583.0,32.000000
-60,0,22,1625816583.0,32.000000
-60,1,22,1625816583.0,32.000000
-59,0,22,1625816583.0,32.000000
-57,0,22,1625816583.0,32.000000
-59,0,22,1625816583.0,32.000000
-60,0,21,1625816583.0,32.000000
-60,0,20,1625816583.0,32.000000
-61,0,19,1625816583.0,32.000000
-62,1,18,1625816583.0,32.000000
-62,0,18,1625816583.0,32.000000
-66,-1,19,1625816583.0,32.000000
-56,-2,29,1625816583.0,32.000000
-57,-1,25,1625816583.0,32.000000
-56,1,24,1625816583.0,32.000000
-59,1,23,1625816583.0,32.000000
-58,2,24,1625816583.0,32.000000
-60,-1,23,1625816583.0,32.000000
-58,-1,26,1625816583.0,32.000000
-57,-1,28,1625816583.0,32.000000
-57,-1,26,1625816583.0,32.000000
-57,-1,25,1625816583.0,32.000000
-58,0,25,1625816583.0,32.000000
-59,0,25,1625816583.0,32.000000
-58,0,25,1625816583.0,32.000000
-58,0,24,1625816583.0,32.000000
-58,0,25,1625816583.0,32.000000
-57,-1,26,1625816583.0,32.000000
-57,0,26,1625816583.0,32.000000
-58,0,25,1625816583.0,32.000000
-59,0,24,1625816583.0,32.000000
-60,0,22,1625816583.0,32.000000
-60,0,23,1625816583.0,32.000000
-58,-1,25,1625816583.0,32.000000
-58,0,25,1625816583.0,32.000000
-57,-1,23,1625816583.0,32.000000
-59,0,23,1625816583.0,32.000000
-56,2,24,1625816583.0,32.000000
-58,2,24,1625816583.0,32.000000
-60,3,18,1625816583.0,32.000000
-56,0,25,1625816583.0,32.000000
-59,-2,25,1625816583.0,32.000000
-57,-1,27,1625816583.0,32.000000
-56,-1,31,1625816583.0,32.000000
-58,-1,25,1625816583.0,32.000000
-58,-1,24,1625816583.0,32.000000
-64,3,24,1625816583.0,32.000000
-59,-1,29,1625816583.0,32.000000
-63,1,19,1625816583.0,32.000000
-40,-5,48,1625816583.0,32.000000
-33,-8,60,1625816583.0,32.000000
-40,-3,46,1625816583.0,32.000000
-48,-6,39,1625816583.0,32.000000
-50,-6,35,1625816583.0,32.000000
-47,-5,39,1625816583.0,32.000000
-48,-4,40,1625816583.0,32.000000
-53,-2,34,1625816583.0,32.000000
-57,1,30,1625816583.0,32.000000
-57,0,28,1625816583.0,32.000000
-56,0,31,1625816583.0,32.000000
-56,-1,32,1625816583.0,32.000000
-52,0,32,1625816583.0,32.000000
-52,-4,38,1625816583.0,32.000000
-50,-5,38,1625816583.0,32.000000
-55,-1,33,1625816583.0,32.000000
-53,-1,34,1625816583.0,32.000000
-52,0,34,1625816583.0,32.000000
-54,-2,34,1625816583.0,32.000000
-54,-1,32,1625816583.0,32.000000
-53,-2,33,1625816583.0,32.000000
-53,-2,34,1625816583.0,32.000000
-54,-2,34,1625816583.0,32.000000
-54,-1,32,1625816583.0,32.000000
-54,-1,31,1625816583.0,32.000000
-52,-1,32,1625816583.0,32.000000
-49,-3,36,1625816583.0,32.000000
-53,0,35,1625816583.0,32.000000
-57,1,28,1625816583.0,32.000000
-56,3,28,1625816583.0,32.000000
-61,3,16,1625816583.0,32.000000
-61,6,16,1625816583.0,32.000000
-60,4,17,1625816583.0,32.000000
-64,7,7,1625816583.0,32.000000
-63,6,5,1625816583.0,32.000000
-63,5,7,1625816583.0,32.000000
-65,5,7,1625816583.0,32.000000
-63,5,6,1625816583.0,32.000000
-63,6,3,1625816583.0,32.000000
-64,7,1,1625816583.0,32.000000
-64,7,2,1625816583.0,32.000000
-64,7,1,1625816583.0,32.000000
-63,7,1,1625816583.0,32.000000
-64,7,1,1625816583.0,32.000000
-63,7,4,1625816583.0,32.000000
-63,6,4,1625816583.0,32.000000
-63,6,4,1625816583.0,32.000000
-64,5,4,1625816583.0,32.000000
-64,5,5,1625816583.0,32.000000
-62,6,6,1625816583.0,32.000000
-63,6,5,1625816583.0,32.000000
-63,6,4,1625816583.0,32.000000
-63,6,5,1625816583.0,32.000000
-62,6,6,1625816583.0,32.000000
-64,5,4,1625816583.0,32.000000
-64,5,4,1625816583.0,32.000000
-63,5,5,1625816583.0,32.000000
-63,5,6,1625816583.0,32.000000
-64,5,6,1625816583.0,32.000000
-64,5,5,1625816583.0,32.000000
-63,6,5,1625816583.0,32.000000
-63,6,5,1625816583.0,32.000000
-63,6,5,1625816583.0,32.000000
-63,5,5,1625816583.0,32.000000
-63,5,5,1625816583.0,32.000000
-62,5,5,1625816583.0,32.000000
-63,5,5,1625816583.0,32.000000
-63,5,5,1625816583.0,32.000000
-63,5,5,1625816583.0,32.000000
-63,5,6,1625816583.0,32.000000
-63,6,5,1625816583.0,32.000000
-63,6,5,1625816583.0,32.000000
-63,6,5,1625816583.0,32.000000
-63,6,5,1625816583.0,32.000000
-63,6,5,1625816583.0,32.000000
-63,5,6,1625816583.0,32.000000
-63,6,6,1625816583.0,32.000000
-63,6,6,1625816583.0,32.000000
-63,6,5,1625816583.0,32.000000
-63,6,6,1625816583.0,32.000000
-64,6,5,1625816583.0,32.000000
-63,6,5,1625816583.0,32.000000
-63,5,6,1625816583.0,32.000000
-63,6,6,1625816583.0,32.000000
-63,6,6,1625816583.0,32.000000
-63,6,6,1625816583.0,32.000000
-63,5,6,1625816583.0,32.000000
-63,5,6,1625816583.0,32.000000
-63,6,6,1625816583.0,32.000000
-63,6,6,1625816583.0,32.000000
-63,6,6,1625816583.0,32.000000
-63,6,6,1625816583.0,32.000000
-63,6,6,1625816583.0,32.000000
-63,5,6,1625816583.0,32.000000
-63,5,6,1625816583.0,32.000000
-63,5,6,1625816583.0,32.000000
-63,5,6,1625816583.0,32.000000
-63,5,6,1625816583.0,32.000000
-63,6,6,1625816583.0,32.000000
-63,6,6,1625816583.0,32.000000
-63,5,6,1625816583.0,32.000000
-63,6,6,1625816583.0,32.000000
-63,5,6,1625816583.0,32.000000
-63,5,6,1625816583.0,32.000000
-63,5,6,1625816583.0,32.000000
-63,5,6,1625816583.0,32.000000
-63,5,6,1625816583.0,32.000000
-63,5,6,1625816583.0,32.000000
-63,6,6,1625816583.0,32.000000
-63,5,6,1625816583.0,32.000000
-63,5,6,1625816583.0,32.000000
-63,5,6,1625816583.0,32.000000
-63,5,7,1625816583.0,32.000000
-63,5,6,1625816583.0,32.000000
-63,5,7,1625816583.0,32.000000
-63,5,7,1625816583.0,32.000000
-63,5,6,1625816583.0,32.000000
-64,5,6,1625816583.0,32.000000
-62,3,7,1625816583.0,32.000000
-61,3,7,1625816583.0,32.000000
-61,4,8,1625816583.0,32.000000
-61,5,7,1625816583.0,32.000000
-61,7,5,1625816583.0,32.000000
-61,9,5,1625816583.0,32.000000
-65,5,4,1625816583.0,32.000000
-67,1,5,1625816583.0,32.000000
-66,0,3,1625816583.0,32.000000
-66,1,0,1625816583.0,32.000000
-63,1,2,1625816583.0,32.000000
-62,-1,3,1625816583.0,32.000000
-65,-1,3,1625816583.0,32.000000
-65,-2,2,1625816583.0,32.000000
-61,-1,6,1625816583.0,32.000000
-59,2,9,1625816583.0,32.000000
-62,1,8,1625816583.0,32.000000
-64,-2,5,1625816583.0,32.000000
-62,0,5,1625816583.0,32.000000
-68,3,8,1625816583.0,32.000000
-66,3,5,1625816583.0,32.000000
-66,4,3,1625816583.0,32.000000
-62,0,6,1625816583.0,32.000000
-56,2,9,1625816583.0,32.000000
-65,4,7,1625816583.0,32.000000
-64,-1,6,1625816583.0,32.000000
-66,-2,6,1625816583.0,32.000000
-69,3,11,1625816583.0,32.000000
-63,2,13,1625816583.0,32.000000
-58,-6,19,1625816583.0,32.000000
-51,-12,25,1625816583.0,32.000000
-51,-11,25,1625816583.0,32.000000
-55,-1,21,1625816583.0,32.000000
-62,2,20,1625816583.0,32.000000
-69,5,17,1625816583.0,32.000000
-64,-1,16,1625816583.0,32.000000
-60,-6,19,1625816583.0,32.000000
-54,-8,21,1625816583.0,32.000000
-67,-4,16,1625816583.0,32.000000
-58,-3,18,1625816583.0,32.000000
-62,3,16,1625816583.0,32.000000
-65,1,18,1625816583.0,32.000000
-70,1,16,1625816583.0,32.000000
-63,1,12,1625816583.0,32.000000
-64,-3,15,1625816583.0,32.000000
-48,-6,23,1625816583.0,32.000000
-61,-5,18,1625816583.0,32.000000
-72,-5,12,1625816583.0,32.000000
-57,-8,17,1625816583.0,32.000000
-58,-8,20,1625816583.0,32.000000
-60,-3,19,1625816583.0,32.000000
-76,2,16,1625816583.0,32.000000
-67,3,19,1625816583.0,32.000000
-64,1,18,1625816583.0,32.000000
-62,0,14,1625816583.0,32.000000
-58,-4,14,1625816583.0,32.000000
-51,-9,27,1625816583.0,32.000000
-44,-10,36,1625816583.0,32.000000
-43,-9,39,1625816583.0,32.000000
-50,-8,34,1625816583.0,32.000000
-52,-9,33,1625816583.0,32.000000
-47,-8,41,1625816583.0,32.000000
-39,-7,43,1625816583.0,32.000000
-31,-6,44,1625816583.0,32.000000
-31,-6,45,1625816583.0,32.000000
-55,-12,33,1625816583.0,32.000000
-87,-17,9,1625816583.0,32.000000
-78,-10,6,1625816583.0,32.000000
-53,-13,22,1625816583.0,32.000000
-52,-7,31,1625816583.0,32.000000
-54,-4,35,1625816583.0,32.000000
-57,-3,24,1625816583.0,32.000000
-62,-5,13,1625816583.0,32.000000
-68,-16,1,1625816583.0,32.000000
-61,-8,17,1625816583.0,32.000000
-55,-7,26,1625816583.0,32.000000
-67,1,21,1625816583.0,32.000000
-66,3,19,1625816583.0,32.000000
-63,2,31,1625816583.0,32.000000
-52,0,33,1625816583.0,32.000000
-47,-1,37,1625816583.0,32.000000
-49,-2,35,1625816583.0,32.000000
-75,-2,12,1625816583.0,32.000000
-62,-2,24,1625816583.0,32.000000
-46,-3,39,1625816583.0,32.000000
-41,-4,44,1625816583.0,32.000000
-37,-4,49,1625816583.0,32.000000
-56,-1,37,1625816583.0,32.000000
-60,-3,31,1625816583.0,32.000000
-52,-2,29,1625816583.0,32.000000
-49,-1,31,1625816583.0,32.000000
-45,-2,41,1625816583.0,32.000000
-43,0,40,1625816583.0,32.000000
-48,0,39,1625816583.0,32.000000
-53,-2,35,1625816583.0,32.000000
-54,-3,33,1625816583.0,32.000000
-56,-4,28,1625816583.0,32.000000
-75,3,11,1625816583.0,32.000000
-77,1,7,1625816583.0,32.000000
-64,-3,15,1625816583.0,32.000000
-80,-2,15,1625816583.0,32.000000
-55,-5,28,1625816583.0,32.000000
-40,0,37,1625816583.0,32.000000
-53,-2,35,1625816583.0,32.000000
-50,-2,34,1625816583.0,32.000000
-49,-1,32,1625816583.0,32.000000
-48,-1,32,1625816583.0,32.000000
-46,-3,35,1625816583.0,32.000000
-39,-4,50,1625816583.0,32.000000
-44,-4,50,1625816583.0,32.000000
-46,-4,46,1625816583.0,32.000000
-37,-2,47,1625816583.0,32.000000
-45,2,45,1625816583.0,32.000000
-44,2,44,1625816583.0,32.000000
-42,7,47,1625816583.0,32.000000
-54,1,36,1625816583.0,32.000000
-59,0,31,1625816583.0,32.000000
-64,0,24,1625816583.0,32.000000
-58,2,27,1625816583.0,32.000000
-60,4,24,1625816583.0,32.000000
-63,6,17,1625816583.0,32.000000
-59,4,20,1625816583.0,32.000000
-60,2,21,1625816583.0,32.000000
-63,4,20,1625816583.0,32.000000
-61,4,23,1625816583.0,32.000000
-54,4,25,1625816583.0,32.000000
-56,2,28,1625816583.0,32.000000
-56,4,31,1625816583.0,32.000000
-54,3,31,1625816583.0,32.000000
-53,4,32,1625816583.0,32.000000
-56,5,31,1625816583.0,32.000000
-57,7,22,1625816583.0,32.000000
-56,9,20,1625816583.0,32.000000
-58,10,11,1625816583.0,32.000000
-59,12,5,1625816583.0,32.000000
-63,15,-1,1625816583.0,32.000000
-62,12,-4,1625816583.0,32.000000
-64,13,-6,1625816583.0,32.000000
-64,14,-3,1625816583.0,32.000000
-67,13,-6,1625816583.0,32.000000
-59,12,-5,1625816583.0,32.000000
-63,16,-10,1625816583.0,32.000000
-64,15,-12,1625816583.0,32.000000
-61,11,-4,1625816583.0,32.000000
-64,9,-3,1625816583.0,32.000000
-64,9,-2,1625816583.0,32.000000
-58,5,10,1625816583.0,32.000000
-60,4,10,1625816583.0,32.000000
-63,4,3,1625816583.0,32.000000
-64,6,-3,1625816583.0,32.000000
-65,7,-4,1625816583.0,32.000000
-63,7,-5,1625816583.0,32.000000
-65,7,-6,1625816583.0,32.000000
-65,7,-7,1625816583.0,32.000000
-64,6,-5,1625816583.0,32.000000
-64,6,-4,1625816583.0,32.000000
-64,6,-7,1625816583.0,32.000000
-63,6,-7,1625816583.0,32.000000
-63,6,-6,1625816583.0,32.000000
-65,6,-8,1625816583.0,32.000000
-65,6,-7,1625816583.0,32.000000
-70,6,-11,1625816583.0,32.000000
-70,8,-22,1625816583.0,32.000000
-70,12,-13,1625816583.0,32.000000
-54,4,14,1625816583.0,32.000000
-38,-14,47,1625816583.0,32.000000
-30,-2,53,1625816583.0,32.000000
-59,2,17,1625816583.0,32.000000
-64,6,14,1625816583.0,32.000000
-62,5,17,1625816583.0,32.000000
-63,8,6,1625816583.0,32.000000
-71,6,-2,1625816583.0,32.000000
-72,-2,9,1625816583.0,32.000000
-52,-7,25,1625816583.0,32.000000
-57,-3,28,1625816583.0,32.000000
-57,-1,22,1625816583.0,32.000000
-57,-2,24,1625816583.0,32.000000
-57,-2,23,1625816583.0,32.000000
-60,-2,21,1625816583.0,32.000000
-61,0,20,1625816583.0,32.000000
-62,-1,18,1625816583.0,32.000000
-60,-1,20,1625816583.0,32.000000
-60,-2,22,1625816583.0,32.000000
-59,-2,22,1625816583.0,32.000000
-59,-1,22,1625816583.0,32.000000
-60,-1,21,1625816583.0,32.000000
-60,-1,22,1625816583.0,32.000000
-59,-2,22,1625816583.0,32.000000
-58,-2,23,1625816583.0,32.000000
-59,-2,23,1625816583.0,32.000000
-59,-1,22,1625816583.0,32.000000
-59,-1,22,1625816583.0,32.000000
-59,-2,22,1625816583.0,32.000000
-59,-2,23,1625816583.0,32.000000
-58,-2,23,1625816583.0,32.000000
-59,-1,22,1625816583.0,32.000000
-59,-1,22,1625816583.0,32.000000
-60,0,21,1625816583.0,32.000000
-59,-2,23,1625816583.0,32.000000
-58,-2,23,1625816583.0,32.000000
-60,0,24,1625816583.0,32.000000
-63,0,20,1625816583.0,32.000000
-79,6,7,1625816583.0,32.000000
-52,-4,39,1625816583.0,32.000000
-47,-11,38,1625816583.0,32.000000
-38,-4,46,1625816583.0,32.000000
-25,-13,45,1625816583.0,32.000000
-37,-2,45,1625816583.0,32.000000
-37,-6,44,1625816583.0,32.000000
-49,-9,46,1625816583.0,32.000000
-45,-8,40,1625816583.0,32.000000
-67,-5,27,1625816583.0,32.000000
-60,2,23,1625816583.0,32.000000
-67,-4,26,1625816583.0,32.000000
-57,-3,25,1625816583.0,32.000000
-41,-9,46,1625816583.0,32.000000
-22,-21,55,1625816583.0,32.000000
-24,-6,55,1625816583.0,32.000000
-39,-8,45,1625816583.0,32.000000
-49,-10,41,1625816583.0,32.000000
-55,-3,35,1625816583.0,32.000000
-71,1,26,1625816583.0,32.000000
-70,-3,17,1625816583.0,32.000000
-48,-4,34,1625816583.0,32.000000
-7,-14,67,1625816583.0,32.000000
4,-20,90,1625816583.0,32.000000
-2,-12,55,1625816583.0,32.000000
-36,-18,60,1625816583.0,32.000000
-36,-16,52,1625816583.0,32.000000
-53,-6,45,1625816583.0,32.000000
-57,-3,37,1625816583.0,32.000000
-59,-5,41,1625816583.0,32.000000
-49,-4,36,1625816583.0,32.000000
-19,-12,66,1625816583.0,32.000000
-18,-3,46,1625816583.0,32.000000
-35,-11,55,1625816583.0,32.000000
-36,-5,49,1625816583.0,32.000000
-42,-9,48,1625816583.0,32.000000
-38,-9,46,1625816583.0,32.000000
-48,-6,43,1625816583.0,32.000000
-52,-3,39,1625816583.0,32.000000
-63,1,31,1625816583.0,32.000000
-70,-7,22,1625816583.0,32.000000
-24,-14,57,1625816583.0,32.000000
-32,-17,45,1625816583.0,32.000000
-34,-12,53,1625816583.0,32.000000
-31,-8,53,1625816583.0,32.000000
-39,-4,46,1625816583.0,32.000000
-42,-7,42,1625816583.0,32.000000
-49,-6,43,1625816583.0,32.000000
-53,-6,40,1625816583.0,32.000000
-57,-5,35,1625816583.0,32.000000
-57,0,31,1625816583.0,32.000000
-54,-3,33,1625816583.0,32.000000
-52,-4,36,1625816583.0,32.000000
-47,-5,40,1625816583.0,32.000000
-48,-5,41,1625816583.0,32.000000
-49,-4,38,1625816583.0,32.000000
-52,-4,36,1625816583.0,32.000000
-52,-4,36,1625816583.0,32.000000
-51,-4,37,1625816583.0,32.000000
-50,-4,38,1625816583.0,32.000000
-51,-4,37,1625816583.0,32.000000
-50,-4,37,1625816583.0,32.000000
-51,-4,37,1625816583.0,32.000000
-51,-4,37,1625816583.0,32.000000
-51,-4,37,1625816583.0,32.000000
-51,-4,37,1625816583.0,32.000000
-51,-4,37,1625816583.0,32.000000
-51,-4,37,1625816583.0,32.000000
-51,-4,37,1625816583.0,32.000000
-51,-4,38,1625816583.0,32.000000
-51,-4,37,1625816583.0,32.000000
-51,-4,37,1625816583.0,32.000000
-51,-4,37,1625816583.0,32.000000
-51,-4,37,1625816583.0,32.000000
-50,-4,38,1625816583.0,32.000000
-51,-4,37,1625816583.0,32.000000
-51,-4,37,1625816583.0,32.000000
-51,-4,37,1625816583.0,32.000000
-51,-4,37,1625816583.0,32.000000
-51,-4,37,1625816583.0,32.000000
-51,-4,37,1625816583.0,32.000000
-50,-4,37,1625816583.0,32.000000
-51,-4,37,1625816583.0,32.000000
-51,-4,37,1625816583.0,32.000000
-51,-4,37,1625816583.0,32.000000
-51,-4,37,1625816583.0,32.000000
-51,-4,37,1625816583.0,32.000000
-51,-4,37,1625816583.0,32.000000
-51,-4,37,1625816583.0,32.000000
-51,-4,37,1625816583.0,32.000000
-51,-4,37,1625816583.0,32.000000
-50,-4,38,1625816583.0,32.000000
-51,-4,37,1625816583.0,32.000000
-51,-4,37,1625816583.0,32.000000
-51,-3,37,1625816583.0,32.000000
-51,-4,37,1625816583.0,32.000000
-51,-4,37,1625816583.0,32.000000
-51,-4,37,1625816583.0,32.000000
-51,-4,37,1625816583.0,32.000000
-51,-4,37,1625816583.0,32.000000
-51,-4,37,1625816583.0,32.000000
-51,-4,37,1625816583.0,32.000000
-51,-4,37,1625816583.0,32.000000
-51,-4,37,1625816583.0,32.000000
-51,-4,37,1625816583.0,32.000000
-51,-4,37,1625816583.0,32.000000
-51,-4,37,1625816583.0,32.000000
-51,-4,37,1625816583.0,32.000000
-51,-4,38,1625816583.0,32.000000
-51,-4,37,1625816583.0,32.000000
-51,-4,37,1625816583.0,32.000000
-51,-4,37,1625816583.0,32.000000
-51,-4,37,1625816583.0,32.000000
-51,-4,37,1625816583.0,32.000000
-51,-4,37,1625816583.0,32.000000
-51,-4,37,1625816583.0,32.000000
-51,-4,37,1625816583.0,32.000000
-51,-4,37,1625816583.0,32.000000
-51,-4,37,1625816583.0,32.000000
-51,-4,37,1625816583.0,32.000000
-51,-4,38,1625816583.0,32.000000
-51,-4,37,1625816583.0,32.000000
-51,-4,37,1625816583.0,32.000000
-51,-4,37,1625816583.0,32.000000
-51,-4,37,1625816583.0,32.000000
-51,-4,37,1625816583.0,32.000000
-51,-4,37,1625816583.0,32.000000
-51,-4,37,1625816583.0,32.000000
-51,-4,37,1625816583.0,32.000000
-51,-4,37,1625816583.0,32.000000
-51,-4,37,1625816583.0,32.000000
-51,-4,37,1625816583.0,32.000000
-51,-4,38,1625816583.0,32.000000
-51,-4,37,1625816583.0,32.000000
-51,-4,37,1625816583.0,32.000000
-51,-4,37,1625816583.0,32.000000
-51,-4,37,1625816583.0,32.000000
-51,-4,37,1625816583.0,32.000000
-51,-4,37,1625816583.0,32.000000
-51,-4,37,1625816583.0,32.000000
-51,-4,38,1625816583.0,32.000000
-51,-4,38,1625816583.0,32.000000
-51,-4,37,1625816583.0,32.000000
-51,-4,37,1625816583.0,32.000000
-51,-4,37,1625816583.0,32.000000
-50,-4,38,1625816583.0,32.000000
-50,-4,38,1625816583.0,32.000000
-50,-4,37,1625816583.0,32.000000
-51,-4,37,1625816583.0,32.000000
-51,-4,37,1625816583.0,32.000000
-51,-4,38,1625816583.0,32.000000
-51,-4,37,1625816583.0,32.000000
-51,-4,38,1625816583.0,32.000000
-51,-4,38,1625816583.0,32.000000
-51,-4,37,1625816583.0,32.000000
-51,-4,37,1625816583.0,32.000000
-51,-4,37,1625816583.0,32.000000
-51,-4,37,1625816583.0,32.000000
-51,-4,37,1625816583.0,32.000000
-51,-4,37,1625816583.0,32.000000
-50,-4,37,1625816583.0,32.000000
-52,-4,37,1625816583.0,32.000000
-51,-4,37,1625816583.0,32.000000
-50,-4,37,1625816583.0,32.000000
-50,-4,38,1625816583.0,32.000000
-51,-4,37,1625816583.0,32.000000
-51,-4,37,1625816583.0,32.000000
-51,-4,37,1625816583.0,32.000000
-51,-4,37,1625816583.0,32.000000
-51,-4,38,1625816583.0,32.000000
-51,-4,37,1625816583.0,32.000000
-51,-4,38,1625816583.0,32.000000
-51,-4,37,1625816583.0,32.000000
-51,-4,38,1625816583.0,32.000000
-51,-4,37,1625816583.0,32.000000
-51,-4,38,1625816583.0,32.000000
-51,-4,38,1625816583.0,32.000000
-51,-4,37,1625816583.0,32.000000
-51,-4,37,1625816583.0,32.000000
-51,-4,37,1625816583.0,32.000000
-51,-4,37,1625816583.0,32.000000
-51,-4,37,1625816583.0,32.000000
-51,-4,38,1625816583.0,32.000000
-51,-4,38,1625816583.0,32.000000
-51,-4,37,1625816583.0,32.000000
-51,-4,37,1625816583.0,32.000000
-51,-4,37,1625816583.0,32.000000
-51,-4,37,1625816583.0,32.000000
-51,-4,38,1625816583.0,32.000000
-51,-4,37,1625816583.0,32.000000
-51,-4,37,1625816583.0,32.000000
-51,-4,37,1625816583.0,32.000000
-51,-4,37,1625816583.0,32.000000
-51,-4,37,1625816583.0,32.000000
-51,-4,37,1625816583.0,32.000000
-51,-4,37,1625816583.0,32.000000
-51,-3,38,1625816583.0,32.000000
-50,-5,38,1625816583.0,32.000000
-51,-5,37,1625816583.0,32.000000
-51,-5,37,1625816583.0,32.000000
-50,-3,38,1625816583.0,32.000000
-50,-4,38,1625816583.0,32.000000
-51,-4,38,1625816583.0,32.000000
-51,-4,37,1625816583.0,32.000000
-50,-4,38,1625816583.0,32.000000
-50,-4,38,1625816583.0,32.000000
-51,-4,37,1625816583.0,32.000000
-51,-3,37,1625816583.0,32.000000
-51,-4,37,1625816583.0,32.000000
-51,-4,38,1625816583.0,32.000000
-51,-4,38,1625816583.0,32.000000
-51,-4,38,1625816583.0,32.000000
-51,-4,37,1625816583.0,32.000000
-50,-4,38,1625816583.0,32.000000
-50,-4,38,1625816583.0,32.000000
-51,-3,38,1625816583.0,32.000000
-51,-4,38,1625816583.0,32.000000
-51,-4,38,1625816583.0,32.000000
-51,-4,37,1625816583.0,32.000000
-51,-4,38,1625816583.0,32.000000
-51,-4,38,1625816583.0,32.000000
-51,-4,37,1625816583.0,32.000000
-51,-4,37,1625816583.0,32.000000
-50,-3,38,1625816583.0,32.000000
-50,-4,38,1625816583.0,32.000000
-51,-4,38,1625816583.0,32.000000
-51,-4,38,1625816583.0,32.000000
-51,-4,37,1625816583.0,32.000000
-51,-4,37,1625816583.0,32.000000
-51,-4,37,1625816583.0,32.000000
-51,-4,38,1625816583.0,32.000000
-51,-4,38,1625816583.0,32.000000
-50,-4,38,1625816583.0,32.000000
-51,-4,38,1625816583.0,32.000000
-51,-4,38,1625816583.0,32.000000
-51,-4,38,1625816583.0,32.000000
-51,-4,37,1625816583.0,32.000000
-51,-4,38,1625816583.0,32.000000
-50,-4,38,1625816583.0,32.000000
-51,-4,38,1625816583.0,32.000000
-51,-4,37,1625816583.0,32.000000
-51,-4,38,1625816583.0,32.000000
-51,-4,38,1625816583.0,32.000000
-50,-4,38,1625816583.0,32.000000
-51,-4,38,1625816583.0,32.000000
-51,-4,38,1625816583.0,32.000000
-51,-4,38,1625816583.0,32.000000
-51,-4,37,1625816583.0,32.000000
-50,-4,37,1625816583.0,32.000000
-51,-4,37,1625816583.0,32.000000
-51,-4,38,1625816583.0,32.000000
-51,-4,38,1625816583.0,32.000000
-51,-4,37,1625816583.0,32.000000
-51,-4,37,1625816583.0,32.000000
-51,-4,38,1625816583.0,32.000000
-51,-4,38,1625816583.0,32.000000
-51,-4,38,1625816583.0,32.000000
-51,-4,38,1625816583.0,32.000000
-51,-4,37,1625816583.0,32.000000
-51,-4,37,1625816583.0,32.000000
-51,-4,38,1625816583.0,32.000000
-51,-4,38,1625816583.0,32.000000
-51,-4,38,1625816583.0,32.000000
-51,-4,37,1625816583.0,32.000000
-51,-4,37,1625816583.0,32.000000
-50,-4,38,1625816583.0,32.000000
-51,-4,38,1625816583.0,32.000000
-51,-4,38,1625816583.0,32.000000
-50,-4,38,1625816583.0,32.000000
-50,-4,38,1625816583.0,32.000000
-51,-4,38,1625816583.0,32.000000
-51,-4,37,1625816583.0,32.000000
-50,-4,37,1625816583.0,32.000000
-50,-4,38,1625816583.0,32.000000
-51,-4,38,1625816583.0,32.000000
-51,-4,37,1625816583.0,32.000000
-51,-4,38,1625816583.0,32.000000
-50,-4,38,1625816583.0,32.000000
-50,-4,38,1625816583.0,32.000000
-51,-4,38,1625816583.0,32.000000
-51,-4,38,1625816583.0,32.000000
-51,-4,38,1625816583.0,32.000000
-51,-4,38,1625816583.0,32.000000
-50,-4,37,1625816583.0,32.000000
-51,-4,37,1625816583.0,32.000000
-51,-4,38,1625816583.0,32.000000
-51,-4,38,1625816583.0,32.000000
-50,-4,37,1625816583.0,32.000000
-51,-4,38,1625816583.0,32.000000
-51,-4,38,1625816583.0,32.000000
-50,-4,38,1625816583.0,32.000000
-51,-4,37,1625816583.0,32.000000
-51,-4,37,1625816583.0,32.000000
-51,-4,38,1625816583.0,32.000000
-51,-4,38,1625816583.0,32.000000
-50,-4,37,1625816583.0,32.000000
-51,-4,37,1625816583.0,32.000000
-50,-4,38,1625816583.0,32.000000
-51,-4,38,1625816583.0,32.000000
-51,-4,37,1625816583.0,32.000000
-50,-4,38,1625816583.0,32.000000
-50,-4,38,1625816583.0,32.000000
-51,-5,37,1625816583.0,32.000000
-51,-5,38,1625816583.0,32.000000
-50,-4,38,1625816583.0,32.000000
-50,-4,38,1625816583.0,32.000000
-51,-4,38,1625816583.0,32.000000
-51,-4,38,1625816583.0,32.000000
-50,-4,38,1625816583.0,32.000000
-50,-4,38,1625816583.0,32.000000
-51,-4,38,1625816583.0,32.000000
-51,-4,38,1625816583.0,32.000000
-51,-4,38,1625816583.0,32.000000
-50,-4,38,1625816583.0,32.000000
-50,-4,38,1625816583.0,32.000000
-50,-3,39,1625816583.0,32.000000
-51,-4,38,1625816583.0,32.000000
-50,-3,38,1625816583.0,32.000000
-49,-4,38,1625816583.0,32.000000
-50,-4,38,1625816583.0,32.000000
-50,-4,38,1625816583.0,32.000000
-50,-4,38,1625816583.0,32.000000
-50,-4,38,1625816583.0,32.000000
-51,-4,38,1625816583.0,32.000000
-51,-3,38,1625816583.0,32.000000
-50,-4,39,1625816583.0,32.000000
-50,-4,38,1625816583.0,32.000000
-50,-4,38,1625816583.0,32.000000
-51,-3,38,1625816583.0,32.000000
-50,-3,39,1625816583.0,32.000000
-50,-4,38,1625816583.0,32.000000
-50,-4,38,1625816583.0,32.000000
-51,-4,38,1625816583.0,32.000000
-50,-4,38,1625816583.0,32.000000
-50,-5,38,1625816583.0,32.000000
-50,-5,38,1625816583.0,32.000000
-51,-4,38,1625816583.0,32.000000
-50,-4,38,1625816583.0,32.000000
-50,-4,38,1625816583.0,32.000000
-51,-4,38,1625816583.0,32.000000
-51,-4,38,1625816583.0,32.000000
-50,-3,39,1625816583.0,32.000000
-49,-3,39,1625816583.0,32.000000
-50,-4,38,1625816583.0,32.000000
-50,-3,38,1625816583.0,32.000000
-50,-3,38,1625816583.0,32.000000
-51,-5,37,1625816583.0,32.000000
-51,-5,38,1625816583.0,32.000000
-50,-3,39,1625816583.0,32.000000
-51,-4,37,1625816583.0,32.000000
-51,-4,37,1625816583.0,32.000000
-50,-4,39,1625816583.0,32.000000
-49,-4,39,1625816583.0,32.000000
-49,-4,38,1625816583.0,32.000000
-51,-4,37,1625816583.0,32.000000
-51,-3,38,1625816583.0,32.000000
-49,-3,40,1625816583.0,32.000000
-50,-4,38,1625816583.0,32.000000
-51,-5,37,1625816583.0,32.000000
-51,-3,38,1625816583.0,32.000000
-50,-3,39,1625816583.0,32.000000
-50,-4,38,1625816583.0,32.000000
-50,-4,39,1625816583.0,32.000000
-49,-4,39,1625816583.0,32.000000
-50,-4,38,1625816583.0,32.000000
-51,-4,37,1625816583.0,32.000000
-51,-4,38,1625816583.0,32.000000
-49,-4,38,1625816583.0,32.000000
-50,-4,38,1625816583.0,32.000000
-50,-3,39,1625816583.0,32.000000
-49,-5,39,1625816583.0,32.000000
-51,-4,37,1625816583.0,32.000000
-51,-3,37,1625816583.0,32.000000
-50,-4,39,1625816583.0,32.000000
-49,-4,39,1625816583.0,32.000000
-50,-5,37,1625816583.0,32.000000
-50,-4,38,1625816583.0,32.000000
-50,-4,38,1625816583.0,32.000000
-51,-4,38,1625816583.0,32.000000
-51,-4,37,1625816583.0,32.000000
-51,-4,38,1625816583.0,32.000000
-50,-4,39,1625816583.0,32.000000
-50,-4,38,1625816583.0,32.000000
-51,-4,37,1625816583.0,32.000000
-51,-4,37,1625816583.0,32.000000
-51,-3,38,1625816583.0,32.000000
-50,-3,39,1625816583.0,32.000000
-50,-4,38,1625816583.0,32.000000
-50,-4,38,1625816583.0,32.000000
-50,-3,38,1625816583.0,32.000000
-51,-4,38,1625816583.0,32.000000
-50,-4,38,1625816583.0,32.000000
-50,-4,38,1625816583.0,32.000000
-50,-4,38,1625816583.0,32.000000
-50,-4,38,1625816583.0,32.000000
-51,-4,38,1625816583.0,32.000000
-50,-3,39,1625816583.0,32.000000
-50,-4,39,1625816583.0,32.000000
-50,-4,38,1625816583.0,32.000000
-51,-4,38,1625816583.0,32.000000
-51,-4,38,1625816583.0,32.000000
-50,-4,39,1625816583.0,32.000000
-50,-4,39,1625816583.0,32.000000
-51,-5,37,1625816583.0,32.000000
-51,-4,38,1625816583.0,32.000000
-50,-3,39,1625816583.0,32.000000
-50,-4,38,1625816583.0,32.000000
-51,-4,37,1625816583.0,32.000000
-50,-4,39,1625816583.0,32.000000
-49,-3,39,1625816583.0,32.000000
-50,-4,38,1625816583.0,32.000000
-51,-4,37,1625816583.0,32.000000
-51,-4,38,1625816583.0,32.000000
-50,-4,39,1625816583.0,32.000000
-50,-4,38,1625816583.0,32.000000
-50,-4,38,1625816583.0,32.000000
-50,-4,38,1625816583.0,32.000000
-50,-4,39,1625816583.0,32.000000
-50,-4,38,1625816583.0,32.000000
-51,-4,38,1625816583.0,32.000000
-51,-4,37,1625816583.0,32.000000
-51,-4,38,1625816583.0,32.000000
-50,-4,37,1625816583.0,32.000000
-50,-3,38,1625816583.0,32.000000
-49,-5,40,1625816583.0,32.000000
-47,-4,40,1625816583.0,32.000000
-52,-5,38,1625816583.0,32.000000
-47,-6,45,1625816583.0,32.000000
-51,-4,36,1625816583.0,32.000000
-49,-8,41,1625816583.0,32.000000
-44,3,44,1625816583.0,32.000000
-51,-3,34,1625816583.0,32.000000
-48,-4,39,1625816583.0,32.000000
-46,-4,46,1625816583.0,32.000000
-50,-4,38,1625816583.0,32.000000
-48,-4,41,1625816583.0,32.000000
-47,-4,39,1625816583.0,32.000000
-41,0,47,1625816583.0,32.000000
-50,-4,38,1625816583.0,32.000000
-52,-3,34,1625816583.0,32.000000
-47,-4,42,1625816583.0,32.000000
-46,-5,46,1625816583.0,32.000000
-51,-3,38,1625816583.0,32.000000
-51,-4,40,1625816583.0,32.000000
-50,-4,36,1625816583.0,32.000000
-45,4,44,1625816583.0,32.000000
-51,-8,35,1625816583.0,32.000000
-51,-4,36,1625816583.0,32.000000
-51,-5,39,1625816583.0,32.000000
-49,-4,39,1625816583.0,32.000000
-52,-4,37,1625816583.0,32.000000
-49,-4,39,1625816583.0,32.000000
-49,-6,41,1625816583.0,32.000000
-52,-4,37,1625816583.0,32.000000
-49,-4,39,1625816583.0,32.000000
-47,-3,41,1625816583.0,32.000000
-52,-4,35,1625816583.0,32.000000
-45,2,44,1625816583.0,32.000000
-50,-3,37,1625816583.0,32.000000
-51,-4,37,1625816583.0,32.000000
-50,-4,39,1625816583.0,32.000000
-50,-4,39,1625816583.0,32.000000
-50,-4,38,1625816583.0,32.000000
-51,-4,38,1625816583.0,32.000000
-50,-4,38,1625816583.0,32.000000
-50,-4,38,1625816583.0,32.000000
-51,-4,38,1625816583.0,32.000000
-51,-4,38,1625816583.0,32.000000
-50,-4,38,1625816583.0,32.000000
-50,-4,39,1625816583.0,32.000000
-51,-4,38,1625816583.0,32.000000
-50,-5,38,1625816583.0,32.000000
-50,-4,38,1625816583.0,32.000000
-50,-4,38,1625816583.0,32.000000
-50,-4,38,1625816583.0,32.000000
-49,-4,39,1625816583.0,32.000000
-50,-5,40,1625816583.0,32.000000
-49,-4,39,1625816583.0,32.000000
-51,-4,38,1625816583.0,32.000000
-47,-6,42,1625816583.0,32.000000
-49,-5,41,1625816583.0,32.000000
-52,-4,35,1625816583.0,32.000000
-52,-3,36,1625816583.0,32.000000
-46,-4,40,1625816583.0,32.000000
-47,-4,42,1625816583.0,32.000000
-48,-6,41,1625816583.0,32.000000
-45,-4,42,1625816583.0,32.000000
-45,-7,40,1625816583.0,32.000000
-49,-8,37,1625816583.0,32.000000
-41,-5,36,1625816583.0,32.000000
-57,-15,39,1625816583.0,32.000000
-57,-17,39,1625816583.0,32.000000
-46,-9,42,1625816583.0,32.000000
-47,-9,43,1625816583.0,32.000000
-49,-7,43,1625816583.0,32.000000
-49,-5,41,1625816583.0,32.000000
-45,5,40,1625816583.0,32.000000
-38,3,48,1625816583.0,32.000000
-40,6,45,1625816583.0,32.000000
-48,8,41,1625816583.0,32.000000
-50,7,41,1625816583.0,32.000000
-39,5,42,1625816583.0,32.000000
-40,2,53,1625816583.0,32.000000
-38,0,48,1625816583.0,32.000000
-26,1,54,1625816583.0,32.000000
-25,-8,65,1625816583.0,32.000000
-19,-10,69,1625816583.0,32.000000
-22,-8,61,1625816583.0,32.000000
-19,-7,59,1625816583.0,32.000000
-17,-10,54,1625816583.0,32.000000
-24,-12,56,1625816583.0,32.000000
-24,-11,55,1625816583.0,32.000000
-19,-9,58,1625816583.0,32.000000
-19,-12,59,1625816583.0,32.000000
-19,-10,60,1625816583.0,32.000000
-24,-8,57,1625816583.0,32.000000
-24,-9,58,1625816583.0,32.000000
-24,-7,59,1625816583.0,32.000000
-21,-9,59,1625816583.0,32.000000
-17,-9,60,1625816583.0,32.000000
-28,-8,59,1625816583.0,32.000000
-24,-7,57,1625816583.0,32.000000
-23,-6,57,1625816583.0,32.000000
-21,-5,61,1625816583.0,32.000000
-23,-3,61,1625816583.0,32.000000
-23,-9,57,1625816583.0,32.000000
-24,-12,63,1625816583.0,32.000000
-24,-12,65,1625816583.0,32.000000
-22,-4,60,1625816583.0,32.000000
-17,-9,62,1625816583.0,32.000000
-18,-7,60,1625816583.0,32.000000
-19,-7,57,1625816583.0,32.000000
-19,-7,55,1625816583.0,32.000000
-18,-7,55,1625816583.0,32.000000
-19,-6,55,1625816583.0,32.000000
-21,-8,57,1625816583.0,32.000000
-22,-9,57,1625816583.0,32.000000
-22,-9,56,1625816583.0,32.000000
-22,-8,55,1625816583.0,32.000000
-22,-8,55,1625816583.0,32.000000
-22,-9,57,1625816583.0,32.000000
-26,-13,62,1625816583.0,32.000000
-23,-15,65,1625816583.0,32.000000
-22,-12,58,1625816583.0,32.000000
-22,-10,45,1625816583.0,32.000000
-27,-18,53,1625816583.0,32.000000
-13,0,78,1625816583.0,32.000000
-20,1,70,1625816583.0,32.000000
-20,0,60,1625816583.0,32.000000
-19,-7,56,1625816583.0,32.000000
-18,-24,53,1625816583.0,32.000000
-9,-4,83,1625816583.0,32.000000
-15,-7,67,1625816583.0,32.000000
-17,-3,51,1625816583.0,32.000000
-13,-5,52,1625816583.0,32.000000
-15,-8,55,1625816583.0,32.000000
-16,-10,56,1625816583.0,32.000000
-14,-10,56,1625816583.0,32.000000
-14,-10,58,1625816583.0,32.000000
-17,-11,61,1625816583.0,32.000000
-17,-10,60,1625816583.0,32.000000
-16,-8,58,1625816583.0,32.000000
-18,-9,61,1625816583.0,32.000000
-18,-10,61,1625816583.0,32.000000
-16,-10,59,1625816583.0,32.000000
-16,-10,59,1625816583.0,32.000000
-17,-7,54,1625816583.0,32.000000
-18,-13,64,1625816583.0,32.000000
-16,-12,66,1625816583.0,32.000000
-13,-9,63,1625816583.0,32.000000
-13,-8,61,1625816583.0,32.000000
-18,-11,61,1625816583.0,32.000000
-19,-10,60,1625816583.0,32.000000
-17,-9,59,1625816583.0,32.000000
-14,-9,61,1625816583.0,32.000000
-18,-11,61,1625816583.0,32.000000
-18,-10,60,1625816583.0,32.000000
-17,-9,58,1625816583.0,32.000000
-17,-9,59,1625816583.0,32.000000
-17,-10,61,1625816583.0,32.000000
-18,-9,60,1625816583.0,32.000000
-18,-9,59,1625816583.0,32.000000
-18,-9,59,1625816583.0,32.000000
-18,-10,61,1625816583.0,32.000000
-19,-9,62,1625816583.0,32.000000
-19,-7,59,1625816583.0,32.000000
-19,-9,59,1625816583.0,32.000000
-19,-9,60,1625816583.0,32.000000
-18,-9,61,1625816583.0,32.000000
-18,-9,60,1625816583.0,32.000000
-18,-9,59,1625816583.0,32.000000
-19,-9,59,1625816583.0,32.000000
-19,-9,60,1625816583.0,32.000000
-19,-8,61,1625816583.0,32.000000
-18,-8,60,1625816583.0,32.000000
-19,-8,59,1625816583.0,32.000000
-19,-9,59,1625816583.0,32.000000
-19,-9,59,1625816583.0,32.000000
-18,-9,60,1625816583.0,32.000000
-19,-8,60,1625816583.0,32.000000
-19,-9,59,1625816583.0,32.000000
-19,-9,57,1625816583.0,32.000000
-18,-8,56,1625816583.0,32.000000
-18,-9,55,1625816583.0,32.000000
-18,-10,54,1625816583.0,32.000000
-19,-10,53,1625816583.0,32.000000
-19,-8,59,1625816583.0,32.000000
-20,-9,63,1625816583.0,32.000000
-22,-4,66,1625816583.0,32.000000
-26,-6,63,1625816583.0,32.000000
-25,-5,59,1625816583.0,32.000000
-17,-9,63,1625816583.0,32.000000
-22,-12,73,1625816583.0,32.000000
-24,-6,56,1625816583.0,32.000000
-31,-4,53,1625816583.0,32.000000
-26,-3,57,1625816583.0,32.000000
-24,-4,66,1625816583.0,32.000000
-21,-4,62,1625816583.0,32.000000
-23,-5,53,1625816583.0,32.000000
-28,-9,59,1625816583.0,32.000000
-26,-7,56,1625816583.0,32.000000
-23,-7,57,1625816583.0,32.000000
-21,-10,57,1625816583.0,32.000000
-23,-14,54,1625816583.0,32.000000
-18,-7,62,1625816583.0,32.000000
-17,-10,57,1625816583.0,32.000000
-21,-9,61,1625816583.0,32.000000
-22,-8,58,1625816583.0,32.000000
-24,-7,60,1625816583.0,32.000000
-21,-8,59,1625816583.0,32.000000
-21,-9,59,1625816583.0,32.000000
-24,-8,59,1625816583.0,32.000000
-25,-8,57,1625816583.0,32.000000
-24,-9,58,1625816583.0,32.000000
-20,-7,59,1625816583.0,32.000000
-23,-7,59,1625816583.0,32.000000
-25,-7,58,1625816583.0,32.000000
-24,-8,58,1625816583.0,32.000000
-23,-8,58,1625816583.0,32.000000
-24,-7,58,1625816583.0,32.000000
-25,-7,58,1625816583.0,32.000000
-25,-7,57,1625816583.0,32.000000
-24,-7,58,1625816583.0,32.000000
-25,-7,57,1625816583.0,32.000000
-25,-7,58,1625816583.0,32.000000
-24,-7,58,1625816583.0,32.000000
-24,-7,58,1625816583.0,32.000000
-25,-7,58,1625816583.0,32.000000
-25,-7,58,1625816583.0,32.000000
-24,-7,58,1625816583.0,32.000000
-25,-7,58,1625816583.0,32.000000
-25,-7,58,1625816583.0,32.000000
-25,-7,57,1625816583.0,32.000000
-25,-7,58,1625816583.0,32.000000
-25,-7,57,1625816583.0,32.000000
-25,-7,58,1625816583.0,32.000000
-25,-7,58,1625816583.0,32.000000
-25,-7,57,1625816583.0,32.000000
-26,-7,57,1625816583.0,32.000000
-26,-7,57,1625816583.0,32.000000
-26,-7,57,1625816583.0,32.000000
-26,-6,57,1625816583.0,32.000000
-26,-6,58,1625816583.0,32.000000
-26,-7,57,1625816583.0,32.000000
-26,-6,57,1625816583.0,32.000000
-26,-7,57,1625816583.0,32.000000
-25,-7,57,1625816583.0,32.000000
-25,-7,58,1625816583.0,32.000000
-25,-6,58,1625816583.0,32.000000
-26,-6,58,1625816583.0,32.000000
-24,-6,58,1625816583.0,32.000000
-25,-6,58,1625816583.0,32.000000
-27,-6,57,1625816583.0,32.000000
-26,-6,57,1625816583.0,32.000000
-25,-6,58,1625816583.0,32.000000
-26,-7,57,1625816583.0,32.000000
-27,-6,57,1625816583.0,32.000000
-27,-7,57,1625816583.0,32.000000
-26,-6,57,1625816583.0,32.000000
-27,-6,57,1625816583.0,32.000000
-25,-5,59,1625816583.0,32.000000
-30,-6,55,1625816583.0,32.000000
-27,-5,56,1625816583.0,32.000000
-25,-5,57,1625816583.0,32.000000
-27,-9,56,1625816583.0,32.000000
-25,-8,58,1625816583.0,32.000000
-24,-6,58,1625816583.0,32.000000
-28,-6,57,1625816583.0,32.000000
-27,-5,56,1625816583.0,32.000000
-27,-6,56,1625816583.0,32.000000
-26,-7,57,1625816583.0,32.000000
-26,-7,57,1625816583.0,32.000000
-26,-9,57,1625816583.0,32.000000
-26,-6,57,1625816583.0,32.000000
-28,-6,56,1625816583.0,32.000000
-27,-6,57,1625816583.0,32.000000
-26,-6,56,1625816583.0,32.000000
-26,-7,56,1625816583.0,32.000000
-26,-7,57,1625816583.0,32.000000
-24,-7,58,1625816583.0,32.000000
-24,-6,58,1625816583.0,32.000000
-28,-6,57,1625816583.0,32.000000
-27,-6,56,1625816583.0,32.000000
-27,-6,57,1625816583.0,32.000000
-27,-7,56,1625816583.0,32.000000
-26,-7,57,1625816583.0,32.000000
-26,-8,58,1625816583.0,32.000000
-29,-7,56,1625816583.0,32.000000
-28,-6,56,1625816583.0,32.000000
-27,-7,56,1625816583.0,32.000000
-26,-7,56,1625816583.0,32.000000
-28,-7,56,1625816583.0,32.000000
-28,-6,56,1625816583.0,32.000000
-28,-6,56,1625816583.0,32.000000
-27,-7,56,1625816583.0,32.000000
-28,-6,56,1625816583.0,32.000000
-29,-7,56,1625816583.0,32.000000
-28,-7,56,1625816583.0,32.000000
-28,-7,56,1625816583.0,32.000000
-28,-7,56,1625816583.0,32.000000
-29,-7,56,1625816583.0,32.000000
-28,-7,56,1625816583.0,32.000000
-28,-6,57,1625816583.0,32.000000
-29,-7,55,1625816583.0,32.000000
-29,-7,55,1625816583.0,32.000000
-28,-7,56,1625816583.0,32.000000
-28,-7,57,1625816583.0,32.000000
-29,-7,56,1625816583.0,32.000000
-29,-7,55,1625816583.0,32.000000
-29,-7,56,1625816583.0,32.000000
-30,-7,55,1625816583.0,32.000000
-26,-6,58,1625816583.0,32.000000
-28,-7,56,1625816583.0,32.000000
-29,-7,56,1625816583.0,32.000000
-29,-7,55,1625816583.0,32.000000
-30,-6,56,1625816583.0,32.000000
-31,-6,55,1625816583.0,32.000000
-31,-5,55,1625816583.0,32.000000
-31,-6,55,1625816583.0,32.000000
-31,-6,55,1625816583.0,32.000000
-31,-7,54,1625816583.0,32.000000
-31,-6,50,1625816583.0,32.000000
-37,-7,59,1625816583.0,32.000000
-31,-2,57,1625816583.0,32.000000
-38,-8,53,1625816583.0,32.000000
-33,-6,52,1625816583.0,32.000000
-31,-5,51,1625816583.0,32.000000
-31,-5,56,1625816583.0,32.000000
-30,-5,52,1625816583.0,32.000000
-34,-7,53,1625816583.0,32.000000
-34,-6,53,1625816583.0,32.000000
-33,-5,53,1625816583.0,32.000000
-33,-4,53,1625816583.0,32.000000
-32,-3,54,1625816583.0,32.000000
-31,-6,55,1625816583.0,32.000000
-30,-5,55,1625816583.0,32.000000
-32,-6,54,1625816583.0,32.000000
-30,-6,53,1625816583.0,32.000000
-30,-6,55,1625816583.0,32.000000
-31,-6,55,1625816583.0,32.000000
-31,-6,54,1625816583.0,32.000000
-30,-6,55,1625816583.0,32.000000
-32,-4,55,1625816583.0,32.000000
-35,-6,52,1625816583.0,32.000000
-32,-6,54,1625816583.0,32.000000
-33,-6,55,1625816583.0,32.000000
-33,-6,53,1625816583.0,32.000000
-34,-6,53,1625816583.0,32.000000
-34,-6,53,1625816583.0,32.000000
-34,-6,53,1625816583.0,32.000000
-33,-6,53,1625816583.0,32.000000
-33,-6,53,1625816583.0,32.000000
-34,-6,53,1625816583.0,32.000000
-34,-6,53,1625816583.0,32.000000
-33,-6,54,1625816583.0,32.000000
-34,-6,53,1625816583.0,32.000000
-34,-6,53,1625816583.0,32.000000
-33,-6,53,1625816583.0,32.000000
-34,-5,54,1625816583.0,32.000000
-34,-6,53,1625816583.0,32.000000
-33,-6,54,1625816583.0,32.000000
-33,-6,53,1625816583.0,32.000000
-34,-5,53,1625816583.0,32.000000
-34,-6,53,1625816583.0,32.000000
-34,-6,53,1625816583.0,32.000000
-34,-6,53,1625816583.0,32.000000
-33,-6,54,1625816583.0,32.000000
-34,-6,53,1625816583.0,32.000000
-34,-6,53,1625816583.0,32.000000
-33,-6,53,1625816583.0,32.000000
-34,-6,53,1625816583.0,32.000000
-34,-6,53,1625816583.0,32.000000
-35,-6,53,1625816583.0,32.000000
-34,-6,53,1625816583.0,32.000000
-33,-6,53,1625816583.0,32.000000
-33,-6,53,1625816583.0,32.000000
-34,-5,53,1625816583.0,32.000000
-34,-6,53,1625816583.0,32.000000
-34,-6,53,1625816583.0,32.000000
-34,-6,53,1625816583.0,32.000000
-34,-6,53,1625816583.0,32.000000
-33,-6,53,1625816583.0,32.000000
-34,-6,53,1625816583.0,32.000000
-34,-6,53,1625816583.0,32.000000
-34,-6,53,1625816583.0,32.000000
-34,-6,53,1625816583.0,32.000000
-34,-6,53,1625816583.0,32.000000
-34,-6,53,1625816583.0,32.000000
-34,-5,53,1625816583.0,32.000000
-34,-6,53,1625816583.0,32.000000
-34,-6,53,1625816583.0,32.000000
-34,-6,53,1625816583.0,32.000000
-34,-6,53,1625816583.0,32.000000
-34,-6,53,1625816583.0,32.000000
-34,-6,53,1625816583.0,32.000000
-34,-6,53,1625816583.0,32.000000
-33,-5,53,1625816583.0,32.000000
-34,-5,53,1625816583.0,32.000000
-35,-6,53,1625816583.0,32.000000
-32,-6,54,1625816583.0,32.000000
-33,-6,54,1625816583.0,32.000000
-36,-6,52,1625816583.0,32.000000
-35,-6,52,1625816583.0,32.000000
-32,-6,54,1625816583.0,32.000000
-33,-6,53,1625816583.0,32.000000
-34,-6,53,1625816583.0,32.000000
-33,-5,54,1625816583.0,32.000000
-33,-6,54,1625816583.0,32.000000
-34,-5,53,1625816583.0,32.000000
-33,-7,53,1625816583.0,32.000000
-33,-7,53,1625816583.0,32.000000
-30,-7,55,1625816583.0,32.000000
-31,-7,54,1625816583.0,32.000000
-34,-8,53,1625816583.0,32.000000
-31,-7,55,1625816583.0,32.000000
-33,-7,54,1625816583.0,32.000000
-32,-7,54,1625816583.0,32.000000
-32,-7,54,1625816583.0,32.000000
-32,-7,54,1625816583.0,32.000000
-32,-6,54,1625816583.0,32.000000
-32,-6,54,1625816583.0,32.000000
-32,-6,54,1625816583.0,32.000000
-33,-7,53,1625816583.0,32.000000
-33,-6,54,1625816583.0,32.000000
-33,-6,53,1625816583.0,32.000000
-33,-6,53,1625816583.0,32.000000
-34,-6,54,1625816583.0,32.000000
-33,-6,54,1625816583.0,32.000000
-33,-6,53,1625816583.0,32.000000
-34,-6,53,1625816583.0,32.000000
-33,-6,53,1625816583.0,32.000000
-33,-6,53,1625816583.0,32.000000
-33,-6,53,1625816583.0,32.000000
-33,-6,53,1625816583.0,32.000000
-34,-6,53,1625816583.0,32.000000
-33,-6,54,1625816583.0,32.000000
-34,-6,53,1625816583.0,32.000000
-34,-6,53,1625816583.0,32.000000
-33,-6,54,1625816583.0,32.000000
-33,-7,53,1625816583.0,32.000000
-34,-6,53,1625816583.0,32.000000
-34,-6,53,1625816583.0,32.000000
-34,-6,53,1625816583.0,32.000000
-33,-6,53,1625816583.0,32.000000
-33,-6,54,1625816583.0,32.000000
-33,-6,53,1625816583.0,32.000000
-33,-6,53,1625816583.0,32.000000
-32,-6,54,1625816583.0,32.000000
-33,-6,54,1625816583.0,32.000000
-33,-6,54,1625816583.0,32.000000
-33,-6,54,1625816583.0,32.000000
-33,-6,53,1625816583.0,32.000000
-33,-6,54,1625816583.0,32.000000
-33,-6,53,1625816583.0,32.000000
-33,-6,53,1625816583.0,32.000000
-33,-6,54,1625816583.0,32.000000
-33,-6,53,1625816583.0,32.000000
-33,-6,53,1625816583.0,32.000000
-34,-6,53,1625816583.0,32.000000
-34,-6,53,1625816583.0,32.000000
-34,-6,53,1625816583.0,32.000000
-34,-6,53,1625816583.0,32.000000
-34,-6,53,1625816583.0,32.000000
-34,-6,53,1625816583.0,32.000000
-34,-6,53,1625816583.0,32.000000
-35,-6,53,1625816583.0,32.000000
-34,-6,53,1625816583.0,32.000000
-34,-6,53,1625816583.0,32.000000
-34,-6,53,1625816583.0,32.000000
-34,-6,53,1625816583.0,32.000000
-35,-6,53,1625816583.0,32.000000
-34,-6,53,1625816583.0,32.000000
-35,-6,52,1625816583.0,32.000000
-34,-6,53,1625816583.0,32.000000
-35,-6,52,1625816583.0,32.000000
-37,-6,51,1625816583.0,32.000000
-35,-6,53,1625816583.0,32.000000
-31,-6,55,1625816583.0,32.000000
-31,-6,55,1625816583.0,32.000000
-33,-6,54,1625816583.0,32.000000
-33,-5,54,1625816583.0,32.000000
-32,-6,54,1625816583.0,32.000000
-32,-6,54,1625816583.0,32.000000
-32,-6,55,1625816583.0,32.000000
-31,-6,54,1625816583.0,32.000000
-32,-6,54,1625816583.0,32.000000
-33,-6,53,1625816583.0,32.000000
-33,-6,54,1625816583.0,32.000000
-33,-6,53,1625816583.0,32.000000
-34,-6,54,1625816583.0,32.000000
-33,-6,53,1625816583.0,32.000000
-31,-6,54,1625816583.0,32.000000
-32,-6,53,1625816583.0,32.000000
-34,-6,56,1625816583.0,32.000000
-29,-2,56,1625816583.0,32.000000
-33,-6,52,1625816583.0,32.000000
-34,-7,52,1625816583.0,32.000000
-32,-6,53,1625816583.0,32.000000
-31,-4,55,1625816583.0,32.000000
-34,-6,52,1625816583.0,32.000000
-33,-6,53,1625816583.0,32.000000
-31,-6,55,1625816583.0,32.000000
-32,-7,54,1625816583.0,32.000000
-33,-6,53,1625816583.0,32.000000
-31,-6,54,1625816583.0,32.000000
-32,-6,54,1625816583.0,32.000000
-33,-5,54,1625816583.0,32.000000
-32,-6,54,1625816583.0,32.000000
-30,-7,54,1625816583.0,32.000000
-32,-8,53,1625816583.0,32.000000
-34,-7,53,1625816583.0,32.000000
-33,-6,53,1625816583.0,32.000000
-32,-4,54,1625816583.0,32.000000
-37,-5,52,1625816583.0,32.000000
-35,-5,53,1625816583.0,32.000000
-30,-6,55,1625816583.0,32.000000
-33,-6,53,1625816583.0,32.000000
-35,-7,52,1625816583.0,32.000000
-26,-6,58,1625816583.0,32.000000
-25,-5,58,1625816583.0,32.000000
-33,-6,53,1625816583.0,32.000000
-36,-6,52,1625816583.0,32.000000
-31,-6,55,1625816583.0,32.000000
-26,-6,58,1625816583.0,32.000000
-29,-5,56,1625816583.0,32.000000
-34,-5,53,1625816583.0,32.000000
-25,-6,58,1625816583.0,32.000000
-25,-5,58,1625816583.0,32.000000
-29,-6,55,1625816583.0,32.000000
-25,-8,61,1625816583.0,32.000000
-24,-6,58,1625816583.0,32.000000
-26,-6,58,1625816583.0,32.000000
-25,-6,58,1625816583.0,32.000000
-27,-5,57,1625816583.0,32.000000
-29,-5,56,1625816583.0,32.000000
-26,-5,57,1625816583.0,32.000000
-26,-5,57,1625816583.0,32.000000
-25,-6,57,1625816583.0,32.000000
-25,-6,58,1625816583.0,32.000000
-30,-7,57,1625816583.0,32.000000
-24,-7,59,1625816583.0,32.000000
-24,-8,59,1625816583.0,32.000000
-26,-6,57,1625816583.0,32.000000
-26,-7,58,1625816583.0,32.000000
-24,-4,57,1625816583.0,32.000000
-22,-5,59,1625816583.0,32.000000
-25,-8,58,1625816583.0,32.000000
-26,-8,57,1625816583.0,32.000000
-27,-7,57,1625816583.0,32.000000
-28,-7,57,1625816583.0,32.000000
-29,-7,56,1625816583.0,32.000000
-31,-7,54,1625816583.0,32.000000
-34,-6,54,1625816583.0,32.000000
-33,-3,54,1625816583.0,32.000000
-33,-4,55,1625816583.0,32.000000
-29,-6,56,1625816583.0,32.000000
-29,-7,56,1625816583.0,32.000000
-26,-3,58,1625816583.0,32.000000
-26,-3,59,1625816583.0,32.000000
-34,-6,55,1625816583.0,32.000000
-33,-6,51,1625816583.0,32.000000
-37,-12,45,1625816583.0,32.000000
-31,-13,55,1625816583.0,32.000000
-25,-10,56,1625816583.0,32.000000
-27,-4,57,1625816583.0,32.000000
-32,-3,57,1625816583.0,32.000000
-31,-1,55,1625816583.0,32.000000
-28,-4,57,1625816583.0,32.000000
-24,-7,60,1625816583.0,32.000000
-28,-7,56,1625816583.0,32.000000
-27,-8,55,1625816583.0,32.000000
-26,-7,56,1625816583.0,32.000000
-23,-6,60,1625816583.0,32.000000
-22,-7,60,1625816583.0,32.000000
-20,-7,60,1625816583.0,32.000000
-24,-9,56,1625816583.0,32.000000
-26,-11,57,1625816583.0,32.000000
-32,-4,50,1625816583.0,32.000000
-36,-8,54,1625816583.0,32.000000
-30,-11,54,1625816583.0,32.000000
-27,-8,58,1625816583.0,32.000000
-29,-6,56,1625816583.0,32.000000
-33,-6,53,1625816583.0,32.000000
-31,-6,55,1625816583.0,32.000000
-28,-6,56,1625816583.0,32.000000
-28,-5,56,1625816583.0,32.000000
-27,-6,56,1625816583.0,32.000000
-27,-9,56,1625816583.0,32.000000
-29,-8,55,1625816583.0,32.000000
-30,-8,55,1625816583.0,32.000000
-31,-6,55,1625816583.0,32.000000
-31,-6,55,1625816583.0,32.000000
-31,-6,54,1625816583.0,32.000000
-33,-6,54,1625816583.0,32.000000
-33,-5,54,1625816583.0,32.000000
-31,-5,55,1625816583.0,32.000000
-32,-6,54,1625816583.0,32.000000
-34,-6,53,1625816583.0,32.000000
-34,-5,53,1625816583.0,32.000000
-35,-6,53,1625816583.0,32.000000
-36,-5,52,1625816583.0,32.000000
-35,-5,52,1625816583.0,32.000000
-35,-5,52,1625816583.0,32.000000
-35,-6,52,1625816583.0,32.000000
-35,-6,53,1625816583.0,32.000000
-35,-6,53,1625816583.0,32.000000
-36,-6,52,1625816583.0,32.000000
-35,-6,52,1625816583.0,32.000000
-35,-6,53,1625816583.0,32.000000
-35,-6,52,1625816583.0,32.000000
-35,-6,52,1625816583.0,32.000000
-35,-5,52,1625816583.0,32.000000
-36,-5,52,1625816583.0,32.000000
-35,-5,52,1625816583.0,32.000000
-34,-6,53,1625816583.0,32.000000
-34,-6,53,1625816583.0,32.000000
-34,-6,53,1625816583.0,32.000000
-34,-6,53,1625816583.0,32.000000
-34,-6,53,1625816583.0,32.000000
-36,-5,52,1625816583.0,32.000000
-35,-5,51,1625816583.0,32.000000
-35,-6,52,1625816583.0,32.000000
-34,-6,53,1625816583.0,32.000000
-33,-6,54,1625816583.0,32.000000
-33,-6,53,1625816583.0,32.000000
-33,-6,53,1625816583.0,32.000000
-34,-5,53,1625816583.0,32.000000
-35,-6,53,1625816583.0,32.000000
-33,-6,53,1625816583.0,32.000000
-32,-5,54,1625816583.0,32.000000
-33,-5,54,1625816583.0,32.000000
-34,-6,53,1625816583.0,32.000000
-33,-6,53,1625816583.0,32.000000
-33,-6,54,1625816583.0,32.000000
-34,-6,53,1625816583.0,32.000000
-34,-6,53,1625816583.0,32.000000
-33,-6,53,1625816583.0,32.000000
-34,-6,53,1625816583.0,32.000000
-34,-6,53,1625816583.0,32.000000
-33,-6,53,1625816583.0,32.000000
-35,-6,53,1625816583.0,32.000000
-34,-6,52,1625816583.0,32.000000
-34,-5,53,1625816583.0,32.000000
-34,-5,53,1625816583.0,32.000000
-35,-5,52,1625816583.0,32.000000
-34,-6,53,1625816583.0,32.000000
-34,-5,53,1625816583.0,32.000000
-34,-5,53,1625816583.0,32.000000
-32,-6,54,1625816583.0,32.000000
-32,-6,54,1625816583.0,32.000000
-32,-6,54,1625816583.0,32.000000
-32,-6,54,1625816583.0,32.000000
-30,-6,51,1625816583.0,32.000000
-37,-7,57,1625816583.0,32.000000
-23,-2,50,1625816583.0,32.000000
-34,-8,57,1625816583.0,32.000000
-28,-7,51,1625816583.0,32.000000
-32,-7,55,1625816583.0,32.000000
-36,-7,54,1625816583.0,32.000000
-33,-5,52,1625816583.0,32.000000
-32,-7,55,1625816583.0,32.000000
-31,-6,55,1625816583.0,32.000000
-32,-5,55,1625816583.0,32.000000
-34,-6,53,1625816583.0,32.000000
-34,-6,52,1625816583.0,32.000000
-33,-6,53,1625816583.0,32.000000
-33,-6,53,1625816583.0,32.000000
-33,-6,54,1625816583.0,32.000000
-34,-6,53,1625816583.0,32.000000
-34,-6,52,1625816583.0,32.000000
-35,-6,52,1625816583.0,32.000000
-35,-6,52,1625816583.0,32.000000
-35,-6,52,1625816583.0,32.000000
-34,-6,53,1625816583.0,32.000000
-34,-6,53,1625816583.0,32.000000
-35,-5,52,1625816583.0,32.000000
-35,-6,52,1625816583.0,32.000000
-34,-6,52,1625816583.0,32.000000
-34,-6,52,1625816583.0,32.000000
-35,-6,53,1625816583.0,32.000000
-34,-6,52,1625816583.0,32.000000
-34,-6,52,1625816583.0,32.000000
-35,-6,52,1625816583.0,32.000000
-35,-6,53,1625816583.0,32.000000
-34,-6,52,1625816583.0,32.000000
-34,-5,53,1625816583.0,32.000000
-35,-6,52,1625816583.0,32.000000
-35,-5,52,1625816583.0,32.000000
-34,-5,53,1625816583.0,32.000000
-36,-6,52,1625816583.0,32.000000
-36,-5,52,1625816583.0,32.000000
-35,-6,52,1625816583.0,32.000000
-35,-6,52,1625816583.0,32.000000
-36,-6,52,1625816583.0,32.000000
-35,-6,52,1625816583.0,32.000000
-35,-6,52,1625816583.0,32.000000
-35,-6,52,1625816583.0,32.000000
-35,-6,52,1625816583.0,32.000000
-35,-5,52,1625816583.0,32.000000
-35,-5,53,1625816583.0,32.000000
-35,-6,52,1625816583.0,32.000000
-35,-5,52,1625816583.0,32.000000
-35,-5,53,1625816583.0,32.000000
-35,-6,53,1625816583.0,32.000000
-35,-6,53,1625816583.0,32.000000
-35,-5,52,1625816583.0,32.000000
-35,-6,53,1625816583.0,32.000000
-35,-5,52,1625816583.0,32.000000
-35,-5,52,1625816583.0,32.000000
-35,-6,52,1625816583.0,32.000000
-35,-6,52,1625816583.0,32.000000
-35,-5,52,1625816583.0,32.000000
-35,-5,52,1625816583.0,32.000000
-35,-5,52,1625816583.0,32.000000
-35,-5,52,1625816583.0,32.000000
-36,-5,52,1625816583.0,32.000000
-35,-5,52,1625816583.0,32.000000
-35,-5,52,1625816583.0,32.000000
-35,-5,52,1625816583.0,32.000000
-35,-5,52,1625816583.0,32.000000
-35,-5,52,1625816583.0,32.000000
-35,-5,52,1625816583.0,32.000000
-35,-5,53,1625816583.0,32.000000
-35,-5,52,1625816583.0,32.000000
-35,-5,52,1625816583.0,32.000000
-35,-5,53,1625816583.0,32.000000
-35,-5,52,1625816583.0,32.000000
-35,-5,52,1625816583.0,32.000000
-35,-5,52,1625816583.0,32.000000
-35,-5,52,1625816583.0,32.000000
-35,-5,52,1625816583.0,32.000000
-36,-5,52,1625816583.0,32.000000
-35,-5,52,1625816583.0,32.000000
-35,-5,52,1625816583.0,32.000000
-36,-5,52,1625816583.0,32.000000
-35,-5,52,1625816583.0,32.000000
-35,-5,52,1625816583.0,32.000000
-36,-5,52,1625816583.0,32.000000
-36,-5,52,1625816583.0,32.000000
-36,-5,52,1625816583.0,32.000000
-36,-5,52,1625816583.0,32.000000
-35,-5,52,1625816583.0,32.000000
-35,-5,52,1625816583.0,32.000000
-35,-5,52,1625816583.0,32.000000
-36,-5,52,1625816583.0,32.000000
-35,-5,52,1625816583.0,32.000000
-35,-5,52,1625816583.0,32.000000
-35,-5,52,1625816583.0,32.000000
-35,-5,52,1625816583.0,32.000000
-36,-5,52,1625816583.0,32.000000
-36,-5,52,1625816583.0,32.000000
-35,-5,52,1625816583.0,32.000000
-36,-5,52,1625816583.0,32.000000
-36,-5,52,1625816583.0,32.000000
-35,-5,53,1625816583.0,32.000000
-35,-5,52,1625816583.0,32.000000
-35,-6,52,1625816583.0,32.000000
-35,-5,53,1625816583.0,32.000000
-35,-5,52,1625816583.0,32.000000
-35,-5,52,1625816583.0,32.000000
-36,-5,52,1625816583.0,32.000000
-36,-5,52,1625816583.0,32.000000
-36,-5,52,1625816583.0,32.000000
-35,-5,52,1625816583.0,32.000000
-35,-5,53,1625816583.0,32.000000
-35,-5,52,1625816583.0,32.000000
-35,-5,52,1625816583.0,32.000000
-36,-5,52,1625816583.0,32.000000
-36,-5,52,1625816583.0,32.000000
-35,-5,53,1625816583.0,32.000000
-34,-5,53,1625816583.0,32.000000
-36,-5,52,1625816583.0,32.000000
-35,-5,52,1625816583.0,32.000000
-35,-5,52,1625816583.0,32.000000
-35,-5,52,1625816583.0,32.000000
-35,-5,52,1625816583.0,32.000000
-35,-5,53,1625816583.0,32.000000
-35,-5,52,1625816583.0,32.000000
-35,-5,52,1625816583.0,32.000000
-35,-5,52,1625816583.0,32.000000
-35,-5,52,1625816583.0,32.000000
-35,-5,52,1625816583.0,32.000000
-35,-5,52,1625816583.0,32.000000
-35,-5,52,1625816583.0,32.000000
-35,-5,52,1625816583.0,32.000000
-35,-5,52,1625816583.0,32.000000
-35,-5,52,1625816583.0,32.000000
-36,-5,52,1625816583.0,32.000000
-35,-5,53,1625816583.0,32.000000
-35,-5,52,1625816583.0,32.000000
-36,-5,52,1625816583.0,32.000000
-35,-5,52,1625816583.0,32.000000
-36,-5,52,1625816583.0,32.000000
-35,-5,52,1625816583.0,32.000000
-35,-5,52,1625816583.0,32.000000
-33,-5,54,1625816583.0,32.000000
-34,-4,53,1625816583.0,32.000000
-36,-5,52,1625816583.0,32.000000
-34,-4,53,1625816583.0,32.000000
-31,-5,55,1625816583.0,32.000000
-36,-4,53,1625816583.0,32.000000
-35,-6,51,1625816583.0,32.000000
-32,-6,53,1625816583.0,32.000000
-28,-5,56,1625816583.0,32.000000
-31,-6,55,1625816583.0,32.000000
-35,-5,54,1625816583.0,32.000000
-29,-4,54,1625816583.0,32.000000
-29,-5,55,1625816583.0,32.000000
-34,-7,53,1625816583.0,32.000000
-35,-8,52,1625816583.0,32.000000
-31,-7,55,1625816583.0,32.000000
-33,-7,54,1625816583.0,32.000000
-39,-6,58,1625816583.0,32.000000
-35,-4,55,1625816583.0,32.000000
-12,-2,62,1625816583.0,32.000000
-18,-1,41,1625816583.0,32.000000
-30,-9,38,1625816583.0,32.000000
-33,-18,57,1625816583.0,32.000000
-22,0,63,1625816583.0,32.000000
-35,-4,55,1625816583.0,32.000000
-35,-7,54,1625816583.0,32.000000
-34,-8,52,1625816583.0,32.000000
-35,-7,53,1625816583.0,32.000000
-30,-7,55,1625816583.0,32.000000
-33,-4,54,1625816583.0,32.000000
-37,-5,52,1625816583.0,32.000000
-33,-4,54,1625816583.0,32.000000
-33,-5,53,1625816583.0,32.000000
-34,-5,53,1625816583.0,32.000000
-34,-5,53,1625816583.0,32.000000
-34,-5,53,1625816583.0,32.000000
-33,-5,53,1625816583.0,32.000000
-33,-5,53,1625816583.0,32.000000
-34,-5,53,1625816583.0,32.000000
-34,-5,53,1625816583.0,32.000000
-33,-5,53,1625816583.0,32.000000
-34,-4,53,1625816583.0,32.000000
-34,-5,53,1625816583.0,32.000000
-34,-5,53,1625816583.0,32.000000
-34,-5,53,1625816583.0,32.000000
-34,-5,53,1625816583.0,32.000000
-34,-5,53,1625816583.0,32.000000
-34,-5,53,1625816583.0,32.000000
-34,-5,53,1625816583.0,32.000000
-34,-4,53,1625816583.0,32.000000
-34,-5,53,1625816583.0,32.000000
-34,-5,53,1625816583.0,32.000000
-34,-5,53,1625816583.0,32.000000
-35,-5,53,1625816583.0,32.000000
-34,-5,53,1625816583.0,32.000000
-34,-5,53,1625816583.0,32.000000
-34,-5,53,1625816583.0,32.000000
-35,-5,53,1625816583.0,32.000000
-34,-5,53,1625816583.0,32.000000
-34,-5,52,1625816583.0,32.000000
-34,-5,53,1625816583.0,32.000000
-34,-5,53,1625816583.0,32.000000
-35,-5,52,1625816583.0,32.000000
-34,-5,53,1625816583.0,32.000000
-34,-5,53,1625816583.0,32.000000
-34,-5,53,1625816583.0,32.000000
-35,-5,53,1625816583.0,32.000000
-34,-5,53,1625816583.0,32.000000
-35,-5,53,1625816583.0,32.000000
-35,-5,52,1625816583.0,32.000000
-34,-5,53,1625816583.0,32.000000
-35,-5,53,1625816583.0,32.000000
-34,-5,53,1625816583.0,32.000000
-35,-5,53,1625816583.0,32.000000
-34,-5,53,1625816583.0,32.000000
-34,-5,53,1625816583.0,32.000000
-35,-5,52,1625816583.0,32.000000
-35,-5,53,1625816583.0,32.000000
-35,-5,53,1625816583.0,32.000000
-35,-5,53,1625816583.0,32.000000
-34,-5,53,1625816583.0,32.000000
-35,-5,52,1625816583.0,32.000000
-35,-5,52,1625816583.0,32.000000
-35,-5,53,1625816583.0,32.000000
-35,-5,52,1625816583.0,32.000000
-35,-5,52,1625816583.0,32.000000
-35,-5,52,1625816583.0,32.000000
-35,-5,52,1625816583.0,32.000000
-35,-5,53,1625816583.0,32.000000
-35,-5,53,1625816583.0,32.000000
-35,-5,53,1625816583.0,32.000000
-35,-5,52,1625816583.0,32.000000
-35,-5,52,1625816583.0,32.000000
-35,-5,53,1625816583.0,32.000000
-35,-5,53,1625816583.0,32.000000
-35,-5,53,1625816583.0,32.000000
-35,-5,53,1625816583.0,32.000000
-35,-4,53,1625816583.0,32.000000
-35,-5,52,1625816583.0,32.000000
-35,-5,53,1625816583.0,32.000000
-35,-5,52,1625816583.0,32.000000
-35,-5,52,1625816583.0,32.000000
-35,-5,52,1625816583.0,32.000000
-35,-5,52,1625816583.0,32.000000
-35,-4,52,1625816583.0,32.000000
-35,-5,52,1625816583.0,32.000000
-35,-5,52,1625816583.0,32.000000
-35,-5,52,1625816583.0,32.000000
-35,-4,52,1625816583.0,32.000000
-35,-5,52,1625816583.0,32.000000
-35,-4,53,1625816583.0,32.000000
-35,-5,52,1625816583.0,32.000000
-35,-4,52,1625816583.0,32.000000
-35,-4,52,1625816583.0,32.000000
-35,-5,52,1625816583.0,32.000000
-35,-5,52,1625816583.0,32.000000
-35,-4,52,1625816583.0,32.000000
-35,-5,52,1625816583.0,32.000000
-35,-5,52,1625816583.0,32.000000
-35,-5,52,1625816583.0,32.000000
-35,-4,52,1625816583.0,32.000000
-35,-5,52,1625816583.0,32.000000
-35,-5,52,1625816583.0,32.000000
-36,-5,52,1625816583.0,32.000000
-35,-5,52,1625816583.0,32.000000
-35,-5,52,1625816583.0,32.000000
-35,-5,52,1625816583.0,32.000000
-35,-5,52,1625816583.0,32.000000
-35,-5,52,1625816583.0,32.000000
-36,-5,52,1625816583.0,32.000000
-36,-4,52,1625816583.0,32.000000
-36,-4,52,1625816583.0,32.000000
-36,-4,52,1625816583.0,32.000000
-36,-4,52,1625816583.0,32.000000
-35,-4,52,1625816583.0,32.000000
-35,-5,52,1625816583.0,32.000000
-35,-4,52,1625816583.0,32.000000
-36,-5,52,1625816583.0,32.000000
-35,-4,52,1625816583.0,32.000000
-35,-4,52,1625816583.0,32.000000
-36,-4,52,1625816583.0,32.000000
-35,-4,52,1625816583.0,32.000000
-36,-4,52,1625816583.0,32.000000
-35,-5,52,1625816583.0,32.000000
-35,-4,52,1625816583.0,32.000000
-36,-4,52,1625816583.0,32.000000
-35,-4,52,1625816583.0,32.000000
-35,-4,53,1625816583.0,32.000000
-35,-5,52,1625816583.0,32.000000
-36,-4,52,1625816583.0,32.000000
-36,-4,52,1625816583.0,32.000000
-36,-5,52,1625816583.0,32.000000
-36,-4,52,1625816583.0,32.000000
-36,-5,52,1625816583.0,32.000000
-36,-5,52,1625816583.0,32.000000
-36,-4,52,1625816583.0,32.000000
-36,-4,52,1625816583.0,32.000000
-36,-4,52,1625816583.0,32.000000
-36,-4,52,1625816583.0,32.000000
-35,-5,52,1625816583.0,32.000000
-35,-5,52,1625816583.0,32.000000
-35,-4,52,1625816583.0,32.000000
-36,-4,52,1625816583.0,32.000000
-35,-5,52,1625816583.0,32.000000
-36,-5,52,1625816583.0,32.000000
-36,-5,52,1625816583.0,32.000000
-36,-4,52,1625816583.0,32.000000
-35,-5,52,1625816583.0,32.000000
-36,-4,52,1625816583.0,32.000000
-36,-4,52,1625816583.0,32.000000
-36,-4,52,1625816583.0,32.000000
-35,-4,52,1625816583.0,32.000000
-35,-4,52,1625816583.0,32.000000
-35,-5,52,1625816583.0,32.000000
-36,-4,52,1625816583.0,32.000000
-36,-5,52,1625816583.0,32.000000
-36,-4,52,1625816583.0,32.000000
-36,-4,53,1625816583.0,32.000000
-34,-5,50,1625816583.0,32.000000
-36,-6,52,1625816583.0,32.000000
-34,-4,51,1625816583.0,32.000000
-36,-4,52,1625816583.0,32.000000
-37,-5,53,1625816583.0,32.000000
-36,-5,52,1625816583.0,32.000000
-34,-6,54,1625816583.0,32.000000
-35,-4,52,1625816583.0,32.000000
-36,-5,52,1625816583.0,32.000000
-34,-5,53,1625816583.0,32.000000
-33,-5,53,1625816583.0,32.000000
-35,-4,53,1625816583.0,32.000000
-34,-5,53,1625816583.0,32.000000
-34,-5,53,1625816583.0,32.000000
-36,-4,51,1625816583.0,32.000000
-37,-5,52,1625816583.0,32.000000
-34,-4,53,1625816583.0,32.000000
-36,-4,52,1625816583.0,32.000000
-36,-4,52,1625816583.0,32.000000
-33,-5,53,1625816583.0,32.000000
-35,-4,53,1625816583.0,32.000000
-36,-4,52,1625816583.0,32.000000
-37,-5,50,1625816583.0,32.000000
-37,-5,50,1625816583.0,32.000000
-32,-4,54,1625816583.0,32.000000
-34,-6,52,1625816583.0,32.000000
-36,-6,52,1625816583.0,32.000000
-34,-5,55,1625816583.0,32.000000
-35,-4,52,1625816583.0,32.000000
-35,-4,52,1625816583.0,32.000000
-33,-4,52,1625816583.0,32.000000
-35,-5,53,1625816583.0,32.000000
-36,-3,53,1625816583.0,32.000000
-34,-5,52,1625816583.0,32.000000
-34,-6,53,1625816583.0,32.000000
-34,-4,53,1625816583.0,32.000000
-34,-4,54,1625816583.0,32.000000
-33,-4,53,1625816583.0,32.000000
-33,-5,53,1625816583.0,32.000000
-31,-5,55,1625816583.0,32.000000
-31,-4,55,1625816583.0,32.000000
-32,-5,54,1625816583.0,32.000000
-32,-4,54,1625816583.0,32.000000
-34,-5,53,1625816583.0,32.000000
-33,-5,54,1625816583.0,32.000000
-33,-4,54,1625816583.0,32.000000
-31,-5,54,1625816583.0,32.000000
-31,-6,54,1625816583.0,32.000000
-32,-5,54,1625816583.0,32.000000
-32,-5,54,1625816583.0,32.000000
-30,-5,55,1625816583.0,32.000000
-27,-6,57,1625816583.0,32.000000
-27,-5,57,1625816583.0,32.000000
-30,-5,56,1625816583.0,32.000000
-28,-5,57,1625816583.0,32.000000
-27,-5,57,1625816583.0,32.000000
-27,-5,57,1625816583.0,32.000000
-28,-4,58,1625816583.0,32.000000
-30,-5,54,1625816583.0,32.000000
-30,-6,56,1625816583.0,32.000000
-29,-5,58,1625816583.0,32.000000
-29,-3,51,1625816583.0,32.000000
-29,-9,56,1625816583.0,32.000000
-25,-9,59,1625816583.0,32.000000
-40,-5,61,1625816583.0,32.000000
-34,-15,60,1625816583.0,32.000000
-11,-2,50,1625816583.0,32.000000
-14,-10,52,1625816583.0,32.000000
-28,-7,46,1625816583.0,32.000000
-32,-8,54,1625816583.0,32.000000
-26,-9,70,1625816583.0,32.000000
-26,-5,55,1625816583.0,32.000000
-32,-7,54,1625816583.0,32.000000
-27,-7,56,1625816583.0,32.000000
-27,-7,57,1625816583.0,32.000000
-28,-6,57,1625816583.0,32.000000
-27,-5,56,1625816583.0,32.000000
-29,-5,56,1625816583.0,32.000000
-29,-5,56,1625816583.0,32.000000
-28,-5,56,1625816583.0,32.000000
-28,-5,57,1625816583.0,32.000000
-29,-6,56,1625816583.0,32.000000
-28,-6,56,1625816583.0,32.000000
-29,-5,56,1625816583.0,32.000000
-30,-6,55,1625816583.0,32.000000
-29,-5,55,1625816583.0,32.000000
-30,-6,55,1625816583.0,32.000000
-29,-5,56,1625816583.0,32.000000
-28,-5,57,1625816583.0,32.000000
-28,-6,56,1625816583.0,32.000000
-27,-5,57,1625816583.0,32.000000
-26,-5,57,1625816583.0,32.000000
-28,-5,56,1625816583.0,32.000000
-28,-6,56,1625816583.0,32.000000
-27,-5,57,1625816583.0,32.000000
-28,-6,55,1625816583.0,32.000000
-28,-6,56,1625816583.0,32.000000
-27,-5,56,1625816583.0,32.000000
-27,-6,56,1625816583.0,32.000000
-32,-5,60,1625816583.0,32.000000
-26,-4,53,1625816583.0,32.000000
-22,-4,60,1625816583.0,32.000000
-19,-11,61,1625816583.0,32.000000
-18,-10,42,1625816583.0,32.000000
-20,-8,46,1625816583.0,32.000000
-28,0,54,1625816583.0,32.000000
-31,-6,55,1625816583.0,32.000000
-29,-4,56,1625816583.0,32.000000
-29,-7,55,1625816583.0,32.000000
-26,-6,57,1625816583.0,32.000000
-29,-6,55,1625816583.0,32.000000
-30,-5,55,1625816583.0,32.000000
-30,-6,57,1625816583.0,32.000000
-29,-6,56,1625816583.0,32.000000
-31,-5,55,1625816583.0,32.000000
-29,-5,56,1625816583.0,32.000000
-29,-5,56,1625816583.0,32.000000
-30,-5,55,1625816583.0,32.000000
-29,-5,56,1625816583.0,32.000000
-28,-5,56,1625816583.0,32.000000
-29,-5,56,1625816583.0,32.000000
-30,-5,56,1625816583.0,32.000000
-30,-5,55,1625816583.0,32.000000
-29,-5,56,1625816583.0,32.000000
-30,-5,56,1625816583.0,32.000000
-30,-5,55,1625816583.0,32.000000
-30,-5,55,1625816583.0,32.000000
-30,-5,56,1625816583.0,32.000000
-30,-5,55,1625816583.0,32.000000
-30,-5,55,1625816583.0,32.000000
-30,-5,55,1625816583.0,32.000000
-30,-5,55,1625816583.0,32.000000
-30,-5,55,1625816583.0,32.000000
-30,-5,55,1625816583.0,32.000000
-30,-5,55,1625816583.0,32.000000
-30,-5,55,1625816583.0,32.000000
-30,-5,55,1625816583.0,32.000000
-30,-5,55,1625816583.0,32.000000
-30,-5,55,1625816583.0,32.000000
-30,-5,55,1625816583.0,32.000000
-30,-5,55,1625816583.0,32.000000
-30,-5,55,1625816583.0,32.000000
-30,-5,55,1625816583.0,32.000000
-30,-5,55,1625816583.0,32.000000
-30,-5,55,1625816583.0,32.000000
-30,-5,55,1625816583.0,32.000000
-30,-5,56,1625816583.0,32.000000
-32,-5,55,1625816583.0,32.000000
-30,-6,54,1625816583.0,32.000000
-29,-5,55,1625816583.0,32.000000
-29,-5,56,1625816583.0,32.000000
-30,-5,55,1625816583.0,32.000000
-29,-5,56,1625816583.0,32.000000
-29,-6,56,1625816583.0,32.000000
-29,-6,56,1625816583.0,32.000000
-28,-5,56,1625816583.0,32.000000
-31,-4,56,1625816583.0,32.000000
-39,-4,55,1625816583.0,32.000000
-36,-11,51,1625816583.0,32.000000
-17,-9,59,1625816583.0,32.000000
-25,-8,51,1625816583.0,32.000000
-26,-9,49,1625816583.0,32.000000
-24,-9,51,1625816583.0,32.000000
-20,-6,51,1625816583.0,32.000000
-22,-16,67,1625816583.0,32.000000
-29,-5,58,1625816583.0,32.000000
-29,-3,54,1625816583.0,32.000000
-30,-7,55,1625816583.0,32.000000
-27,-7,55,1625816583.0,32.000000
-25,-7,57,1625816583.0,32.000000
-30,-5,56,1625816583.0,32.000000
-30,-6,56,1625816583.0,32.000000
-29,-6,56,1625816583.0,32.000000
-30,-5,55,1625816583.0,32.000000
-29,-6,56,1625816583.0,32.000000
-28,-5,56,1625816583.0,32.000000
-28,-5,56,1625816583.0,32.000000
-29,-5,56,1625816583.0,32.000000
-28,-5,56,1625816583.0,32.000000
-28,-5,56,1625816583.0,32.000000
-28,-5,56,1625816583.0,32.000000
-29,-5,56,1625816583.0,32.000000
-30,-5,55,1625816583.0,32.000000
-29,-5,56,1625816583.0,32.000000
-29,-5,56,1625816583.0,32.000000
-30,-5,55,1625816583.0,32.000000
-31,-5,55,1625816583.0,32.000000
-30,-5,55,1625816583.0,32.000000
-29,-5,56,1625816583.0,32.000000
-30,-5,56,1625816583.0,32.000000
-30,-5,55,1625816583.0,32.000000
-30,-5,55,1625816583.0,32.000000
-29,-5,55,1625816583.0,32.000000
-29,-5,56,1625816583.0,32.000000
-31,-5,55,1625816583.0,32.000000
-30,-5,55,1625816583.0,32.000000
-30,-5,55,1625816583.0,32.000000
-30,-5,55,1625816583.0,32.000000
-30,-5,55,1625816583.0,32.000000
-30,-5,55,1625816583.0,32.000000
-30,-5,55,1625816583.0,32.000000
-30,-5,55,1625816583.0,32.000000
-29,-5,56,1625816583.0,32.000000
-29,-5,56,1625816583.0,32.000000
-30,-5,55,1625816583.0,32.000000
-31,-5,54,1625816583.0,32.000000
-31,-5,55,1625816583.0,32.000000
-32,-5,54,1625816583.0,32.000000
-27,-5,57,1625816583.0,32.000000
-33,-6,54,1625816583.0,32.000000
-31,-5,54,1625816583.0,32.000000
-30,-5,55,1625816583.0,32.000000
-30,-5,55,1625816583.0,32.000000
-30,-5,55,1625816583.0,32.000000
-30,-5,55,1625816583.0,32.000000
-30,-5,55,1625816583.0,32.000000
-30,-5,55,1625816583.0,32.000000
-31,-5,54,1625816583.0,32.000000
-33,-5,54,1625816583.0,32.000000
-29,-5,55,1625816583.0,32.000000
-27,-4,56,1625816583.0,32.000000
-24,-4,59,1625816583.0,32.000000
-26,-5,58,1625816583.0,32.000000
-27,-4,57,1625816583.0,32.000000
-34,-7,57,1625816583.0,32.000000
-33,-2,56,1625816583.0,32.000000
-25,-5,59,1625816583.0,32.000000
-22,-5,58,1625816583.0,32.000000
-29,-7,52,1625816583.0,32.000000
-29,-8,42,1625816583.0,32.000000
-32,-13,59,1625816583.0,32.000000
-35,8,76,1625816583.0,32.000000
-32,-3,57,1625816583.0,32.000000
-34,-7,55,1625816583.0,32.000000
-33,-8,53,1625816583.0,32.000000
-31,-6,55,1625816583.0,32.000000
-29,-6,55,1625816583.0,32.000000
-27,-5,56,1625816583.0,32.000000
-29,-6,55,1625816583.0,32.000000
-28,-6,56,1625816583.0,32.000000
-29,-5,56,1625816583.0,32.000000
-30,-5,56,1625816583.0,32.000000
-30,-5,56,1625816583.0,32.000000
-30,-5,55,1625816583.0,32.000000
-29,-5,56,1625816583.0,32.000000
-29,-5,56,1625816583.0,32.000000
-30,-5,55,1625816583.0,32.000000
-30,-5,55,1625816583.0,32.000000
-30,-5,55,1625816583.0,32.000000
-31,-5,55,1625816583.0,32.000000
-30,-5,55,1625816583.0,32.000000
-29,-5,55,1625816583.0,32.000000
-30,-5,55,1625816583.0,32.000000
-30,-5,55,1625816583.0,32.000000
-30,-5,55,1625816583.0,32.000000
-30,-6,55,1625816583.0,32.000000
-30,-5,55,1625816583.0,32.000000
-30,-5,55,1625816583.0,32.000000
-30,-5,56,1625816583.0,32.000000
-30,-5,55,1625816583.0,32.000000
-30,-5,55,1625816583.0,32.000000
-30,-5,55,1625816583.0,32.000000
-31,-5,55,1625816583.0,32.000000
-30,-5,55,1625816583.0,32.000000
-30,-5,55,1625816583.0,32.000000
-30,-4,55,1625816583.0,32.000000
-30,-5,55,1625816583.0,32.000000
-29,-5,55,1625816583.0,32.000000
-30,-5,55,1625816583.0,32.000000
-30,-5,55,1625816583.0,32.000000
-30,-5,55,1625816583.0,32.000000
-30,-5,55,1625816583.0,32.000000
-30,-5,55,1625816583.0,32.000000
-30,-5,55,1625816583.0,32.000000
-30,-5,55,1625816583.0,32.000000
-30,-5,55,1625816583.0,32.000000
-30,-5,55,1625816583.0,32.000000
-30,-5,55,1625816583.0,32.000000
-30,-5,55,1625816583.0,32.000000
-30,-5,55,1625816583.0,32.000000
-31,-5,55,1625816583.0,32.000000
-30,-5,55,1625816583.0,32.000000
-29,-5,56,1625816583.0,32.000000
-29,-5,55,1625816583.0,32.000000
-29,-4,56,1625816583.0,32.000000
-31,-5,55,1625816583.0,32.000000
-29,-5,55,1625816583.0,32.000000
-29,-5,56,1625816583.0,32.000000
-30,-5,55,1625816583.0,32.000000
-30,-4,56,1625816583.0,32.000000
-34,-4,59,1625816583.0,32.000000
-28,-2,58,1625816583.0,32.000000
-27,-4,56,1625816583.0,32.000000
-24,-7,58,1625816583.0,32.000000
-26,-7,48,1625816583.0,32.000000
-31,-6,45,1625816583.0,32.000000
-30,-2,54,1625816583.0,32.000000
-29,-6,67,1625816583.0,32.000000
-25,1,61,1625816583.0,32.000000
-30,-5,54,1625816583.0,32.000000
-32,-6,54,1625816583.0,32.000000
-31,-7,54,1625816583.0,32.000000
-29,-8,55,1625816583.0,32.000000
-25,-5,57,1625816583.0,32.000000
-30,-6,55,1625816583.0,32.000000
-30,-5,55,1625816583.0,32.000000
-29,-5,56,1625816583.0,32.000000
-30,-5,55,1625816583.0,32.000000
-30,-5,55,1625816583.0,32.000000
-29,-6,55,1625816583.0,32.000000
-29,-5,56,1625816583.0,32.000000
-29,-6,56,1625816583.0,32.000000
-30,-6,55,1625816583.0,32.000000
-30,-5,55,1625816583.0,32.000000
-31,-6,55,1625816583.0,32.000000
-30,-5,55,1625816583.0,32.000000
-30,-5,55,1625816583.0,32.000000
-30,-5,55,1625816583.0,32.000000
-30,-5,55,1625816583.0,32.000000
-30,-5,55,1625816583.0,32.000000
-30,-5,55,1625816583.0,32.000000
-30,-6,55,1625816583.0,32.000000
-30,-6,55,1625816583.0,32.000000
-30,-5,55,1625816583.0,32.000000
-30,-5,55,1625816583.0,32.000000
-30,-5,55,1625816583.0,32.000000
-30,-6,55,1625816583.0,32.000000
-30,-5,55,1625816583.0,32.000000
-30,-5,55,1625816583.0,32.000000
-30,-5,55,1625816583.0,32.000000
-30,-5,55,1625816583.0,32.000000
-30,-5,55,1625816583.0,32.000000
-30,-5,55,1625816583.0,32.000000
-30,-6,55,1625816583.0,32.000000
-31,-6,55,1625816583.0,32.000000
-30,-5,55,1625816583.0,32.000000
-30,-6,55,1625816583.0,32.000000
-30,-5,55,1625816583.0,32.000000
-31,-5,55,1625816583.0,32.000000
-29,-5,55,1625816583.0,32.000000
-29,-6,55,1625816583.0,32.000000
-30,-5,55,1625816583.0,32.000000
-30,-5,55,1625816583.0,32.000000
-30,-5,55,1625816583.0,32.000000
-31,-5,55,1625816583.0,32.000000
-30,-5,55,1625816583.0,32.000000
-30,-5,55,1625816583.0,32.000000
-30,-5,56,1625816583.0,32.000000
-37,-2,58,1625816583.0,32.000000
-25,-5,60,1625816583.0,32.000000
-24,-6,62,1625816583.0,32.000000
-28,-9,53,1625816583.0,32.000000
-26,-9,49,1625816583.0,32.000000
-22,-9,52,1625816583.0,32.000000
-16,-5,54,1625816583.0,32.000000
-22,-5,51,1625816583.0,32.000000
-36,-12,66,1625816583.0,32.000000
-27,-5,60,1625816583.0,32.000000
-26,-6,55,1625816583.0,32.000000
-28,-7,56,1625816583.0,32.000000
-26,-7,55,1625816583.0,32.000000
-27,-6,56,1625816583.0,32.000000
-27,-4,58,1625816583.0,32.000000
-29,-6,57,1625816583.0,32.000000
-30,-6,55,1625816583.0,32.000000
-27,-5,57,1625816583.0,32.000000
-27,-5,57,1625816583.0,32.000000
-27,-5,57,1625816583.0,32.000000
-28,-5,56,1625816583.0,32.000000
-28,-5,57,1625816583.0,32.000000
-28,-5,56,1625816583.0,32.000000
-29,-5,56,1625816583.0,32.000000
-28,-5,56,1625816583.0,32.000000
-28,-5,56,1625816583.0,32.000000
-28,-5,56,1625816583.0,32.000000
-28,-5,56,1625816583.0,32.000000
-28,-5,56,1625816583.0,32.000000
-28,-5,56,1625816583.0,32.000000
-28,-5,56,1625816583.0,32.000000
-28,-5,56,1625816583.0,32.000000
-28,-5,56,1625816583.0,32.000000
-27,-5,56,1625816583.0,32.000000
-28,-5,56,1625816583.0,32.000000
-28,-5,56,1625816583.0,32.000000
-28,-5,56,1625816583.0,32.000000
-28,-5,56,1625816583.0,32.000000
-28,-5,56,1625816583.0,32.000000
-29,-5,56,1625816583.0,32.000000
-28,-5,56,1625816583.0,32.000000
-28,-5,57,1625816583.0,32.000000
-28,-5,56,1625816583.0,32.000000
-28,-5,56,1625816583.0,32.000000
-28,-5,56,1625816583.0,32.000000
-28,-5,56,1625816583.0,32.000000
-28,-5,56,1625816583.0,32.000000
-28,-5,56,1625816583.0,32.000000
-28,-5,56,1625816583.0,32.000000
-28,-5,56,1625816583.0,32.000000
-27,-5,56,1625816583.0,32.000000
-27,-5,57,1625816583.0,32.000000
-28,-5,56,1625816583.0,32.000000
-28,-5,57,1625816583.0,32.000000
-28,-5,56,1625816583.0,32.000000
-27,-5,56,1625816583.0,32.000000
-27,-5,57,1625816583.0,32.000000
-26,-5,57,1625816583.0,32.000000
-28,-5,56,1625816583.0,32.000000
-28,-5,56,1625816583.0,32.000000
-27,-5,57,1625816583.0,32.000000
-27,-5,57,1625816583.0,32.000000
-30,-5,57,1625816583.0,32.000000
-28,-5,55,1625816583.0,32.000000
-31,-3,61,1625816583.0,32.000000
-29,-3,63,1625816583.0,32.000000
-21,-11,63,1625816583.0,32.000000
-19,-1,61,1625816583.0,32.000000
-34,-14,47,1625816583.0,32.000000
-17,-10,54,1625816583.0,32.000000
-13,-10,58,1625816583.0,32.000000
-17,-6,53,1625816583.0,32.000000
-22,-5,46,1625816583.0,32.000000
-40,-17,82,1625816583.0,32.000000
-22,-3,60,1625816583.0,32.000000
-32,-8,57,1625816583.0,32.000000
-27,-9,56,1625816583.0,32.000000
-25,-8,56,1625816583.0,32.000000
-24,-5,59,1625816583.0,32.000000
-28,-6,57,1625816583.0,32.000000
-27,-6,57,1625816583.0,32.000000
-24,-5,57,1625816583.0,32.000000
-28,-5,56,1625816583.0,32.000000
-27,-5,57,1625816583.0,32.000000
-26,-5,57,1625816583.0,32.000000
-26,-5,57,1625816583.0,32.000000
-28,-6,56,1625816583.0,32.000000
-28,-5,57,1625816583.0,32.000000
-28,-5,56,1625816583.0,32.000000
-29,-5,56,1625816583.0,32.000000
-29,-6,56,1625816583.0,32.000000
-28,-6,56,1625816583.0,32.000000
-28,-6,56,1625816583.0,32.000000
-28,-5,56,1625816583.0,32.000000
-29,-5,56,1625816583.0,32.000000
-27,-5,56,1625816583.0,32.000000
-27,-5,56,1625816583.0,32.000000
-29,-5,56,1625816583.0,32.000000
-29,-5,56,1625816583.0,32.000000
-28,-5,56,1625816583.0,32.000000
-29,-5,56,1625816583.0,32.000000
-29,-5,56,1625816583.0,32.000000
-29,-5,56,1625816583.0,32.000000
-29,-6,56,1625816583.0,32.000000
-28,-5,56,1625816583.0,32.000000
-28,-5,56,1625816583.0,32.000000
-29,-5,56,1625816583.0,32.000000
-28,-5,56,1625816583.0,32.000000
-28,-5,56,1625816583.0,32.000000
-29,-5,56,1625816583.0,32.000000
-28,-5,56,1625816583.0,32.000000
-28,-5,56,1625816583.0,32.000000
-29,-5,56,1625816583.0,32.000000
-28,-5,56,1625816583.0,32.000000
-29,-5,56,1625816583.0,32.000000
-29,-5,56,1625816583.0,32.000000
-28,-5,56,1625816583.0,32.000000
-28,-6,56,1625816583.0,32.000000
-28,-5,56,1625816583.0,32.000000
-28,-5,56,1625816583.0,32.000000
-28,-5,57,1625816583.0,32.000000
-29,-5,56,1625816583.0,32.000000
-29,-5,56,1625816583.0,32.000000
-29,-6,55,1625816583.0,32.000000
-29,-5,55,1625816583.0,32.000000
-27,-5,57,1625816583.0,32.000000
-33,-5,54,1625816583.0,32.000000
-30,-6,55,1625816583.0,32.000000
-27,-5,56,1625816583.0,32.000000
-22,-4,60,1625816583.0,32.000000
-29,-6,55,1625816583.0,32.000000
-26,-4,58,1625816583.0,32.000000
-27,-5,57,1625816583.0,32.000000
-38,-5,61,1625816583.0,32.000000
-33,-1,57,1625816583.0,32.000000
-13,-6,59,1625816583.0,32.000000
-24,-12,55,1625816583.0,32.000000
-27,-8,49,1625816583.0,32.000000
-30,-8,48,1625816583.0,32.000000
-24,-6,52,1625816583.0,32.000000
-34,-7,75,1625816583.0,32.000000
-20,0,65,1625816583.0,32.000000
-28,-9,53,1625816583.0,32.000000
-34,-8,53,1625816583.0,32.000000
-31,-6,55,1625816583.0,32.000000
-27,-6,57,1625816583.0,32.000000
-28,-9,54,1625816583.0,32.000000
-26,-8,56,1625816583.0,32.000000
-25,-9,57,1625816583.0,32.000000
-23,-6,61,1625816583.0,32.000000
-24,-6,58,1625816583.0,32.000000
-26,-6,58,1625816583.0,32.000000
-26,-5,58,1625816583.0,32.000000
-25,-5,58,1625816583.0,32.000000
-24,-5,59,1625816583.0,32.000000
-25,-6,58,1625816583.0,32.000000
-25,-5,57,1625816583.0,32.000000
-26,-5,57,1625816583.0,32.000000
-27,-6,57,1625816583.0,32.000000
-26,-6,57,1625816583.0,32.000000
-26,-6,57,1625816583.0,32.000000
-26,-6,57,1625816583.0,32.000000
-27,-6,56,1625816583.0,32.000000
-28,-6,56,1625816583.0,32.000000
-27,-6,57,1625816583.0,32.000000
-27,-6,56,1625816583.0,32.000000
-26,-6,57,1625816583.0,32.000000
-27,-6,57,1625816583.0,32.000000
-26,-6,57,1625816583.0,32.000000
-26,-5,57,1625816583.0,32.000000
-27,-6,57,1625816583.0,32.000000
-27,-6,57,1625816583.0,32.000000
-26,-6,57,1625816583.0,32.000000
-26,-6,57,1625816583.0,32.000000
-27,-5,57,1625816583.0,32.000000
-27,-6,58,1625816583.0,32.000000
-26,-7,57,1625816583.0,32.000000
-25,-7,57,1625816583.0,32.000000
-25,-6,58,1625816583.0,32.000000
-26,-6,57,1625816583.0,32.000000
-25,-6,58,1625816583.0,32.000000
-26,-5,58,1625816583.0,32.000000
-28,-6,56,1625816583.0,32.000000
-26,-6,57,1625816583.0,32.000000
-25,-6,58,1625816583.0,32.000000
-27,-6,57,1625816583.0,32.000000
-27,-6,57,1625816583.0,32.000000
-29,-5,60,1625816583.0,32.000000
-27,-7,55,1625816583.0,32.000000
-27,-7,55,1625816583.0,32.000000
-23,-6,58,1625816583.0,32.000000
-22,-6,61,1625816583.0,32.000000
-26,-7,56,1625816583.0,32.000000
-24,-7,60,1625816583.0,32.000000
-21,-7,58,1625816583.0,32.000000
-39,-9,61,1625816583.0,32.000000
-10,1,65,1625816583.0,32.000000
-22,-1,53,1625816583.0,32.000000
-25,-14,49,1625816583.0,32.000000
-17,-13,50,1625816583.0,32.000000
-13,-12,46,1625816583.0,32.000000
-29,-29,78,1625816583.0,32.000000
-37,15,79,1625816583.0,32.000000
-25,-5,62,1625816583.0,32.000000
-27,-7,54,1625816583.0,32.000000
-23,-10,56,1625816583.0,32.000000
-21,-11,59,1625816583.0,32.000000
-23,-8,58,1625816583.0,32.000000
-26,-6,59,1625816583.0,32.000000
-26,-7,57,1625816583.0,32.000000
-24,-6,59,1625816583.0,32.000000
-25,-7,58,1625816583.0,32.000000
-26,-7,58,1625816583.0,32.000000
-25,-7,58,1625816583.0,32.000000
-25,-7,57,1625816583.0,32.000000
-24,-7,58,1625816583.0,32.000000
-25,-7,57,1625816583.0,32.000000
-25,-7,57,1625816583.0,32.000000
-27,-7,56,1625816583.0,32.000000
-26,-7,59,1625816583.0,32.000000
-23,-5,59,1625816583.0,32.000000
-24,-6,58,1625816583.0,32.000000
-25,-7,58,1625816583.0,32.000000
-25,-7,57,1625816583.0,32.000000
-24,-7,58,1625816583.0,32.000000
-24,-6,58,1625816583.0,32.000000
-25,-6,58,1625816583.0,32.000000
-25,-6,58,1625816583.0,32.000000
-25,-7,58,1625816583.0,32.000000
-25,-6,58,1625816583.0,32.000000
-25,-6,58,1625816583.0,32.000000
-24,-6,58,1625816583.0,32.000000
-25,-6,58,1625816583.0,32.000000
-25,-6,58,1625816583.0,32.000000
-26,-6,58,1625816583.0,32.000000
-26,-6,57,1625816583.0,32.000000
-26,-6,57,1625816583.0,32.000000
-27,-6,57,1625816583.0,32.000000
-27,-6,56,1625816583.0,32.000000
-25,-6,57,1625816583.0,32.000000
-27,-6,57,1625816583.0,32.000000
-27,-6,57,1625816583.0,32.000000
-26,-6,57,1625816583.0,32.000000
-27,-6,57,1625816583.0,32.000000
-26,-6,57,1625816583.0,32.000000
-26,-6,57,1625816583.0,32.000000
-26,-6,57,1625816583.0,32.000000
-26,-6,57,1625816583.0,32.000000
-25,-6,58,1625816583.0,32.000000
-26,-6,57,1625816583.0,32.000000
-27,-6,57,1625816583.0,32.000000
-27,-5,58,1625816583.0,32.000000
-28,-5,57,1625816583.0,32.000000
-24,-6,58,1625816583.0,32.000000
-23,-7,59,1625816583.0,32.000000
-25,-7,57,1625816583.0,32.000000
-26,-6,58,1625816583.0,32.000000
-26,-6,60,1625816583.0,32.000000
-29,-3,58,1625816583.0,32.000000
-24,-9,58,1625816583.0,32.000000
-16,-11,56,1625816583.0,32.000000
-16,-12,50,1625816583.0,32.000000
-22,-8,49,1625816583.0,32.000000
-29,-10,67,1625816583.0,32.000000
-22,0,61,1625816583.0,32.000000
-23,-6,56,1625816583.0,32.000000
-24,-9,57,1625816583.0,32.000000
-22,-8,58,1625816583.0,32.000000
-24,-7,58,1625816583.0,32.000000
-24,-6,58,1625816583.0,32.000000
-24,-6,59,1625816583.0,32.000000
-27,-7,58,1625816583.0,32.000000
-26,-6,57,1625816583.0,32.000000
-25,-6,58,1625816583.0,32.000000
-25,-6,57,1625816583.0,32.000000
-26,-6,57,1625816583.0,32.000000
-25,-6,57,1625816583.0,32.000000
-24,-6,58,1625816583.0,32.000000
-26,-6,58,1625816583.0,32.000000
-25,-6,58,1625816583.0,32.000000
-26,-6,57,1625816583.0,32.000000
-26,-6,57,1625816583.0,32.000000
-25,-6,57,1625816583.0,32.000000
-26,-6,57,1625816583.0,32.000000
-26,-6,57,1625816583.0,32.000000
-26,-6,58,1625816583.0,32.000000
-27,-6,57,1625816583.0,32.000000
-26,-6,57,1625816583.0,32.000000
-26,-6,57,1625816583.0,32.000000
-26,-6,57,1625816583.0,32.000000
-26,-6,57,1625816583.0,32.000000
-26,-6,57,1625816583.0,32.000000
-26,-6,57,1625816583.0,32.000000
-26,-6,57,1625816583.0,32.000000
-26,-6,57,1625816583.0,32.000000
-26,-6,58,1625816583.0,32.000000
-26,-6,57,1625816583.0,32.000000
-26,-6,57,1625816583.0,32.000000
-26,-6,57,1625816583.0,32.000000
-26,-6,57,1625816583.0,32.000000
-26,-6,57,1625816583.0,32.000000
-26,-6,57,1625816583.0,32.000000
-26,-6,57,1625816583.0,32.000000
-27,-6,57,1625816583.0,32.000000
-26,-6,57,1625816583.0,32.000000
-26,-6,57,1625816583.0,32.000000
-26,-6,57,1625816583.0,32.000000
-26,-7,57,1625816583.0,32.000000
-26,-6,57,1625816583.0,32.000000
-26,-6,57,1625816583.0,32.000000
-26,-6,57,1625816583.0,32.000000
-26,-6,57,1625816583.0,32.000000
-26,-7,57,1625816583.0,32.000000
-27,-6,57,1625816583.0,32.000000
-26,-6,58,1625816583.0,32.000000
-26,-7,57,1625816583.0,32.000000
-26,-7,57,1625816583.0,32.000000
-25,-7,57,1625816583.0,32.000000
-26,-6,58,1625816583.0,32.000000
-25,-6,57,1625816583.0,32.000000
-26,-6,57,1625816583.0,32.000000
-27,-6,58,1625816583.0,32.000000
-27,-6,57,1625816583.0,32.000000
-29,-6,60,1625816583.0,32.000000
-30,-3,63,1625816583.0,32.000000
-15,-8,63,1625816583.0,32.000000
-19,-7,58,1625816583.0,32.000000
-19,-11,55,1625816583.0,32.000000
-20,-10,51,1625816583.0,32.000000
-19,-8,49,1625816583.0,32.000000
-24,-9,56,1625816583.0,32.000000
-25,5,60,1625816583.0,32.000000
-26,-6,57,1625816583.0,32.000000
-24,-8,55,1625816583.0,32.000000
-24,-10,57,1625816583.0,32.000000
-21,-8,58,1625816583.0,32.000000
-25,-6,59,1625816583.0,32.000000
-26,-5,58,1625816583.0,32.000000
-27,-6,57,1625816583.0,32.000000
-26,-7,57,1625816583.0,32.000000
-25,-6,58,1625816583.0,32.000000
-25,-6,57,1625816583.0,32.000000
-26,-6,58,1625816583.0,32.000000
-26,-6,58,1625816583.0,32.000000
-25,-6,58,1625816583.0,32.000000
-25,-6,58,1625816583.0,32.000000
-26,-6,57,1625816583.0,32.000000
-26,-7,57,1625816583.0,32.000000
-26,-6,57,1625816583.0,32.000000
-26,-6,57,1625816583.0,32.000000
-26,-6,58,1625816583.0,32.000000
-26,-6,57,1625816583.0,32.000000
-26,-6,57,1625816583.0,32.000000
-26,-6,57,1625816583.0,32.000000
-26,-6,57,1625816583.0,32.000000
-26,-6,57,1625816583.0,32.000000
-25,-6,58,1625816583.0,32.000000
-26,-6,57,1625816583.0,32.000000
-26,-6,57,1625816583.0,32.000000
-26,-6,58,1625816583.0,32.000000
-26,-6,57,1625816583.0,32.000000
-26,-6,57,1625816583.0,32.000000
-26,-6,57,1625816583.0,32.000000
-26,-6,57,1625816583.0,32.000000
-26,-6,57,1625816583.0,32.000000
-26,-6,57,1625816583.0,32.000000
-26,-7,57,1625816583.0,32.000000
-25,-6,58,1625816583.0,32.000000
-26,-6,57,1625816583.0,32.000000
-27,-6,56,1625816583.0,32.000000
-28,-7,57,1625816583.0,32.000000
-26,-6,58,1625816583.0,32.000000
-26,-6,57,1625816583.0,32.000000
-27,-6,56,1625816583.0,32.000000
-26,-6,57,1625816583.0,32.000000
-26,-6,57,1625816583.0,32.000000
-26,-6,57,1625816583.0,32.000000
-27,-6,57,1625816583.0,32.000000
-27,-6,57,1625816583.0,32.000000
-27,-6,57,1625816583.0,32.000000
-27,-6,56,1625816583.0,32.000000
-26,-6,57,1625816583.0,32.000000
-28,-6,56,1625816583.0,32.000000
-29,-6,57,1625816583.0,32.000000
-27,-6,60,1625816583.0,32.000000
-30,-9,57,1625816583.0,32.000000
-18,-11,60,1625816583.0,32.000000
-16,-11,55,1625816583.0,32.000000
-16,-10,50,1625816583.0,32.000000
-17,-8,49,1625816583.0,32.000000
-28,-21,72,1625816583.0,32.000000
-28,5,63,1625816583.0,32.000000
-25,-7,61,1625816583.0,32.000000
-25,-10,57,1625816583.0,32.000000
-24,-8,57,1625816583.0,32.000000
-22,-6,59,1625816583.0,32.000000
-24,-5,58,1625816583.0,32.000000
-25,-6,58,1625816583.0,32.000000
-25,-6,58,1625816583.0,32.000000
-25,-6,57,1625816583.0,32.000000
-25,-6,58,1625816583.0,32.000000
-24,-6,58,1625816583.0,32.000000
-26,-7,58,1625816583.0,32.000000
-25,-6,57,1625816583.0,32.000000
-24,-6,58,1625816583.0,32.000000
-25,-6,58,1625816583.0,32.000000
-25,-6,58,1625816583.0,32.000000
-25,-6,58,1625816583.0,32.000000
-26,-6,58,1625816583.0,32.000000
-26,-6,58,1625816583.0,32.000000
-26,-6,57,1625816583.0,32.000000
-26,-6,58,1625816583.0,32.000000
-26,-6,57,1625816583.0,32.000000
-26,-6,57,1625816583.0,32.000000
-26,-6,58,1625816583.0,32.000000
-26,-6,57,1625816583.0,32.000000
-26,-6,57,1625816583.0,32.000000
-26,-6,58,1625816583.0,32.000000
-26,-6,57,1625816583.0,32.000000
-26,-6,57,1625816583.0,32.000000
-26,-6,57,1625816583.0,32.000000
-26,-6,57,1625816583.0,32.000000
-26,-6,57,1625816583.0,32.000000
-26,-6,57,1625816583.0,32.000000
-26,-6,57,1625816583.0,32.000000
-26,-6,57,1625816583.0,32.000000
-26,-6,57,1625816583.0,32.000000
-26,-6,57,1625816583.0,32.000000
-26,-6,57,1625816583.0,32.000000
-26,-6,57,1625816583.0,32.000000
-26,-6,57,1625816583.0,32.000000
-26,-6,57,1625816583.0,32.000000
-26,-6,57,1625816583.0,32.000000
-26,-6,57,1625816583.0,32.000000
-26,-6,57,1625816583.0,32.000000
-26,-6,57,1625816583.0,32.000000
-26,-6,57,1625816583.0,32.000000
-26,-6,57,1625816583.0,32.000000
-26,-6,57,1625816583.0,32.000000
-26,-6,57,1625816583.0,32.000000
-26,-6,57,1625816583.0,32.000000
-26,-6,58,1625816583.0,32.000000
-26,-6,57,1625816583.0,32.000000
-27,-6,57,1625816583.0,32.000000
-31,-7,55,1625816583.0,32.000000
-26,-7,58,1625816583.0,32.000000
-27,-5,56,1625816583.0,32.000000
-25,-5,58,1625816583.0,32.000000
-29,-4,60,1625816583.0,32.000000
-31,-2,59,1625816583.0,32.000000
-25,-7,57,1625816583.0,32.000000
-25,-10,62,1625816583.0,32.000000
-17,-9,53,1625816583.0,32.000000
-18,-8,44,1625816583.0,32.000000
-24,-8,50,1625816583.0,32.000000
-29,0,63,1625816583.0,32.000000
-20,-4,63,1625816583.0,32.000000
-28,-9,57,1625816583.0,32.000000
-23,-8,58,1625816583.0,32.000000
-23,-8,59,1625816583.0,32.000000
-25,-6,58,1625816583.0,32.000000
-25,-6,58,1625816583.0,32.000000
-25,-6,58,1625816583.0,32.000000
-26,-7,57,1625816583.0,32.000000
-25,-6,58,1625816583.0,32.000000
-25,-6,58,1625816583.0,32.000000
-25,-6,58,1625816583.0,32.000000
-25,-6,57,1625816583.0,32.000000
-25,-6,58,1625816583.0,32.000000
-27,-6,57,1625816583.0,32.000000
-26,-6,57,1625816583.0,32.000000
-26,-6,57,1625816583.0,32.000000
-26,-6,57,1625816583.0,32.000000
-26,-6,57,1625816583.0,32.000000
-26,-6,57,1625816583.0,32.000000
-27,-6,57,1625816583.0,32.000000
-26,-6,57,1625816583.0,32.000000
-27,-6,57,1625816583.0,32.000000
-26,-6,57,1625816583.0,32.000000
-27,-6,57,1625816583.0,32.000000
-27,-6,57,1625816583.0,32.000000
-27,-6,57,1625816583.0,32.000000
-27,-6,57,1625816583.0,32.000000
-27,-6,57,1625816583.0,32.000000
-27,-6,57,1625816583.0,32.000000
-27,-6,57,1625816583.0,32.000000
-26,-6,57,1625816583.0,32.000000
-26,-6,57,1625816583.0,32.000000
-26,-6,57,1625816583.0,32.000000
-27,-6,57,1625816583.0,32.000000
-26,-6,57,1625816583.0,32.000000
-27,-6,57,1625816583.0,32.000000
-26,-6,57,1625816583.0,32.000000
-26,-6,57,1625816583.0,32.000000
-27,-6,56,1625816583.0,32.000000
-26,-6,57,1625816583.0,32.000000
-26,-6,57,1625816583.0,32.000000
-26,-6,57,1625816583.0,32.000000
-26,-6,57,1625816583.0,32.000000
-27,-6,57,1625816583.0,32.000000
-27,-6,57,1625816583.0,32.000000
-26,-6,57,1625816583.0,32.000000
-26,-6,57,1625816583.0,32.000000
-26,-6,57,1625816583.0,32.000000
-26,-6,57,1625816583.0,32.000000
-26,-6,57,1625816583.0,32.000000
-26,-6,57,1625816583.0,32.000000
-24,-6,59,1625816583.0,32.000000
-26,-7,57,1625816583.0,32.000000
-26,-7,58,1625816583.0,32.000000
-27,-6,57,1625816583.0,32.000000
-26,-6,57,1625816583.0,32.000000
-25,-6,58,1625816583.0,32.000000
-26,-6,58,1625816583.0,32.000000
-43,2,59,1625816583.0,32.000000
-14,-9,62,1625816583.0,32.000000
-12,-9,61,1625816583.0,32.000000
-20,-12,48,1625816583.0,32.000000
-19,-10,45,1625816583.0,32.000000
-25,-20,63,1625816583.0,32.000000
-25,-3,61,1625816583.0,32.000000
-28,-3,62,1625816583.0,32.000000
-24,-10,58,1625816583.0,32.000000
-21,-8,59,1625816583.0,32.000000
-22,-7,59,1625816583.0,32.000000
-25,-6,58,1625816583.0,32.000000
-25,-5,58,1625816583.0,32.000000
-26,-6,57,1625816583.0,32.000000
-26,-6,58,1625816583.0,32.000000
-27,-6,58,1625816583.0,32.000000
-27,-7,57,1625816583.0,32.000000
-27,-7,57,1625816583.0,32.000000
-26,-6,57,1625816583.0,32.000000
-26,-6,58,1625816583.0,32.000000
-26,-5,57,1625816583.0,32.000000
-27,-6,57,1625816583.0,32.000000
-26,-6,57,1625816583.0,32.000000
-26,-6,57,1625816583.0,32.000000
-27,-6,57,1625816583.0,32.000000
-27,-6,56,1625816583.0,32.000000
-27,-6,57,1625816583.0,32.000000
-27,-6,57,1625816583.0,32.000000
